IsRaceOn,TimestampMS,EngineMaxRpm,EngineIdleRpm,CurrentEngineRpm,AccelerationX,AccelerationY,AccelerationZ,VelocityX,VelocityY,VelocityZ,AngularVelocityX,AngularVelocityY,AngularVelocityZ,Yaw,Pitch,Roll,NormalizedSuspensionTravelFrontLeft,NormalizedSuspensionTravelFrontRight,NormalizedSuspensionTravelRearLeft,NormalizedSuspensionTravelRearRight,TireSlipRatioFrontLeft,TireSlipRatioFrontRight,TireSlipRatioRearLeft,TireSlipRatioRearRight,WheelRotationSpeedFrontLeft,WheelRotationSpeedFrontRight,WheelRotationSpeedRearLeft,WheelRotationSpeedRearRight,WheelOnRumbleStripFrontLeft,WheelOnRumbleStripFrontRight,WheelOnRumbleStripRearLeft,WheelOnRumbleStripRearRight,WheelInPuddleDepthFrontLeft,WheelInPuddleDepthFrontRight,WheelInPuddleDepthRearLeft,WheelInPuddleDepthRearRight,SurfaceRumbleFrontLeft,SurfaceRumbleFrontRight,SurfaceRumbleRearLeft,SurfaceRumbleRearRight,TireSlipAngleFrontLeft,TireSlipAngleFrontRight,TireSlipAngleRearLeft,TireSlipAngleRearRight,TireCombinedSlipFrontLeft,TireCombinedSlipFrontRight,TireCombinedSlipRearLeft,TireCombinedSlipRearRight,SuspensionTravelMetersFrontLeft,SuspensionTravelMetersFrontRight,SuspensionTravelMetersRearLeft,SuspensionTravelMetersRearRight,CarOrdinal,CarClass,CarPerformanceIndex,DrivetrainType,NumCylinders,PositionX,PositionY,PositionZ,Speed,Power,Torque,TireTempFl,TireTempFr,TireTempRl,TireTempRr,Boost,Fuel,Distance,BestLapTime,LastLapTime,CurrentLapTime,CurrentRaceTime,Lap,RacePosition,Accelerator,Brake,Clutch,Handbrake,Gear,Steer,NormalDrivingLine,NormalAiBrakeDifference
True,1879359,7999.995,1269.8213,5220.1416,-0.30815712,0.6709977,-1.47704,0.00053840876,0.108175986,33.033997,-0.017326996,0.0003943218,0.011467249,-1.5910003,0.0089418655,-0.00019088753,0.59025544,0.6011308,0.52869344,0.53190553,-0.0044522546,-0.004570725,-0.014576344,-0.014546537,102.080345,102.07736,101.97054,101.96905,0,0,0,0,0,0,0,0,0,0,0,0,-0.001872691,-0.002307565,-0.0011378591,-0.0028139367,0.0048300666,0.0051201936,0.014620688,0.014816206,0.010650158,0.011933446,0.005515486,0.005879998,53,3,190,2,4,-5062.623,128.67787,-2598.6912,33.034172,-29167.621,-53.35224,186.34557,186.08235,187.99219,187.99219,-11.013586,1,672.999,0,0,0.7153718,133.59796,0,11,0,0,0,0,3,0,30,0
True,1894625,7999.995,1269.8213,1715.566,-1.3191858E-07,4.8818094E-10,2.316748E-07,0.0023118672,-0.0003232665,-6.2886276E-05,-9.774917E-05,-4.0389627E-05,-0.003931895,-1.0531725,0.0021581808,-0.0001550102,0.50025016,0.5014776,0.478735,0.4799756,1.5963986E-05,1.8191577E-05,2.4792738E-05,2.697462E-05,-7.396742E-05,9.1266826E-05,-5.386484E-05,0.00010993749,0,0,0,0,0,0,0,0,0,0,0,0,0.0011141058,0.0011150264,0.0007466069,0.00074744003,0.0011142202,0.0011151748,0.00074701844,0.00074792665,2.9534101E-05,0.00017437339,-0.00015386939,-1.30832195E-05,53,3,190,2,4,-906.0598,320.3751,-3661.7603,0.0023352057,40732.73,229.30434,96.71877,96.719055,96.71956,96.71956,-11.0250025,1,-63.47588,0,0,0.09779856,0.09779856,0,8,255,0,0,0,1,0,53,0
True,1894734,7999.995,1269.8213,3073.5715,0.19519022,-0.020602113,0.07467972,0.0053293705,-0.00095524866,-2.272008E-05,-3.8596336E-05,1.0654844E-05,-0.008816135,-1.0531725,0.0021497733,-0.0008797447,0.49742752,0.50522107,0.47605813,0.4840404,1.8653406E-06,2.1300411E-07,2.399088E-06,3.957441E-07,6.382004E-05,-8.338395E-05,6.1623556E-05,-8.513217E-05,0,0,0,0,0,0,0,0,0,0,0,0,0.0004765995,0.0004916025,0.00040901513,0.00042406525,0.00047660316,0.0004916026,0.00040902218,0.00042406542,-0.00030353665,0.0006161034,-0.00045764446,0.00044819713,53,3,190,2,4,-906.0596,320.375,-3661.7598,0.005414352,150860.69,474.94983,96.67613,96.67642,96.67673,96.67673,-8.68976,1,-63.475853,0,0,0.205059,0.205059,0,8,255,0,0,0,1,0,53,0
True,1894859,7999.995,1269.8213,4910.9243,-0.2727722,0.013495444,0.94679505,0.0035542548,-0.00048494426,0.100131795,-0.016271265,-9.039746E-05,-0.0060159517,-1.0531731,0.0018800736,-0.001902344,0.49183783,0.5099978,0.47368327,0.4925298,0.06746246,0.06222859,0.23802468,0.21983266,0.42925823,0.42207146,0.6646008,0.6323554,0,0,0,0,0,0,0,0,0,0,0,0,-0.00069740246,-0.0006536049,-0.000790112,-0.0007393216,0.067466065,0.06223202,0.238026,0.21983391,-0.00096312165,0.0011797547,-0.00072714686,0.001411587,53,3,190,2,4,-906.06067,320.3749,-3661.7585,0.10019602,243193.84,474.94983,96.62901,96.62924,96.635544,96.635544,3.8505697,1,-63.474613,0,0,0.33060226,0.3306023,0,8,255,0,0,0,1,0,53,0
True,1894968,7999.995,1269.8213,4522.15,-0.024969578,-0.015698744,9.5839405,0.0011748672,-0.008199577,1.2857945,-0.08902353,-0.000972012,-0.0017503947,-1.053258,-0.0056075654,-0.002242448,0.44487366,0.46779618,0.56753945,0.5909209,0.45269477,0.6511198,1.7300537,1.5266721,4.548661,4.4019256,7.6833334,7.256553,0,0,0,0,0,0,0,0,0,0,0,0,0.00021916303,0.0010907457,-0.005831944,-0.0021421895,0.45269483,0.6511207,1.7300636,1.5266737,-0.0065048933,-0.0038000345,0.009923786,0.012577146,53,3,190,2,4,-906.1258,320.37442,-3661.7212,1.285821,197561.6,415.74158,96.70801,96.71513,97.896484,97.896484,17.659592,1,-63.414967,0,0,0.44936204,0.44936204,0,7,255,0,0,0,1,0,53,0
True,1895078,7999.995,1269.8213,4119.9414,-0.021030903,-0.09164982,10.8072605,0.00022983551,-0.031487383,2.4290257,-0.060235597,-0.0038019612,0.0040879827,-1.0534883,-0.013668905,-0.0020781446,0.3923554,0.42829522,0.6894008,0.7360293,0.2898665,0.48972377,4.9679503,4.6640987,8.327087,7.9435673,17.772348,17.276867,0,0,0,0,0,0,0,0,0,0,0,0,0.0009282285,0.0027836035,-0.03790505,-0.009133721,0.289868,0.4897317,4.968095,4.664108,-0.012702048,-0.008461148,0.023752779,0.029044256,53,3,190,2,4,-906.2926,320.37415,-3661.6262,2.4292297,197980.95,458.32852,96.80261,96.818405,104.51617,104.51617,22.035011,1,-63.262436,0,0,0.55146337,0.55146337,0,7,255,0,0,0,1,0,53,0
True,1895187,7999.995,1269.8213,4013.019,-0.045966625,-0.02938908,10.790756,-0.0015957355,-0.038110353,3.5719452,-0.011413103,-0.004775256,0.004648555,-1.0539435,-0.017123068,-0.0015549423,0.34880993,0.38098758,0.73406667,0.7785754,0.09230933,0.3934732,0.71168965,0.43580624,12.07495,11.05994,11.896319,12.072005,0,0,0,0,0,0,0,0,0,0,0,0,0.006683295,0.00814892,-0.038592394,0.005161505,0.092550956,0.39355758,0.71273524,0.43583682,-0.017840415,-0.01404345,0.028821528,0.03387244,53,3,190,2,4,-906.5668,320.3756,-3661.4702,3.5721488,196366.48,467.04187,96.901825,96.92704,112.629654,112.629654,22.962658,1,-63.01176,0,0,0.656178,0.656178,0,7,255,0,0,0,1,0,53,0
True,1895296,7999.995,1269.8213,3902.0837,-0.042642117,-0.17163807,10.430332,-0.0010814667,-0.053125802,4.6410336,0.0158601,-0.0023178488,0.002482892,-1.0541177,-0.016206028,-0.001189775,0.32713327,0.3523756,0.7160181,0.75404775,0.015655411,0.8189768,0.63711685,0.5445026,15.6751585,14.584933,15.633348,15.449035,0,0,0,0,0,0,0,0,0,0,0,0,-0.0008489436,0.00025223158,-0.017606664,0.020129733,0.015678411,0.8189769,0.6373601,0.54487455,-0.02039826,-0.017419666,0.026773348,0.031089008,53,3,190,2,4,-906.9363,320.3784,-3661.2605,4.6413374,192223.33,469.96756,97.005875,97.04843,112.09345,112.09345,23.148373,1,-62.674164,0,0,0.7594058,0.7594058,0,7,255,0,0,0,1,0,53,0
True,1895421,7999.995,1269.8213,3667.8145,0.029024124,-0.30070394,10.805524,-3.1471252E-05,-0.09078371,6.150193,0.0067159967,-0.0005967881,0.00061053736,-1.0543414,-0.014628837,-0.0009844829,0.31930208,0.3363624,0.6767939,0.7112434,0.46961045,-0.001859367,0.6814104,0.57440394,19.038021,20.445793,20.417429,20.225565,0,0,0,0,0,0,0,0,0,0,0,0,0.003087477,0.003943822,-0.017210312,0.008918271,0.46962062,0.004360158,0.6816277,0.5744732,-0.02132234,-0.019309223,0.022322133,0.026231512,53,3,190,2,4,-907.5941,320.37973,-3660.887,6.1508627,181814.89,472.81036,97.150055,97.205505,111.44294,111.44294,23.190914,1,-62.073025,0,0,0.899283,0.89928293,0,7,255,0,0,0,1,0,53,0
True,1895515,7999.995,1269.8213,3533.8245,-0.13172436,-0.25562897,10.73871,0.000490427,-0.108607575,7.021969,0.0032677515,-0.0025277731,-0.00015421025,-1.0544788,-0.0142486,-0.00096892344,0.3188841,0.33128765,0.669025,0.7013689,0.05000234,0.6017757,0.63588077,0.5602525,22.992485,21.844357,23.22487,23.05318,0,0,0,0,0,0,0,0,0,0,0,0,0.0001157803,0.0009322068,-0.012409769,0.011696864,0.050002474,0.6017764,0.6360018,0.5603746,-0.021371663,-0.01990804,0.021440506,0.025110945,53,3,190,2,4,-908.05804,320.37933,-3660.6235,7.0228086,175556.27,473.81772,97.22946,97.289185,111.104996,111.104996,23.194946,1,-61.649075,0,0,0.9801039,0.9801039,0,7,255,0,0,0,1,0,53,0
True,1895625,7999.995,1269.8213,3209.7515,0.094873905,-0.20907214,9.769501,0.0001487732,-0.12533608,8.04443,0.012463118,-0.0023241597,0.00035019265,-1.0546393,-0.013615599,-0.0009225345,0.32420936,0.3297521,0.6636073,0.6914107,-0.026937356,0.47705963,0.34598464,0.33117378,26.048195,24.780504,25.759302,25.689388,0,0,0,0,0,0,0,0,0,0,0,0,-0.000465772,0.00031899937,-0.010772751,0.011843539,0.026941383,0.47705975,0.3461523,0.3313855,-0.02074328,-0.020089239,0.020825699,0.02398087,53,3,190,2,4,-908.7479,320.37805,-3660.232,8.045405,139897.16,416.59708,97.3118,97.375725,110.69466,110.69466,23.196266,1,-61.01873,0,0,1.084889,1.084889,0,7,255,0,0,0,1,0,53,0
True,1895734,7999.995,1269.8213,3547.762,0.07950902,-0.14317477,8.125261,0.0014939308,-0.122446254,8.894218,0.017477628,-0.0016470101,-0.0017695185,-1.0547295,-0.011406472,-0.001017092,0.35199422,0.35264835,0.64236957,0.6637876,-0.023791239,0.400748,0.33344588,0.33315605,28.655813,27.39554,28.498533,28.42379,0,0,0,0,0,0,0,0,0,0,0,0,-0.0013614165,-0.0005505387,-0.0070902645,0.009923925,0.023830159,0.4007484,0.33352125,0.3333038,-0.017464668,-0.01738748,0.018415615,0.020846158,53,3,190,2,4,-909.5626,320.3759,-3659.7695,8.895061,175636.48,473.84973,97.389915,97.45378,110.1764,110.1764,23.19654,1,-60.274357,0,0,1.1954376,1.1954377,0,7,255,0,0,0,1,0,53,0
True,1895843,7999.995,1269.8213,3894.7527,0.007925034,0.0022327807,7.7797832,0.0016489029,-0.11145307,9.762174,0.0018801334,-0.0013455385,-0.0015390252,-1.0547838,-0.010341576,-0.001205954,0.37780303,0.3768804,0.62759376,0.64203936,-0.021289146,0.36172515,0.32968274,0.3298859,31.357285,30.106268,31.279112,31.240501,0,0,0,0,0,0,0,0,0,0,0,0,-0.0017495377,-0.0009420695,-0.005271327,0.0074200467,0.021360913,0.36172637,0.32972488,0.32996935,-0.014419228,-0.014528096,0.016738832,0.018378139,53,3,190,2,4,-910.4719,320.37402,-3659.2534,9.76281,191527,470.57208,97.46514,97.52884,109.69269,109.69269,23.196552,1,-59.443546,0,0,1.3073759,1.3073761,0,7,255,0,0,0,1,0,53,0
True,1895953,7999.995,1269.8213,4223.3574,-0.05069065,0.044622473,7.5644784,0.0010375977,-0.109270215,10.589842,-0.007742071,-0.0010399541,-0.0005457443,-1.0548099,-0.010749451,-0.0013050304,0.38808408,0.38775095,0.62387085,0.630981,-0.018702544,0.32390627,0.32168576,0.3277853,33.89747,32.68411,33.922348,33.901154,0,0,0,0,0,0,0,0,0,0,0,0,-0.0017661226,-0.0009463303,-0.004593603,0.006364978,0.018785749,0.32390764,0.32171857,0.32784712,-0.013206065,-0.013245374,0.016316354,0.017123222,53,3,190,2,4,-911.44244,320.37372,-3658.703,10.590406,205509.3,465.52444,97.52922,97.59288,109.26491,109.26491,23.196552,1,-58.55692,0,0,1.4169033,1.4169035,0,7,255,0,0,0,1,0,53,0
True,1896078,7999.995,1269.8213,4538.099,-0.42751837,0.0640029,7.5862985,0.00047302246,-0.11624215,11.388151,-0.008984955,0.00012990087,0.0003095537,-1.0548016,-0.01172663,-0.0013217794,0.38835582,0.38941583,0.62498254,0.62641644,0.12169118,0.16689888,0.31633556,0.31982455,35.73837,35.703064,36.458813,36.462894,0,0,0,0,0,0,0,0,0,0,0,0,-0.0012459372,-0.00037703224,-0.0052965977,0.0051869648,0.12169756,0.1668993,0.3163799,0.3198666,-0.013173997,-0.013048917,0.016442508,0.016605228,53,3,190,2,4,-912.48114,320.37497,-3658.1135,11.388744,217973.39,459.12698,97.578186,97.64414,108.88251,108.88251,23.196552,1,-57.607933,0,0,1.5254602,1.5254605,0,7,255,0,0,0,1,0,53,0
True,1896171,7999.995,1269.8213,4797.537,0.5741117,0.036413938,8.084324,-0.00022411346,-0.12519364,12.049787,-0.0047357404,0.00013440676,0.001360741,-1.0547887,-0.012381841,-0.0012445563,0.38554886,0.38829926,0.6259051,0.62519735,0.13336948,0.13147259,0.3122436,0.31498098,37.78942,37.781597,38.532707,38.53843,0,0,0,0,0,0,0,0,0,0,0,0,-0.0010502816,-0.0001222051,-0.005467976,0.004866842,0.13337362,0.13147265,0.31229147,0.31501856,-0.01350522,-0.013180673,0.016547203,0.016466886,53,3,190,2,4,-913.41296,320.3769,-3657.585,12.050436,227147.97,452.7371,97.616806,97.6789,108.590164,108.590164,23.196552,1,-56.756664,0,0,1.61679,1.6167904,0,7,255,0,0,0,1,0,53,0
True,1896281,7999.995,1269.8213,5114.1924,-0.056272984,-0.06312783,6.7404213,-0.0010266304,-0.13546045,12.855862,0.0044097374,0.00016290367,0.002455464,-1.0547713,-0.012411785,-0.0010267567,0.3803759,0.3855102,0.6248833,0.62307906,0.13247076,0.13025504,0.3076358,0.31058133,40.294903,40.2859,41.069763,41.079006,0,0,0,0,0,0,0,0,0,0,0,0,-0.0009605081,2.894823E-05,-0.005105736,0.0046969596,0.13247424,0.13025504,0.3076782,0.31061685,-0.014115632,-0.01350978,0.016431242,0.0162265,53,3,190,2,4,-914.6414,320.37973,-3656.8882,12.856575,237437.58,443.97092,97.66251,97.72412,108.26224,108.26224,23.196552,1,-55.63441,0,0,1.7300982,1.7300985,0,7,255,0,0,0,1,0,53,0
True,1896390,7999.995,1269.8213,5426.783,-0.5442281,-0.10517058,5.929988,-0.0014839172,-0.14155413,13.65183,0.012977428,9.906055E-05,0.0026736222,-1.054756,-0.011366169,-0.0007162766,0.37612247,0.3819049,0.6201966,0.618597,0.12888752,0.12799846,0.30504748,0.30663717,42.75678,42.75353,43.581505,43.586567,0,0,0,0,0,0,0,0,0,0,0,0,-0.0006516862,0.00032609713,-0.0044860863,0.0044752588,0.12888917,0.12799887,0.30508047,0.30666983,-0.0146175325,-0.013935208,0.01589939,0.015717864,53,3,190,2,4,-915.96,320.38196,-3656.1404,13.652564,246544.27,434.40967,97.709236,97.770386,107.968445,107.968445,23.196552,1,-54.429832,0,0,1.8443737,1.844374,0,7,255,0,0,0,1,0,53,0
True,1896500,7999.995,1269.8213,5732.1553,0.5584738,-0.14957128,7.460992,-0.0011811256,-0.14375423,14.427394,0.014822736,-1.8359602E-05,0.0017798962,-1.054753,-0.009702775,-0.00045420646,0.37734514,0.38040897,0.6114621,0.6121859,0.123394005,0.12434753,0.30283442,0.30160788,45.15715,45.162006,46.03948,46.03489,0,0,0,0,0,0,0,0,0,0,0,0,-0.00036335117,0.00054491824,-0.0040387916,0.004155452,0.12339454,0.12434872,0.30286136,0.30163652,-0.014473259,-0.0141117275,0.014908195,0.01499033,53,3,190,2,4,-917.3528,320.38254,-3655.3503,14.428109,254531.25,424.46207,97.75589,97.816826,107.70972,107.70972,23.196552,1,-53.15749,0,0,1.9583299,1.9583302,0,7,255,0,0,0,1,0,53,0
True,1896625,7999.995,1269.8213,6023.466,-0.6654291,-0.08507968,6.840947,0.00016069412,-0.1443584,15.168079,0.009878382,-0.00011139747,-0.0010322845,-1.0547614,-0.0082881665,-0.0004007455,0.3858355,0.382878,0.6029578,0.6058552,0.1172656,0.11982617,0.29684404,0.29351348,47.45636,47.468594,48.379715,48.367172,0,0,0,0,0,0,0,0,0,0,0,0,-5.4090324E-05,0.00078607205,-0.0035337831,0.0039724256,0.117265604,0.119828746,0.29686508,0.29354036,-0.013471395,-0.01382038,0.013943106,0.014271915,53,3,190,2,4,-918.7875,320.3812,-3654.5366,15.168766,260968.58,414.20822,97.80132,97.86235,107.48715,107.48715,23.196552,1,-51.846825,0,0,2.0697122,2.0697124,0,7,255,0,0,0,1,0,53,0
True,1896718,7999.995,1269.8213,6254.4014,-0.113737345,-0.12639014,6.936533,0.0018401146,-0.14402221,15.765259,0.004419643,-0.00012826119,-0.0035307189,-1.0547737,-0.007644533,-0.00061896787,0.39541999,0.38809618,0.59915084,0.6024152,0.11112597,0.113368504,0.28314778,0.28004223,49.304955,49.315655,50.221973,50.21002,0,0,0,0,0,0,0,0,0,0,0,0,-0.0001521079,0.00066211045,-0.0034775506,0.0036892453,0.11112607,0.11337043,0.28316912,0.28006652,-0.012340426,-0.013204634,0.0135110915,0.013881534,53,3,190,2,4,-920.0327,320.37918,-3653.83,15.765916,260478.3,398.10083,97.83867,97.89986,107.322235,107.322235,23.196552,1,-50.709175,0,0,2.1622152,2.1622157,0,7,255,0,0,0,1,0,53,0
True,1896828,7999.995,1269.8213,6520.4487,-0.08474302,-0.053032048,5.876947,0.0031013489,-0.14414774,16.457901,0.002197014,3.4048921E-06,-0.00430464,-1.054782,-0.007343472,-0.0010911995,0.4025397,0.39511085,0.5989119,0.59970737,0.1064378,0.10666784,0.26515704,0.26434657,51.450455,51.451267,52.335415,52.33182,0,0,0,0,0,0,0,0,0,0,0,0,-0.0007123965,0.00012389466,-0.0037397693,0.003201277,0.10644019,0.106667906,0.26518342,0.26436594,-0.011500299,-0.0123769045,0.013483971,0.013574243,53,3,190,2,4,-921.60474,320.37653,-3652.938,16.458532,258791.53,379.3281,97.88277,97.94403,107.14183,107.14183,23.196552,1,-49.27291,0,0,2.2743242,2.2743247,0,7,255,0,0,0,1,0,54,0
True,1896937,7999.995,1269.8213,6808.06,-0.28535652,-0.04213219,5.614353,0.002342701,-0.14016384,17.208572,0.0040500304,0.00019948477,-0.0016812579,-1.0547693,-0.00689453,-0.0015171194,0.40477616,0.4034795,0.59873015,0.5964574,0.100107834,0.09862052,0.24916412,0.25025633,53.75735,53.74889,54.626034,54.629868,0,0,0,0,0,0,0,0,0,0,0,0,-0.0012375384,-0.00044279863,-0.003934278,0.0027408549,0.10011548,0.09862152,0.24919519,0.25027135,-0.011236399,-0.011389405,0.013463348,0.013205439,53,3,190,2,4,-923.4826,320.37363,-3651.8723,17.209143,255551.03,358.73004,97.93208,97.993225,106.959465,106.959465,23.196552,1,-47.55717,0,0,2.4025,2.4025004,0,7,255,0,0,0,1,0,54,0
True,1897062,7999.995,1269.8213,6666.518,-0.017816126,-0.061544813,1.2683201,0.00059843063,-0.100941196,17.314865,0.0480654,0.0001971327,0.00080272555,-1.0547501,-0.004309704,-0.0015396428,0.4289231,0.4320915,0.5751097,0.57259667,-0.013158089,-0.0131845195,-0.043032475,-0.0432058,53.356327,53.35654,53.184044,53.182503,0,0,0,0,0,0,0,0,0,0,0,0,-0.0009499067,-0.0004005717,-0.0025588966,0.0015898293,0.013192331,0.013190603,0.04310849,0.04323504,-0.008387059,-0.008013189,0.010782868,0.010497689,53,3,190,2,4,-925.05896,320.37128,-3650.9778,17.315159,-44596.395,-63.8704,97.94754,98.00871,106.7664,106.7664,-2.0261364,1,-46.116905,0,0,2.5070734,2.507074,0,7,255,0,0,0,1,0,54,0
True,1897171,7999.995,1269.8213,6483.0874,-0.70275766,0.124129795,-0.42657816,7.247925E-05,-0.006905839,17.255024,0.027747016,9.475901E-05,0.0004505813,-1.0547419,0.00022958065,-0.0014416103,0.49482387,0.49561515,0.52129734,0.5217448,8.135912E-05,8.0705315E-05,8.637176E-05,8.500447E-05,53.28026,53.27988,53.28065,53.28024,0,0,0,0,0,0,0,0,0,0,0,0,-0.00013096115,-0.00031181643,0.00033624968,-0.000606632,0.00015417565,0.00032209133,0.00034716557,0.0006125587,-0.0006107688,-0.0005173981,0.004676163,0.0047269464,53,3,190,2,4,-926.68097,320.3689,-3650.0576,17.255024,-43396.836,-63.8704,97.94874,98.009766,106.539246,106.539246,-9.298977,1,-44.635094,0,0,2.615016,2.615017,0,7,255,0,0,0,1,0,54,0
True,1897265,7999.995,1269.8213,6283.091,0.06923513,0.2740411,-0.19313638,0.00087833405,0.04458448,17.231304,0.002281899,0.00011463662,-0.0013125157,-1.0547346,0.0014750435,-0.0014818859,0.5277226,0.5241286,0.49685618,0.49974054,0.00018602604,0.00018964108,0.00020567719,0.0002040525,53.25448,53.253918,53.25454,53.25398,0,0,0,0,0,0,0,0,0,0,0,0,0.0001610613,-0.0003761506,0.0002738511,-0.00023330243,0.00024606183,0.00042125172,0.00034248727,0.0003099475,0.0032712817,0.0028471947,0.0019025505,0.0022298694,53,3,190,2,4,-928.0648,320.36935,-3649.2725,17.231361,-42062.883,-63.8704,97.94808,98.008804,106.353836,106.353836,-10.60454,1,-43.37078,0,0,2.70729,2.707291,0,7,255,0,0,0,1,0,54,0
True,1897390,7999.995,1269.8213,5747.4175,0.12335709,0.007984526,1.0223681,0.0009126663,0.042197272,17.316538,-0.013308947,0.00018357519,0.0009221211,-1.0547144,0.00086175505,-0.0016137476,0.5183192,0.51762545,0.49368796,0.4925172,0.051365502,0.050256617,0.14563018,0.14750776,53.86062,53.853283,54.413795,54.42246,0,0,0,0,0,0,0,0,0,0,0,0,-0.0008015714,-0.0009855593,-0.00039717634,-0.00079860695,0.051371757,0.05026628,0.14563073,0.14750992,0.0021616817,0.0020798147,0.0015430152,0.0014101565,53,3,190,2,4,-930.0573,320.37314,-3648.1418,17.31659,8192.034,13.55744,97.950195,98.01097,106.12578,106.12578,-3.2141523,1,-41.55039,0,0,2.8401983,2.8401992,0,7,255,0,0,0,2,0,54,0
True,1897500,7999.995,1269.8213,4431.8457,0.031194687,-0.21428639,5.138585,-0.0018649101,-0.03522772,17.895231,-0.036880698,0.0004067916,0.006360138,-1.054681,-0.0020280853,-0.0012269837,0.4725201,0.482613,0.5367824,0.5304795,0.09964999,0.0946014,0.22900479,0.23492204,55.928135,55.900864,56.62811,56.653976,0,0,0,0,0,0,0,0,0,0,0,0,-0.001540105,-0.0010636876,-0.00054823275,-0.0010764191,0.09966189,0.09460738,0.22900544,0.2349245,-0.003242612,-0.0020516515,0.0064334273,0.0057181716,53,3,190,2,4,-931.6985,320.37473,-3647.2107,17.895266,76158.02,163.35443,97.98593,98.04666,106.05948,106.05948,0.4781599,1,-40.050995,0,0,2.9475548,2.947556,0,7,255,0,0,0,2,0,54,0
True,1897609,7999.995,1269.8213,4392.5957,0.23814332,-0.1156283,3.3613126,-0.0056295395,-0.06686101,18.221014,0.006845122,0.000267047,0.010755753,-1.0546398,-0.0029735302,-0.00025383302,0.43626103,0.4537954,0.5616537,0.5560625,0.057190556,0.055568054,0.14861579,0.1518535,56.65681,56.6477,57.2215,57.235912,0,0,0,0,0,0,0,0,0,0,0,0,-0.0008585288,-0.0003290479,-0.0014823822,0.000820114,0.057197,0.055569027,0.14862318,0.1518557,-0.0075211823,-0.0054521263,0.009255856,0.008621365,53,3,190,2,4,-933.4227,320.3739,-3646.2327,18.221136,144799.66,315.01898,98.010185,98.0711,105.971634,105.971634,4.5592546,1,-38.47584,0,0,3.057266,3.057267,0,8,255,0,0,0,2,0,54,0
True,1897718,7999.995,1269.8213,4421.0317,-0.04695666,-0.01634556,3.6121628,-0.007112503,-0.0681393,18.613403,-0.009365388,-4.9397277E-05,0.01068602,-1.0546286,-0.0029844549,0.0009078334,0.44180933,0.45787555,0.54861385,0.55013674,0.066930585,0.06678573,0.1835609,0.18480666,57.970333,57.970253,58.691906,58.698925,0,0,0,0,0,0,0,0,0,0,0,0,0.00021330723,0.0005426769,-0.00048051248,0.0011497521,0.06693093,0.066787936,0.18356152,0.18481024,-0.006866485,-0.0049706697,0.0077760816,0.007948905,53,3,190,2,4,-935.1094,320.37234,-3645.2764,18.613527,174724.62,377.63504,98.037155,98.09805,105.90852,105.90852,11.694322,1,-36.93516,0,0,3.1625514,3.1625524,0,8,255,0,0,0,2,0,54,0
True,1897828,7999.995,1269.8213,4545.1313,0.06242466,0.13374007,4.314144,-0.004675865,-0.08875628,19.089918,-0.021565141,-0.00038135768,0.0028995797,-1.0546541,-0.0049213595,0.0017003897,0.4496347,0.45610106,0.55713767,0.56221616,0.07945379,0.08228212,0.20550093,0.20318806,59.55655,59.574913,60.361626,60.35165,0,0,0,0,0,0,0,0,0,0,0,0,0.0013681786,0.0019197151,-4.406701E-05,0.002502611,0.07946557,0.08230451,0.20550095,0.20320347,-0.0059430897,-0.005180061,0.008743376,0.009319693,53,3,190,2,4,-936.8971,320.37198,-3644.2627,19.090124,206792.1,434.7686,98.07149,98.131996,105.87216,105.87216,19.957466,1,-35.302113,0,0,3.2715678,3.271569,0,8,255,0,0,0,2,0,54,0
True,1897937,7999.995,1269.8213,4675.543,0.06838465,-0.012211088,4.8148203,0.000500679,-0.11839872,19.63553,-0.000752009,-0.0006331753,-0.0048571136,-1.0547178,-0.0063662864,0.0015560944,0.4388584,0.43217257,0.57927823,0.5874512,0.08774926,0.09186776,0.21286137,0.20836115,61.2676,61.293674,62.095844,62.076008,0,0,0,0,0,0,0,0,0,0,0,0,0.0010718176,0.0019602438,-0.001499312,0.0031864191,0.08775581,0.09188867,0.21286665,0.20838551,-0.007214695,-0.008003622,0.01125592,0.012183398,53,3,190,2,4,-938.7904,320.3729,-3643.1885,19.635885,220895,451.45636,98.11185,98.17192,105.86035,105.86035,22.616978,1,-33.57242,0,0,3.3839595,3.3839605,0,8,255,0,0,0,2,0,54,0
True,1898046,7999.995,1269.8213,4802.589,0.033890247,-0.13974951,4.894894,0.0043907166,-0.12086537,20.163557,0.008127477,-0.00044630046,-0.009137876,-1.0547775,-0.005600422,0.0007673873,0.42844248,0.41472054,0.5809774,0.5850603,0.08540051,0.087111264,0.22180402,0.21938664,62.882633,62.89432,63.803074,63.791958,0,0,0,0,0,0,0,0,0,0,0,0,0.0003903057,0.001106612,-0.0021849403,0.0027386718,0.0854014,0.0871183,0.2218148,0.21940373,-0.008443773,-0.010062963,0.011448741,0.011912078,53,3,190,2,4,-940.6461,320.37283,-3642.1355,20.16392,227020.27,451.70135,98.15234,98.21221,105.86452,105.86452,23.084095,1,-31.87696,0,0,3.4911463,3.4911475,0,8,255,0,0,0,2,0,54,0
True,1898171,7999.995,1269.8213,4931.3066,-0.12267876,0.111416325,5.088258,0.0061120987,-0.12330387,20.702595,-0.0096576335,-0.00012261301,-0.009239694,-1.0548086,-0.0056551704,-0.0002968525,0.43780065,0.4236539,0.57395494,0.5729948,0.08221463,0.08274634,0.21684282,0.21480235,64.58001,64.58341,65.50997,65.49822,0,0,0,0,0,0,0,0,0,0,0,0,-0.0004605408,7.264008E-05,-0.0024726002,0.001737402,0.08221592,0.08274637,0.21685691,0.21480937,-0.0073395073,-0.009008825,0.010651827,0.01054287,53,3,190,2,4,-942.6001,320.3717,-3641.0264,20.702963,231682.86,448.89212,98.19536,98.255035,105.88147,105.88147,23.175674,1,-30.091587,0,0,3.6010704,3.6010716,0,8,255,0,0,0,2,0,54,0
True,1898281,7999.995,1269.8213,5062.934,0.27709007,0.24795893,4.517659,0.0047302246,-0.13084126,21.263285,-0.017329775,0.0002254063,-0.0044175484,-1.0547998,-0.0074920123,-0.0011316775,0.4458503,0.4391602,0.5852252,0.5807237,0.084397584,0.08260626,0.20599261,0.20681314,66.35871,66.34613,67.23071,67.23421,0,0,0,0,0,0,0,0,0,0,0,0,-0.0013498891,-0.0006697204,-0.003308063,0.0016279434,0.08440838,0.082608975,0.20601918,0.20681955,-0.0063896477,-0.0071790814,0.0119307935,0.011419952,53,3,190,2,4,-944.70807,320.37292,-3639.8298,21.263689,235957.34,445.307,98.24162,98.301315,105.908676,105.908676,23.193024,1,-28.165537,0,0,3.7165442,3.7165453,0,8,255,0,0,0,2,0,54,0
True,1898375,7999.995,1269.8213,5167.789,0.14434183,0.111244254,4.638463,0.0021915436,-0.14222115,21.714354,0.002199749,0.00039660712,-0.0013057403,-1.0547665,-0.008320584,-0.0013464999,0.4345204,0.43343413,0.5965205,0.5918474,0.088662416,0.08794475,0.20483258,0.20534825,67.755424,67.750145,68.61343,68.61386,0,0,0,0,0,0,0,0,0,0,0,0,-0.0012805627,-0.00034998026,-0.0033937206,0.0024408086,0.08867166,0.08794545,0.2048607,0.20536275,-0.00772658,-0.00785476,0.013212591,0.012682289,53,3,190,2,4,-946.4594,320.37634,-3638.836,21.714819,239196.56,442.245,98.27928,98.33899,105.93682,105.93682,23.195744,1,-26.565409,0,0,3.810222,3.810223,0,8,255,0,0,0,2,0,54,0
True,1898500,7999.995,1269.8213,5298.1953,0.31620395,-0.2928399,4.833164,0.0018091202,-0.14202654,22.258528,0.018806975,0.00013308294,-0.0022902004,-1.0547376,-0.006768729,-0.0015294969,0.41891736,0.41574872,0.58656037,0.587156,0.08639285,0.087875865,0.21690111,0.21434769,69.40568,69.41449,70.37547,70.35958,0,0,0,0,0,0,0,0,0,0,0,0,-0.0006608888,0.0001870823,-0.0027348057,0.0025175707,0.086395375,0.08787607,0.21691835,0.21436247,-0.009567738,-0.0099416375,0.0120823085,0.0121499,53,3,190,2,4,-948.6438,320.37933,-3637.5964,22.25898,243107.45,438.33304,98.32587,98.385254,105.97833,105.97833,23.196445,1,-24.569702,0,0,3.9244165,3.9244177,0,8,255,0,0,0,2,0,55,0
True,1898593,7999.995,1269.8213,5427.9385,-0.03206885,-0.29399702,4.1806197,0.0025596619,-0.1412174,22.803364,0.009997106,0.0001508093,-0.002520228,-1.0547278,-0.0050066365,-0.0018427252,0.41627455,0.41322765,0.5704587,0.570101,0.08405463,0.08302349,0.21364464,0.21472079,71.104706,71.09672,72.09184,72.097336,0,0,0,0,0,0,0,0,0,0,0,0,-0.0008191728,-0.00015552211,-0.0022174937,0.0015909072,0.08405862,0.08302363,0.21365614,0.21472667,-0.009879589,-0.010239124,0.010255069,0.010214478,53,3,190,2,4,-950.90204,320.378,-3636.3152,22.803802,246691.31,434.2387,98.37396,98.43324,106.02826,106.02826,23.196552,1,-22.506575,0,0,4.039621,4.039622,0,8,255,0,0,0,2,0,55,0
True,1898718,7999.995,1269.8213,5570.443,0.0138652325,0.09269046,4.6540513,0.0002603531,-0.13431312,23.407612,-0.010942914,0.00031044942,0.0034234098,-1.0546972,-0.0049807345,-0.0018122195,0.43298784,0.43927968,0.5687425,0.56638575,0.07853987,0.07668365,0.20453086,0.20600803,72.99059,72.97635,73.97668,73.98424,0,0,0,0,0,0,0,0,0,0,0,0,-0.001275773,-0.0008052325,-0.0025403204,0.0009948628,0.07855023,0.07668787,0.20454665,0.20601043,-0.00790742,-0.007164985,0.01006031,0.009792864,53,3,190,2,4,-953.50073,320.37436,-3634.8403,23.407995,250510.12,429.65768,98.42964,98.48914,106.09051,106.09051,23.196552,1,-20.132204,0,0,4.1688957,4.1688976,0,8,255,0,0,0,2,0,55,0
True,1898812,7999.995,1269.8213,5664.6084,0.1106472,0.3141683,4.653652,-0.0027236938,-0.13467924,23.810343,-0.020870082,0.00034943092,0.007990028,-1.0546653,-0.0065122475,-0.0013058318,0.44607812,0.45887923,0.5790582,0.5782414,0.07893663,0.07673137,0.1958967,0.19809328,74.26861,74.25156,75.206635,75.21876,0,0,0,0,0,0,0,0,0,0,0,0,-0.0012482384,-0.0006551579,-0.002796019,0.0016093842,0.0789465,0.07673417,0.19591665,0.19809982,-0.006362766,-0.0048522353,0.011230946,0.01113826,53,3,190,2,4,-955.2948,320.37442,-3633.8225,23.810724,252926.61,426.58063,98.46822,98.527985,106.135544,106.135544,23.196552,1,-18.493176,0,0,4.256241,4.2562428,0,8,255,0,0,0,2,0,55,0
True,1898937,7999.995,1269.8213,5798.3447,0.14979339,0.06457205,4.581388,-0.0065956116,-0.1472869,24.385235,0.007523919,0.00023487046,0.011351598,-1.0546232,-0.007715781,1.5771944E-05,0.431942,0.4487232,0.5951706,0.59740734,0.085569166,0.08454766,0.1961017,0.19711705,76.053154,76.04554,76.970146,76.975746,0,0,0,0,0,0,0,0,0,0,0,0,-0.0006782605,0.0002872865,-0.0028406582,0.0030740944,0.085571855,0.084548146,0.19612226,0.197141,-0.008030832,-0.0060506463,0.0130594075,0.013313234,53,3,190,2,4,-957.93646,320.37918,-3632.3242,24.38568,256215.55,422.17325,98.523346,98.58333,106.204025,106.204025,23.196552,1,-16.079931,0,0,4.3822346,4.382235,0,8,255,0,0,0,2,0,55,0
True,1899031,7999.995,1269.8213,5893.551,0.01968515,-0.2673247,4.5003996,-0.0068941116,-0.14771439,24.777328,0.019812372,-8.601208E-05,0.008512189,-1.0546159,-0.0063385493,0.0009110924,0.41710952,0.43078902,0.5844287,0.5896254,0.08356223,0.08485747,0.20742829,0.20696433,77.23626,77.24674,78.26233,78.259735,0,0,0,0,0,0,0,0,0,0,0,0,0.00027190338,0.00113458,-0.001893813,0.003345664,0.08356268,0.084865056,0.20743693,0.20699137,-0.009781063,-0.008166879,0.011840403,0.012430131,53,3,190,2,4,-959.7972,320.38153,-3631.269,24.77777,258473.66,418.99567,98.561584,98.62133,106.253845,106.253845,23.196552,1,-14.380216,0,0,4.4692345,4.469235,0,8,255,0,0,0,2,0,55,0
True,1899156,7999.995,1269.8213,6025.9917,0.07572949,-0.38933706,4.531098,-0.002412796,-0.14803134,25.335522,0.010856079,-0.00057799637,-0.0017462824,-1.0546575,-0.0042947633,0.0013392463,0.41985816,0.41708174,0.5617327,0.57008815,0.078560166,0.08194961,0.20710014,0.20371832,78.95538,78.98223,80.032455,80.014275,0,0,0,0,0,0,0,0,0,0,0,0,0.0011956927,0.0018598068,-0.000551694,0.0027990974,0.07856926,0.08197071,0.20710087,0.20373754,-0.009456724,-0.009784341,0.009264827,0.010213017,53,3,190,2,4,-962.5121,320.3793,-3629.729,25.335953,260966.22,413.73682,98.617905,98.67678,106.329544,106.329544,23.196552,1,-11.8999605,0,0,4.5937696,4.5937696,0,8,255,0,0,0,2,0,55,0
True,1899250,7999.995,1269.8213,6119.8384,0.20319033,-0.2123565,5.18224,0.002005577,-0.14760387,25.740862,0.0027924608,-0.0005078245,-0.006210445,-1.0547099,-0.0037142714,0.0009120919,0.43030536,0.42007384,0.56075233,0.56372625,0.077463105,0.07779095,0.19747615,0.19788183,80.22512,80.22904,81.2546,81.26027,0,0,0,0,0,0,0,0,0,0,0,0,0.00052579463,0.0011372197,-0.0010127357,0.001928839,0.07746489,0.07779926,0.19747874,0.19789124,-0.008223951,-0.009431273,0.009153575,0.009491056,53,3,190,2,4,-964.54944,320.37497,-3628.573,25.741285,260862.23,407.201,98.66016,98.71862,106.38689,106.38689,23.196552,1,-10.038595,0,0,4.6854706,4.685471,0,8,255,0,0,0,2,0,55,0
True,1899375,7999.995,1269.8213,6234.4707,-0.057828426,-0.035563067,4.308845,0.0018873215,-0.1425966,26.234787,-0.004547663,3.0720598E-06,-0.0002611318,-1.0547396,-0.0037809832,0.00047652025,0.43679875,0.437711,0.5707342,0.5648502,0.074645855,0.072711386,0.18977097,0.19134359,81.755775,81.7413,82.76585,82.7771,0,0,0,0,0,0,0,0,0,0,0,0,-0.00088989385,-0.00034182542,-0.0024463446,0.000971189,0.07465116,0.07271219,0.18978673,0.19134605,-0.007457733,-0.007350087,0.010286331,0.00961861,53,3,190,2,4,-967.1304,320.36926,-3627.1084,26.235176,260621.95,399.31018,98.71304,98.771805,106.45874,106.45874,23.196552,1,-7.6805687,0,0,4.7996306,4.7996306,0,8,255,0,0,0,2,0,55,0
True,1899484,7999.995,1269.8213,6346.768,-0.11352265,0.31169116,3.962658,-0.0015287399,-0.13782111,26.718163,-0.013810918,9.07701E-05,0.0020263782,-1.0547278,-0.0049557546,0.0007327146,0.45230556,0.45687366,0.57571816,0.5759611,0.071413666,0.072691776,0.1832048,0.18196325,83.25334,83.265076,84.25088,84.241165,0,0,0,0,0,0,0,0,0,0,0,0,-0.0002477669,0.0003421442,-0.00193866,0.0021155498,0.0714141,0.07269258,0.18321505,0.18197554,-0.00562793,-0.0050888956,0.01085192,0.010879487,53,3,190,2,4,-969.77155,320.36636,-3625.6099,26.718517,260012.94,391.37003,98.76732,98.82614,106.53134,106.53134,23.196552,1,-5.2675853,0,0,4.9142914,4.914291,0,8,255,0,0,0,2,0,55,0
True,1899593,7999.995,1269.8213,6450.923,-0.7572892,-0.029817127,4.504594,0.0019416809,-0.141411,27.170355,0.0051746564,-0.0003729921,-0.0075100055,-1.054746,-0.00553501,0.0003665099,0.45110562,0.44250715,0.5830376,0.58934414,0.072959274,0.07561703,0.18197459,0.17957275,84.63428,84.65536,85.62688,85.61368,0,0,0,0,0,0,0,0,0,0,0,0,0.00065255066,0.0014111587,-0.0016402818,0.003265937,0.07296219,0.075630195,0.18198198,0.17960244,-0.005769521,-0.006784141,0.01168254,0.012398213,53,3,190,2,4,-972.3416,320.3669,-3624.1519,27.170723,259326.69,384.02597,98.818924,98.87659,106.60092,106.60092,23.196552,1,-2.9196007,0,0,5.023929,5.023929,0,8,255,0,0,0,2,0,55,0
True,1899703,7999.995,1269.8213,6540.6816,-0.0033097267,0.055888478,4.7236304,0.004796982,-0.13357753,27.54226,-0.0028968723,-0.00015572712,-0.0070688445,-1.0547744,-0.005205361,-0.0003834309,0.45019868,0.44153327,0.5768351,0.57609165,0.06986165,0.068509266,0.18377316,0.18554878,85.78236,85.771545,86.82474,86.83761,0,0,0,0,0,0,0,0,0,0,0,0,-0.00036876948,0.00013768615,-0.0023494372,0.0018881077,0.06986263,0.06850941,0.18378818,0.1855584,-0.005876541,-0.006899059,0.010978669,0.010894299,53,3,190,2,4,-974.54346,320.36768,-3622.9023,27.542583,258583.42,377.67612,98.86262,98.9202,106.659805,106.659805,23.196552,1,-0.9078938,0,0,5.116453,5.1164527,0,8,255,0,0,0,2,0,55,0
True,1899796,7999.995,1269.8213,6627.045,-0.6401776,0.4064498,3.9914293,0.00207901,-0.13195866,27.92023,-0.01643823,0.000244534,0.0025590798,-1.054768,-0.0063014873,-0.00061643793,0.45976472,0.46487227,0.57613367,0.57063836,0.06880458,0.06632434,0.17264004,0.17422923,86.97849,86.95685,87.94788,87.957695,0,0,0,0,0,0,0,0,0,0,0,0,-0.001547531,-0.0010091125,-0.0030662387,0.00069005147,0.06882198,0.06633201,0.17266726,0.1742306,-0.0047477484,-0.004145056,0.010899067,0.010275453,53,3,190,2,4,-976.8496,320.37006,-3621.5938,27.920542,257727.44,371.4958,98.90868,98.96695,106.7215,106.7215,23.196552,1,1.199169,0,0,5.2120495,5.212049,0,8,255,0,0,0,2,0,56,0
True,1899921,7999.995,1269.8213,6734.4014,-0.17606997,0.011011924,3.9044702,-0.004122734,-0.14057669,28.388142,0.013029479,0.000332285,0.00824103,-1.0547224,-0.0068049314,0.00023458965,0.44278446,0.45460057,0.58524495,0.586661,0.07260064,0.07303854,0.17300385,0.17241718,88.40776,88.409645,89.36698,89.36062,0,0,0,0,0,0,0,0,0,0,0,0,-0.0008155826,7.5193248E-06,-0.002477392,0.0022915823,0.07260522,0.07303854,0.17302158,0.17243241,-0.006751418,-0.0053571165,0.011933029,0.012093723,53,3,190,2,4,-979.81433,320.37683,-3619.9119,28.388487,256570.7,363.91437,98.96533,99.024055,106.79898,106.79898,23.196552,1,3.9076867,0,0,5.3330884,5.3330874,0,8,255,0,0,0,2,0,56,0
True,1900031,7999.995,1269.8213,6727.903,-0.27865815,-0.3078881,2.6650615,-0.0036010742,-0.13413197,28.782038,0.021193324,-0.00015457423,0.002730487,-1.0547131,-0.0049139536,0.00087047025,0.43357125,0.43750012,0.56108296,0.56696665,0.0037745729,0.0038124332,0.012722749,0.01270518,88.9476,88.948555,89.00953,89.01017,0,0,0,0,0,0,0,0,0,0,0,0,0.0003898978,0.0010087613,-0.0007923735,0.0022062003,0.0037946568,0.0039436338,0.0127473995,0.012895307,-0.007838577,-0.007374972,0.009191096,0.009858787,53,3,190,2,4,-982.8408,320.3804,-3618.1953,28.782347,-45022.15,-63.8704,99.021,99.07908,106.87291,106.87291,12.886579,1,6.6724854,0,0,5.4546742,5.454674,0,8,255,0,0,0,2,0,56,0
True,1900125,7999.995,1269.8213,6655.647,0.3520809,-0.41983756,0.23373447,-0.0022287369,-0.08305663,28.722315,0.048448477,-0.00023382358,0.001524061,-1.0547265,-0.0019127167,0.0010252709,0.44599023,0.44882903,0.5362122,0.5387076,-0.0067165224,-0.0066793896,-0.022880131,-0.023201456,88.61881,88.62028,88.4698,88.46827,0,0,0,0,0,0,0,0,0,0,0,0,0.000268159,0.00074291625,0.00029481246,0.000477788,0.0067218733,0.006720578,0.022882031,0.023206376,-0.0063731372,-0.006038159,0.0063687265,0.006651908,53,3,190,2,4,-984.83704,320.37958,-3617.063,28.722433,-44524.547,-63.8704,99.03706,99.09505,106.866516,106.866516,-3.9731073,1,8.496128,0,0,5.5344853,5.534485,0,8,255,0,0,0,2,0,56,0
True,1900250,7999.995,1269.8213,6430.476,-0.06850819,-0.2674729,-0.48057815,-0.0011796951,0.03037497,28.657574,0.0255794,-0.00016867278,-0.0005387487,-1.0547477,0.0035674137,0.0011472509,0.48807845,0.48688433,0.4905481,0.4922911,8.75339E-05,9.095601E-05,0.00018160844,0.00018011543,88.52599,88.526886,88.527145,88.52796,0,0,0,0,0,0,0,0,0,0,0,0,0.00067870854,0.00037636558,0.00046238065,0.0003082883,0.00068432995,0.00038720027,0.00049676705,0.00035704795,-0.0014067292,-0.0015476346,0.0011866987,0.0013844967,53,3,190,2,4,-987.95935,320.37265,-3615.2917,28.65759,-43044.72,-63.8704,99.06371,99.1213,106.84927,106.84927,-9.986479,1,11.3486,0,0,5.6596355,5.659635,0,8,255,0,0,0,2,0,56,0
True,1900359,7999.995,1269.8213,6197.269,-0.09860693,0.47265092,-0.5522729,0.0012922287,0.08646488,28.61547,-0.018751586,-8.2220926E-05,-0.0055643083,-1.0547606,0.0036877943,0.0008001275,0.54647106,0.5379501,0.48047563,0.48121515,0.0001950414,0.00019936275,0.00034870396,0.0003469493,88.47825,88.47868,88.47981,88.48013,0,0,0,0,0,0,0,0,0,0,0,0,0.0011168717,0.00020145679,0.0006281738,0.00063050695,0.001133774,0.00028342608,0.0007184684,0.0007196616,0.0054835975,0.0044781268,4.3660402E-05,0.00012758374,53,3,190,2,4,-990.6392,320.36703,-3613.7715,28.6156,-41483.617,-63.8704,99.09092,99.147194,106.83247,106.83247,-10.825053,1,13.796888,0,0,5.7672296,5.7672286,0,8,255,0,0,0,3,0,56,0
True,1900468,7999.995,1269.8213,5238.0234,0.027482867,0.15145743,1.825915,0.0037870407,0.042560183,28.796024,-0.019290803,-4.2424632E-05,-0.006004284,-1.0547692,0.00057066465,-2.8715382E-05,0.53631777,0.52671665,0.52611214,0.5224615,0.06449242,0.064175606,0.15720695,0.15738755,89.6702,89.66778,90.57636,90.57829,0,0,0,0,0,0,0,0,0,0,0,0,-4.9487553E-05,-2.7331947E-05,0.00065410236,-0.00073890976,0.064492434,0.06417561,0.15720832,0.15738928,0.0042855144,0.003152579,0.005222559,0.004808277,53,3,190,2,4,-993.7753,320.3691,-3611.992,28.796057,44082.902,79.99228,99.1315,99.187,106.85164,106.85164,-0.7085619,1,16.662136,0,0,5.893016,5.893015,0,8,255,0,0,0,3,0,56,0
True,1900578,7999.995,1269.8213,4699.6816,-0.3353222,-0.24241252,1.8589435,0.002729416,-0.015001868,29.03754,0.0032912104,0.00016629863,-0.0015605277,-1.0547628,-0.00017456678,-0.00043339326,0.48790038,0.48379675,0.5395483,0.5344679,0.028834812,0.02837078,0.078323916,0.07877306,90.02661,90.02202,90.49856,90.50143,0,0,0,0,0,0,0,0,0,0,0,0,-0.0007219058,-0.00054554833,-0.00055237516,-0.00065362616,0.028843846,0.028376024,0.07832586,0.07877577,-0.0014277399,-0.001911968,0.0067473054,0.0061707795,53,3,190,2,4,-996.3494,320.36996,-3610.5312,29.037544,107671.85,218.80307,99.17021,99.225945,106.89566,106.89566,2.1359186,1,19.013948,0,0,5.995252,5.99525,0,8,255,0,0,0,3,0,56,0
True,1900703,7999.995,1269.8213,4689.821,0.061807394,0.0089980215,2.2116435,0.0009088516,-0.04086683,29.323992,-0.016821625,0.00012656198,-0.00069137197,-1.0547378,-0.0011660539,-0.00054135546,0.4859299,0.48420286,0.52894056,0.5284878,0.045512162,0.04560406,0.12222375,0.121823475,91.12239,91.121925,91.863365,91.86036,0,0,0,0,0,0,0,0,0,0,0,0,-0.0002634996,-0.00012893403,0.0002707565,-0.0004873403,0.045512926,0.045604244,0.12222405,0.12182445,-0.0016602576,-0.0018640459,0.00554353,0.005492151,53,3,190,2,4,-999.8471,320.3679,-3608.5466,29.32402,178245.84,363.04153,99.22128,99.27695,106.94014,106.94014,10.368224,1,22.209517,0,0,6.1331186,6.1331167,0,8,255,0,0,0,3,0,56,0
True,1900796,7999.995,1269.8213,4738.441,-0.40572852,0.037139725,2.8417184,2.861023E-05,-0.06929931,29.585522,-0.009183282,0.00017344217,0.0017874958,-1.0547236,-0.0025134187,-0.0004959843,0.47746956,0.47881016,0.5489156,0.54693574,0.05559122,0.054638043,0.13814816,0.13926584,92.01611,92.00716,92.83403,92.841705,0,0,0,0,0,0,0,0,0,0,0,0,-0.00060360524,-0.00021019725,-0.0007744135,0.00019270823,0.055594496,0.05463845,0.13815033,0.13926597,-0.0026585758,-0.002500385,0.0078103244,0.0075856447,53,3,190,2,4,-1002.26227,320.36795,-3607.1765,29.585602,207598.34,418.48297,99.2607,99.31654,106.985016,106.985016,18.318325,1,24.415964,0,0,6.227392,6.2273903,0,8,255,0,0,0,3,0,56,0
True,1900921,7999.995,1269.8213,4800.6133,0.15435147,0.15667322,3.0434093,-0.0023031235,-0.0851651,29.940268,-0.012090871,0.00022238588,0.00445992,-1.0546995,-0.0034295728,-4.9338094E-05,0.46732616,0.47747967,0.5545188,0.55507267,0.057538215,0.057624634,0.15233733,0.15272963,93.146454,93.14742,94.08573,94.0879,0,0,0,0,0,0,0,0,0,0,0,0,-0.0003786866,-2.7738928E-05,-0.0009549972,0.00089424156,0.05753946,0.05762464,0.15234032,0.15273224,-0.0038554966,-0.0026573837,0.008446187,0.00850904,53,3,190,2,4,-1005.172,320.36908,-3605.5256,29.94039,224216.22,446.1381,99.3117,99.36791,107.04828,107.04828,22.323677,1,27.074299,0,0,6.3397846,6.3397827,0,8,255,0,0,0,3,0,57,0
True,1901031,7999.995,1269.8213,4860.5127,0.44320214,-0.09650726,3.2334118,0.0011615753,-0.11777733,30.32222,0.010144418,-0.0003897854,-0.006324875,-1.054708,-0.0041028815,-0.00017378523,0.46444723,0.45481753,0.5608214,0.5703059,0.063455254,0.06643607,0.15281336,0.14975306,94.34511,94.3714,95.24983,95.22966,0,0,0,0,0,0,0,0,0,0,0,0,0.000598581,0.0013492886,-0.0005082321,0.0021906423,0.06345808,0.06644977,0.15281421,0.14976908,-0.0041952133,-0.0053315163,0.009161413,0.010237724,53,3,190,2,4,-1008.2229,320.37115,-3603.7947,30.322449,228908.38,449.85782,99.36598,99.4207,107.11798,107.11798,23.049557,1,29.861626,0,0,6.456185,6.4561825,0,9,255,0,0,0,3,0,57,0
True,1901140,7999.995,1269.8213,4915.4595,0.777725,-0.20651087,4.026591,0.004483223,-0.10983336,30.644627,0.0019894138,-8.129328E-05,-0.0052324575,-1.0547377,-0.0028835188,-0.0008954056,0.45269424,0.4460266,0.55917084,0.55423415,0.058474105,0.05639404,0.16156937,0.1639539,95.31951,95.30165,96.355415,96.37543,0,0,0,0,0,0,0,0,0,0,0,0,-0.0005432856,-0.00021332149,-0.0016414569,0.0006182696,0.05847663,0.056394443,0.16157772,0.16395506,-0.0055820644,-0.0063688457,0.008974105,0.008413881,53,3,190,2,4,-1010.8317,320.3701,-3602.3142,30.644823,231192.94,449.2157,99.41205,99.46681,107.17749,107.17749,23.163967,1,32.245205,0,0,6.5545707,6.5545683,0,9,255,0,0,0,3,0,57,0
True,1901234,7999.995,1269.8213,4974.313,0.1859616,0.48321465,3.330222,-0.0012359619,-0.11063399,31.03551,-0.027284158,0.0003420722,0.008560656,-1.0547147,-0.0050795563,-0.0005906714,0.48252106,0.49555427,0.56445944,0.56178784,0.057120673,0.05582293,0.14249158,0.14281303,96.57898,96.56543,97.46717,97.46802,0,0,0,0,0,0,0,0,0,0,0,0,-0.00146106,-0.0010490182,-0.0023082134,0.00013926958,0.057139356,0.05583279,0.14251028,0.14281309,-0.0020624995,-0.0005245805,0.009574264,0.009271085,53,3,190,2,4,-1014.04565,320.3708,-3600.4905,31.035706,233212.81,447.78256,99.47237,99.52858,107.25159,107.25159,23.191376,1,35.181553,0,0,6.6743736,6.6743717,0,9,255,0,0,0,3,0,57,0
True,1901343,7999.995,1269.8213,5023.644,-0.74175894,0.09666865,2.9072847,-0.004681587,-0.12012094,31.348661,0.012353265,0.00017731365,0.006834847,-1.0546838,-0.005896923,0.00024274249,0.4656868,0.47687328,0.58543557,0.591844,0.062986694,0.06433265,0.14898624,0.1477745,97.53087,97.541985,98.43681,98.42602,0,0,0,0,0,0,0,0,0,0,0,0,-0.0002803917,0.0005192924,-0.0019905604,0.0027412681,0.06298732,0.06433474,0.14899953,0.14779992,-0.0040489435,-0.002728939,0.011954665,0.012681901,53,3,190,2,4,-1016.6747,320.377,-3598.9993,31.348894,234809.77,446.41968,99.51878,99.57483,107.311295,107.311295,23.195415,1,37.583313,0,0,6.771261,6.7712593,0,9,255,0,0,0,3,0,57,0
True,1901468,7999.995,1269.8213,5085.3315,-0.0062789917,-0.35060573,3.0204823,-0.0028972626,-0.119775414,31.711227,0.012248808,-0.00017575361,0.001786699,-1.0546877,-0.0040891673,0.00065208325,0.44633523,0.44984332,0.55987465,0.56548053,0.061674755,0.06159896,0.16005597,0.1607552,98.648224,98.6475,99.67352,99.6806,0,0,0,0,0,0,0,0,0,0,0,0,0.00031233625,0.0009009005,-0.00075029396,0.0019797792,0.061675545,0.061605547,0.16005772,0.16076739,-0.0063324273,-0.005918473,0.009053975,0.009690136,53,3,190,2,4,-1019.76526,320.3812,-3597.246,31.711454,236723.14,444.63864,99.57277,99.62818,107.38019,107.38019,23.196384,1,40.406784,0,0,6.883938,6.883936,0,9,255,0,0,0,3,0,57,0
True,1901578,7999.995,1269.8213,5143.279,0.36156213,-0.5850102,3.4612713,-0.0021915436,-0.12825719,32.082115,0.018585626,-0.00015958158,0.002644368,-1.0547055,-0.0024727667,0.0009369199,0.4324423,0.43685758,0.5475899,0.5486535,0.062172327,0.06245437,0.15749194,0.15707947,99.791115,99.79513,100.80581,100.80182,0,0,0,0,0,0,0,0,0,0,0,0,-6.340927E-05,0.00051996025,-0.0005515065,0.0007946391,0.062172357,0.062456533,0.1574929,0.15708148,-0.007971793,-0.007450789,0.0076598823,0.0077805817,53,3,190,2,4,-1022.95087,320.379,-3595.439,32.08237,238507.2,442.92926,99.62784,99.68334,107.451675,107.451675,23.196552,1,43.31706,0,0,6.9987454,6.998744,0,9,255,0,0,0,3,0,57,0
True,1901687,7999.995,1269.8213,5193.59,-0.3493762,-0.15932068,3.038793,-0.001455307,-0.11859542,32.393223,-0.00578406,-0.00023378577,-0.000640257,-1.0547236,-0.0016030462,0.0010843463,0.4485487,0.44733387,0.5359501,0.5395635,0.05461499,0.05548753,0.15555404,0.1547036,100.73551,100.744736,101.805565,101.79915,0,0,0,0,0,0,0,0,0,0,0,0,0.0004797526,0.0006999158,0.00023427623,0.00076847646,0.0546171,0.055491943,0.15555422,0.15470551,-0.0060712397,-0.006214589,0.006338984,0.006749034,53,3,190,2,4,-1025.6721,320.3727,-3593.8953,32.393436,240053.39,441.44467,99.67719,99.73217,107.51176,107.51176,23.196552,1,45.8031,0,0,7.0957828,7.095781,0,9,255,0,0,0,3,0,57,0
True,1901781,7999.995,1269.8213,5241.753,-0.08852112,0.60610694,3.4838562,0.0011482239,-0.117142975,32.71608,-0.025322001,-0.00025989517,-0.0048599597,-1.0547519,-0.0037177484,0.000782177,0.49235559,0.48543817,0.5611885,0.560714,0.055403005,0.05599087,0.13895044,0.13868245,101.78305,101.790215,102.6988,102.69782,0,0,0,0,0,0,0,0,0,0,0,0,0.00035826725,0.00078317383,-0.00070545165,0.0014606412,0.055404164,0.055996347,0.13895223,0.13869014,-0.0009020269,-0.0017182827,0.009203076,0.009149224,53,3,190,2,4,-1028.5514,320.36926,-3592.2617,32.716286,241473.36,439.99695,99.73253,99.78677,107.57553,107.57553,23.196552,1,48.433586,0,0,7.1974525,7.197451,0,9,255,0,0,0,3,0,57,0
True,1901906,7999.995,1269.8213,5306.747,-0.041431308,-0.12383302,3.0793438,0.0026817322,-0.11958043,33.107143,0.01928492,-7.318928E-05,-0.0031987494,-1.0547767,-0.0035568217,0.00018427568,0.463095,0.4575379,0.5844295,0.5807736,0.061082855,0.06018474,0.15547241,0.15612684,102.96982,102.96175,104.004,104.01046,0,0,0,0,0,0,0,0,0,0,0,0,-0.00051430386,0.00013858486,-0.0024952693,0.0018672837,0.06108502,0.0601849,0.15549244,0.15613802,-0.004354775,-0.0050105155,0.0118404925,0.011425614,53,3,190,2,4,-1032.1144,320.37106,-3590.24,33.107357,243364.03,438.0204,99.794556,99.84862,107.653076,107.653076,23.196552,1,51.68886,0,0,7.3219075,7.321906,0,9,255,0,0,0,3,0,58,0
True,1902015,7999.995,1269.8213,5359.2085,0.0086346865,-0.05546447,3.2924397,-4.7683716E-05,-0.11253891,33.43564,-0.011890519,0.00020829074,0.004905438,-1.0547683,-0.0030684038,0.00023079722,0.46409464,0.47083956,0.5572881,0.55296755,0.055048443,0.053315517,0.14922513,0.15070488,103.99255,103.97502,105.0293,105.04152,0,0,0,0,0,0,0,0,0,0,0,0,-0.0009772016,-0.0007173034,-0.0018064469,0.00020720402,0.055057116,0.05332034,0.14923607,0.15070501,-0.0042368174,-0.0034409165,0.008760452,0.008270144,53,3,190,2,4,-1035.1442,320.36945,-3588.521,33.43583,244851.38,436.36807,99.84927,99.90413,107.71864,107.71864,23.196552,1,54.45688,0,0,7.4265914,7.4265904,0,9,255,0,0,0,3,0,58,0
True,1902140,7999.995,1269.8213,5427.001,0.6158024,0.12764041,3.3362637,-0.005996704,-0.12693135,33.88138,0.008272662,8.0815225E-05,0.007435715,-1.054738,-0.0050674956,0.0014784873,0.47038773,0.482639,0.58030325,0.5862613,0.06252985,0.064175114,0.14120533,0.14036717,105.413376,105.428986,106.315956,106.30754,0,0,0,0,0,0,0,0,0,0,0,0,-1.7568995E-05,0.0008103197,-0.0015130251,0.0026180118,0.062529854,0.06418023,0.14121343,0.14039157,-0.003494233,-0.0020485818,0.011372238,0.012048364,53,3,190,2,4,-1039.351,320.37366,-3586.135,33.881615,246739.6,434.22818,99.92566,99.981,107.80946,107.80946,23.196552,1,58.29971,0,0,7.5702605,7.57026,0,9,255,0,0,0,3,0,58,0
True,1902250,7999.995,1269.8213,5478.0757,0.036375046,-0.37292558,2.9335442,-0.003370285,-0.12038015,34.16754,0.013413736,-0.0004296559,-0.00383351,-1.0547528,-0.0034448735,0.001695406,0.45214695,0.44699368,0.56346416,0.5718543,0.057588343,0.060740486,0.16021754,0.15787919,106.24396,106.27721,107.386925,107.36858,0,0,0,0,0,0,0,0,0,0,0,0,0.0013854529,0.001920757,-7.67754E-05,0.0031380758,0.057605006,0.060770847,0.16021755,0.15791038,-0.005646646,-0.0062547326,0.0094613135,0.010413438,53,3,190,2,4,-1042.1107,320.37567,-3584.5698,34.16775,248098.95,432.59058,99.97365,100.02758,107.86682,107.86682,23.196552,1,60.820827,0,0,7.6634965,7.6634965,0,9,255,0,0,0,3,0,58,0
True,1902359,7999.995,1269.8213,5533.156,-0.38180256,-0.24208187,3.138659,0.004201889,-0.1283715,34.530796,0.006105662,-0.00047283992,-0.009804061,-1.0548214,-0.002702979,0.0006036988,0.44855323,0.43795496,0.5507027,0.54301745,0.059781224,0.058303572,0.14725648,0.14955783,107.40893,107.396614,108.41412,108.4374,0,0,0,0,0,0,0,0,0,0,0,0,0.00035680077,0.0008396918,-0.00046717288,0.00072241446,0.05978229,0.05830962,0.14725721,0.14955957,-0.0060707033,-0.007321298,0.008013129,0.007140994,53,3,190,2,4,-1045.6234,320.3731,-3582.5771,34.531033,249597.7,430.83286,100.03628,100.08895,107.94096,107.94096,23.196552,1,64.029915,0,0,7.781055,7.781055,0,9,255,0,0,0,3,0,58,0
True,1902468,7999.995,1269.8213,5591.296,0.019185185,0.06256877,2.9012275,0.0016746521,-0.12165538,34.89633,-0.012191571,8.750159E-05,0.0033528614,-1.0548396,-0.0027479245,0.00027669908,0.46149072,0.4673676,0.5473236,0.54369473,0.053996716,0.053091522,0.1451968,0.14517081,108.52227,108.5136,109.57166,109.56994,0,0,0,0,0,0,0,0,0,0,0,0,-0.0011257107,-0.00085278094,-0.0015932153,-0.0005271554,0.05400845,0.05309837,0.14520554,0.14517176,-0.0045440793,-0.003850609,0.0076296628,0.0072178543,53,3,190,2,4,-1049.2393,320.3686,-3580.5256,34.896545,251093.83,428.93213,100.10115,100.15509,108.01631,108.01631,23.196552,1,67.33338,0,0,7.9007993,7.9007993,0,9,255,0,0,0,3,0,58,0
True,1902593,7999.995,1269.8213,5640.9033,0.09292543,0.42249838,3.020674,-0.0015878677,-0.12687844,35.222527,-0.0075476132,5.312646E-05,0.0008979775,-1.0548282,-0.0044531524,0.0006542141,0.48139235,0.4845658,0.5714895,0.5757452,0.05839176,0.059738427,0.1368058,0.13594428,109.57687,109.59054,110.50266,110.49496,0,0,0,0,0,0,0,0,0,0,0,0,-7.962487E-05,0.0005731336,-0.0012697416,0.0019900745,0.058391817,0.059741177,0.13681169,0.13595884,-0.002195686,-0.0018212199,0.010372043,0.010854989,53,3,190,2,4,-1052.5332,320.36926,-3578.6572,35.22275,252363.14,427.31067,100.1622,100.21577,108.084915,108.084915,23.196552,1,70.34256,0,0,8.0088005,8.008799,0,9,255,0,0,0,3,0,58,0
True,1902687,7999.995,1269.8213,5689.888,-0.5539476,-0.3248762,3.079384,0.00052165985,-0.12564348,35.506363,0.022242635,-0.00019591834,-0.0052789096,-1.054834,-0.0032249896,0.00040179142,0.4566759,0.45284882,0.57304263,0.5764383,0.05832227,0.059737667,0.1544622,0.15344593,110.39773,110.41297,111.51835,111.50979,0,0,0,0,0,0,0,0,0,0,0,0,0.00044603826,0.0010550543,-0.0011474974,0.0025255089,0.058323976,0.059746984,0.15446647,0.1534667,-0.005112231,-0.0055638254,0.010548294,0.010933638,53,3,190,2,4,-1055.4462,320.3706,-3577.0051,35.506584,253624.95,425.72363,100.21143,100.26413,108.14397,108.14397,23.196552,1,73.0036,0,0,8.103483,8.103481,0,9,255,0,0,0,3,0,58,0
True,1902812,7999.995,1269.8213,5750.126,-0.16841471,0.4598653,2.9639053,0.004201889,-0.11620135,35.902363,-0.025647093,-0.00012215014,-0.0068225646,-1.0548599,-0.0037886358,-0.0004931468,0.4938237,0.485078,0.5562398,0.5532627,0.05169317,0.051635407,0.1367229,0.13664976,111.65232,111.65204,112.66128,112.66115,0,0,0,0,0,0,0,0,0,0,0,0,-0.00010951413,0.0001166592,-0.0009560735,0.0007068134,0.05169329,0.051635537,0.13672625,0.13665158,-0.000728786,-0.0017607808,0.008641481,0.008303642,53,3,190,2,4,-1059.555,320.36874,-3574.674,35.902554,255090.02,423.70773,100.28828,100.3403,108.22748,108.22748,23.196552,1,76.75743,0,0,8.23578,8.235778,0,9,255,0,0,0,3,0,59,0
True,1902921,7999.995,1269.8213,5793.033,0.22173369,0.3956139,2.8240263,0.0034265518,-0.12655963,36.182777,0.005077054,0.00017434629,-0.002158342,-1.0548567,-0.0052415007,-0.00089042116,0.4885457,0.48506436,0.5910745,0.5860966,0.061017968,0.06053966,0.13467531,0.13497263,112.5623,112.55687,113.46913,113.471,0,0,0,0,0,0,0,0,0,0,0,0,-0.0010066997,-0.00021927076,-0.002856687,0.0016587506,0.06102627,0.060540058,0.1347056,0.13498282,-0.0013515949,-0.0017623901,0.012594581,0.012029678,53,3,190,2,4,-1062.5343,320.37366,-3572.984,36.183002,256154.34,422.31113,100.341484,100.39393,108.28856,108.28856,23.196552,1,79.47924,0,0,8.330803,8.330801,0,9,255,0,0,0,3,0,59,0
True,1903015,7999.995,1269.8213,5843.217,0.45820487,-0.30099112,3.6529713,0.0024824142,-0.1213447,36.46174,0.01167506,0.00015389011,-0.003043184,-1.0548406,-0.0038387878,-0.0011139731,0.4625871,0.45858172,0.57186794,0.57085526,0.057426143,0.05778085,0.1530394,0.15255703,113.38053,113.38254,114.520386,114.516945,0,0,0,0,0,0,0,0,0,0,0,0,-0.00048035747,5.522735E-05,-0.0018710308,0.0015961222,0.05742815,0.057780877,0.15305082,0.15256537,-0.0044147074,-0.0048873425,0.010414988,0.01030007,53,3,190,2,4,-1065.5491,320.3777,-3571.2737,36.461945,257326,420.62274,100.39295,100.44494,108.34751,108.34751,23.196552,1,82.23345,0,0,8.426216,8.426214,0,9,255,0,0,0,3,0,59,0
True,1903125,7999.995,1269.8213,5894.5615,-0.12621963,-0.3509914,2.5845966,0.00035381317,-0.1323801,36.80095,0.0106276,0.0004371397,0.0067812568,-1.054812,-0.003069532,-0.0010706135,0.4499701,0.4541586,0.55505586,0.5509286,0.06107494,0.057718236,0.14254604,0.14508918,114.47589,114.43798,115.48052,115.50153,0,0,0,0,0,0,0,0,0,0,0,0,-0.0015321819,-0.0009331526,-0.0018322017,-0.0001685387,0.061094154,0.05772578,0.14255781,0.14508928,-0.0059035122,-0.0054092705,0.0085071325,0.008038759,53,3,190,2,4,-1069.217,320.37762,-3569.1929,36.80118,258532.73,418.91113,100.45606,100.509186,108.42058,108.42058,23.196552,1,85.584404,0,0,8.541327,8.541326,0,10,255,0,0,0,3,0,59,0
True,1903265,7999.995,1269.8213,5954.705,0.07534385,-0.07825913,2.849216,-0.006354332,-0.12822212,37.177868,-0.006745737,0.00029206602,0.009372348,-1.0547512,-0.0024780435,0.00033817114,0.45595077,0.46736556,0.5430253,0.5481101,0.053615544,0.054732885,0.14196199,0.14119537,115.60213,115.61262,116.680786,116.67295,0,0,0,0,0,0,0,0,0,0,0,0,-9.662663E-05,0.00026659569,-0.0001702293,0.00086645584,0.05361563,0.054733533,0.1419621,0.14119802,-0.0051977932,-0.0038508475,0.007141888,0.0077189207,53,3,190,2,4,-1073.376,320.37305,-3566.8342,37.17809,259919.22,416.90082,100.52942,100.583084,108.50173,108.50173,23.196552,1,89.383644,0,0,8.670572,8.67057,0,10,255,0,0,0,3,0,59,0
True,1903359,7999.995,1269.8213,5996.4067,0.06406152,-0.040701915,2.621213,-0.004295349,-0.13414079,37.45025,0.0077885375,-0.00017610849,0.00087087415,-1.0547475,-0.0026632128,0.0007420069,0.46023196,0.4625333,0.5593135,0.5647176,0.057398528,0.058043733,0.13838555,0.1384549,116.45795,116.465034,117.473404,117.476395,0,0,0,0,0,0,0,0,0,0,0,0,0.00070461264,0.0012871532,-0.00016706294,0.002204461,0.057402853,0.058058005,0.13838565,0.13847245,-0.004692614,-0.0044210553,0.008990288,0.00960356,53,3,190,2,4,-1076.4242,320.3701,-3565.1055,37.450493,260861.77,415.51184,100.58324,100.6358,108.561386,108.561386,23.196552,1,92.168236,0,0,8.764477,8.764475,0,10,255,0,0,0,3,0,59,0
True,1903484,7999.995,1269.8213,6050.133,-0.29740888,0.08988934,2.726795,-0.0005245209,-0.12692094,37.784145,-0.010473404,-0.00030503163,-0.0030673074,-1.0547763,-0.0026934515,0.0006332206,0.47598073,0.47213495,0.5541115,0.55566883,0.05324678,0.054288685,0.13724631,0.13638473,117.48678,117.49955,118.535995,118.528984,0,0,0,0,0,0,0,0,0,0,0,0,0.00045237935,0.00087228784,-0.0003954744,0.0013840667,0.053248703,0.054295693,0.13724688,0.13639174,-0.0028342605,-0.0032880604,0.008399963,0.008576691,53,3,190,2,4,-1080.237,320.36597,-3562.9426,37.78436,260985.33,411.98398,100.65199,100.7039,108.63428,108.63428,23.196552,1,95.651505,0,0,8.880995,8.880992,0,10,255,0,0,0,3,0,59,0
True,1903609,7999.995,1269.8213,6107.422,-0.6641949,0.19958135,2.5733347,0.0026950836,-0.116698,38.140533,-0.009064,-0.00016208008,-0.0029738983,-1.0548124,-0.003116114,3.086333E-05,0.4786056,0.47435573,0.56782097,0.5645369,0.05065982,0.049533486,0.1392968,0.14002615,118.562,118.550446,119.671906,119.6803,0,0,0,0,0,0,0,0,0,0,0,0,-0.00028398316,-5.9056412E-05,-0.0017775806,0.0011254376,0.050660618,0.049533524,0.13930814,0.14003068,-0.002524525,-0.0030260086,0.009955734,0.009583056,53,3,190,2,4,-1084.4077,320.36438,-3560.5767,38.140713,260917.28,408.01248,100.72632,100.777824,108.71354,108.71354,23.196552,1,99.461685,0,0,9.007287,9.007284,0,10,255,0,0,0,3,0,60,0
True,1903703,7999.995,1269.8213,6146.31,0.12880504,0.7266632,2.706099,-0.00093078613,-0.116432294,38.410923,-0.023157474,0.00015488955,0.008008292,-1.054811,-0.005339556,0.00032024545,0.5055439,0.5158598,0.580158,0.5778257,0.05317162,0.051949408,0.12406653,0.12427133,119.46176,119.449585,120.37596,120.37632,0,0,0,0,0,0,0,0,0,0,0,0,-0.0012317023,-0.00071429764,-0.0026846528,0.00078088854,0.053185884,0.051954318,0.124095574,0.124273784,0.0006541908,0.0018714666,0.011355758,0.011091083,53,3,190,2,4,-1087.6484,320.36874,-3558.738,38.411095,260803.64,405.2724,100.787224,100.84013,108.7755,108.7755,23.196552,1,102.4224,0,0,9.104619,9.104618,0,10,255,0,0,0,3,0,60,0
True,1903812,7999.995,1269.8213,6201.3223,0.4012134,-0.27511907,2.5607755,-0.0025577545,-0.12036404,38.719086,0.023441885,-0.00014270723,-0.0016917381,-1.0548011,-0.004448561,0.00080306013,0.46936333,0.47104365,0.5822671,0.58969766,0.05712294,0.059204884,0.14760162,0.1464804,120.36991,120.392105,121.51914,121.511314,0,0,0,0,0,0,0,0,0,0,0,0,0.00054615864,0.0012430775,-0.0013890915,0.0032969788,0.05712555,0.059217934,0.14760815,0.1465175,-0.003615111,-0.0034168363,0.0115951,0.012438327,53,3,190,2,4,-1091.4447,320.3784,-3556.585,38.71927,260655.11,401.46527,100.850204,100.90169,108.84538,108.84538,23.196552,1,105.89055,0,0,9.217777,9.217775,0,10,255,0,0,0,3,0,60,0
True,1903921,7999.995,1269.8213,6250.775,0.31349325,-0.7239239,2.955536,-0.00058174133,-0.13368881,39.040363,0.017436098,-3.535194E-05,0.0027370444,-1.0548174,-0.002550546,0.000660107,0.44654992,0.4487846,0.54835016,0.5469625,0.06010161,0.058363564,0.13996243,0.14122179,121.414,121.39575,122.4519,122.46188,0,0,0,0,0,0,0,0,0,0,0,0,-0.00054343365,6.964058E-05,-0.0008762996,0.00033009838,0.060104065,0.058363605,0.13996518,0.14122218,-0.0063070953,-0.0060434043,0.00774616,0.0075886846,53,3,190,2,4,-1095.4076,320.3792,-3554.3372,39.04059,260471.83,397.98895,100.91579,100.96779,108.917404,108.917404,23.196552,1,109.5108,0,0,9.334947,9.334946,0,10,255,0,0,0,3,0,60,0
True,1904031,7999.995,1269.8213,6300.9175,0.026467562,-0.10532494,3.1703308,-0.0026569366,-0.12387183,39.358307,-0.008926705,-3.0158404E-05,0.004396365,-1.0548185,-0.0012837758,0.0011490086,0.45617178,0.46020216,0.53173906,0.5336118,0.049284194,0.04883164,0.1373262,0.13804851,122.32867,122.32277,123.45772,123.46621,0,0,0,0,0,0,0,0,0,0,0,0,-6.5329E-05,9.66885E-05,5.7601184E-05,2.9065939E-05,0.049284235,0.04883174,0.13732621,0.13804851,-0.005171716,-0.0046961308,0.0058611035,0.006073624,53,3,190,2,4,-1099.4081,320.37143,-3552.068,39.3585,260250.17,394.48087,100.98468,101.03659,108.988525,108.988525,23.196552,1,113.1654,0,0,9.452263,9.452263,0,10,255,0,0,0,3,0,60,0
True,1904156,7999.995,1269.8213,6344.2974,0.6518761,0.40496713,2.3812714,-0.0049858093,-0.12847078,39.66315,-0.0006462538,-4.16443E-05,0.0067662727,-1.0548218,-0.0028737795,0.0018976191,0.4796378,0.48967868,0.5708298,0.57384676,0.05373613,0.05470501,0.124082044,0.12351814,123.30946,123.32234,124.251625,124.24538,0,0,0,0,0,0,0,0,0,0,0,0,-9.003684E-05,0.0005031741,-0.0012943172,0.0017265893,0.05373621,0.054707322,0.124088794,0.12353021,-0.0024027228,-0.0012179017,0.010297179,0.010639548,53,3,190,2,4,-1103.3342,320.36703,-3549.8416,39.66336,260018.56,391.43942,101.054886,101.10735,109.06016,109.06016,23.196552,1,116.751976,0,0,9.566487,9.566488,0,10,255,0,0,0,3,0,60,0
True,1904265,7999.995,1269.8213,6394.2007,-0.1526261,0.092332125,2.377011,-0.0012111664,-0.11593242,39.95823,-0.008682751,-0.00047564,-0.009776001,-1.054853,-0.0027008622,0.0018241944,0.487541,0.4763386,0.5608141,0.5671728,0.048594866,0.050995626,0.13135052,0.13034374,124.182556,124.212166,125.26828,125.25923,0,0,0,0,0,0,0,0,0,0,0,0,0.0015448754,0.0019163508,0.000314923,0.0028966907,0.04861942,0.05103162,0.13135089,0.13037592,-0.0014701486,-0.0027920306,0.009160578,0.009882182,53,3,190,2,4,-1107.2454,320.3654,-3547.6238,39.958397,259737.53,387.93167,101.12403,101.17392,109.127716,109.127716,23.196552,1,120.324684,0,0,9.679418,9.679419,0,10,255,0,0,0,3,0,60,0
True,1904390,7999.995,1269.8213,6446.6963,0.6114069,0.075044736,2.6183388,0.0068302155,-0.11450568,40.294666,0.0015571716,-0.0003041838,-0.010854223,-1.0549185,-0.0032415374,0.00011728599,0.4870697,0.471546,0.57543874,0.5652657,0.050944757,0.050265163,0.1297235,0.12996244,125.2326,125.2272,126.28548,126.28781,0,0,0,0,0,0,0,0,0,0,0,0,-0.00020979239,0.00022059513,-0.0019338739,0.0011655915,0.05094519,0.050265647,0.12973791,0.12996767,-0.0015257597,-0.0033575594,0.01082021,0.009665757,53,3,190,2,4,-1111.7894,320.3666,-3545.046,40.294827,259347.56,384.2231,101.20313,101.252205,109.20709,109.20709,23.196552,1,124.47608,0,0,9.8096,9.809601,0,10,255,0,0,0,3,0,61,0
True,1904484,7999.995,1269.8213,6482.677,-0.18262237,0.21318418,2.5247402,0.0061473846,-0.113420784,40.526,-0.009746952,5.2355022E-05,-0.0055964533,-1.0549288,-0.0037291811,-0.000600949,0.49027017,0.48283803,0.56714344,0.5593053,0.04970518,0.049366407,0.12564231,0.12543404,125.96337,125.95828,126.978905,126.976616,0,0,0,0,0,0,0,0,0,0,0,0,-0.00084351207,-0.00044909117,-0.0020023042,0.00039852646,0.049712338,0.04936845,0.12565826,0.12543467,-0.0011481047,-0.0020250976,0.009878844,0.008989364,53,3,190,2,4,-1114.9816,320.36884,-3543.235,40.526157,259069.17,381.67703,101.25932,101.30864,109.26153,109.26153,23.196552,1,127.39228,0,0,9.900409,9.90041,0,10,255,0,0,0,3,0,61,0
True,1904609,7999.995,1269.8213,6531.33,-0.5629264,-0.5091733,2.0799956,0.001619339,-0.12213969,40.815037,0.023373498,0.0005168167,0.006755397,-1.0548981,-0.002755064,-0.0006483624,0.45857918,0.46129927,0.5681784,0.5627115,0.055630095,0.052294016,0.13571325,0.13814826,126.86562,126.824425,127.945175,127.9687,0,0,0,0,0,0,0,0,0,0,0,0,-0.0017112229,-0.0011372581,-0.002578252,0.00014694012,0.05565641,0.05230638,0.13573775,0.13814835,-0.0048876405,-0.0045666695,0.009996295,0.0093759,53,3,190,2,4,-1119.0461,320.37177,-3540.9294,40.815216,258688.23,378.26358,101.324036,101.3748,109.33031,109.33031,23.196556,1,131.10551,0,0,10.015297,10.015297,0,10,255,0,0,0,3,0,61,0
True,1904718,7999.995,1269.8213,6569.5654,-0.040326,-0.009344764,2.6838377,-0.0055217743,-0.11516379,41.06997,-0.014318712,0.00045903985,0.012262572,-1.0548422,-0.0023201841,0.0004796745,0.4698667,0.484583,0.540287,0.54270333,0.046488542,0.046648487,0.12619273,0.12604995,127.62137,127.62087,128.69388,128.6895,0,0,0,0,0,0,0,0,0,0,0,0,-0.0006106914,-0.0004295689,-0.0005480646,3.6348356E-05,0.046492554,0.046650466,0.12619393,0.12604997,-0.003555715,-0.0018191934,0.0068311393,0.0071053505,53,3,190,2,4,-1122.6647,320.36893,-3538.8774,41.07013,258332.77,375.54895,101.386566,101.43837,109.38995,109.38995,23.196556,1,134.41103,0,0,10.11689,10.116889,0,10,255,0,0,0,3,0,61,0
True,1904828,7999.995,1269.8213,6613.826,-0.06475806,0.4939949,2.375064,-0.003736496,-0.109107874,41.36714,-0.007520809,-0.00026500004,-0.0065686833,-1.0548276,-0.00402104,0.0010177813,0.5005126,0.49562827,0.573976,0.5820084,0.046443634,0.049269438,0.1201783,0.11869917,128.52829,128.56277,129.53804,129.52396,0,0,0,0,0,0,0,0,0,0,0,0,0.0015521034,0.00197596,-1.2000657E-05,0.0035816263,0.04646956,0.04930904,0.1201783,0.118753195,6.0498714E-05,-0.0005158484,0.010654211,0.011565745,53,3,190,2,4,-1127.0045,320.3716,-3536.4165,41.367287,257887.47,372.38748,101.46492,101.51422,109.462906,109.462906,23.196556,1,138.37541,0,0,10.237915,10.237914,0,10,255,0,0,0,3,0,61,0
True,1904937,7999.995,1269.8213,6662.811,0.01966381,-0.4101733,2.2016015,0.005083084,-0.12533067,41.652122,0.034121457,-0.0004083664,-0.0074517634,-1.0548832,-0.0031288562,-0.00034717855,0.47315127,0.46132758,0.5758621,0.5694395,0.06314245,0.059230477,0.1292988,0.13140228,129.53752,129.49107,130.47198,130.49443,0,0,0,0,0,0,0,0,0,0,0,0,-0.00040693465,0.0004532935,-0.0019424033,0.0013115425,0.06314376,0.059232213,0.1293134,0.13140883,-0.0031681359,-0.0045633316,0.010868251,0.010139406,53,3,190,2,4,-1131.2728,320.37766,-3533.9954,41.652306,257324.83,368.8781,101.53323,101.581726,109.53257,109.53257,23.196556,1,142.27475,0,0,10.356123,10.356121,0,10,255,0,0,0,3,0,61,0
True,1905046,7999.995,1269.8213,6709.228,0.030842423,-0.8233623,2.3962793,0.0010280609,-0.112715065,41.919353,-0.0045285546,0.00013319383,0.008918639,-1.0548906,-6.46251E-05,-0.00013778184,0.4452727,0.4537136,0.5280311,0.5222651,0.045390584,0.044222407,0.13887613,0.13898955,130.22353,130.20935,131.47778,131.4782,0,0,0,0,0,0,0,0,0,0,0,0,-0.001397414,-0.0013657557,-0.0012352642,-0.00156833,0.04541209,0.04424349,0.13888162,0.1389984,-0.0064578056,-0.005461782,0.0054403245,0.0047859848,53,3,190,2,4,-1135.2932,320.36966,-3531.7148,41.919506,256773.4,365.49872,101.59602,101.646484,109.594376,109.594376,23.196556,1,145.94757,0,0,10.466735,10.466734,0,10,255,0,0,0,3,0,62,0
True,1905171,7999.995,1269.8213,6739.5366,-0.894606,1.2722344,2.6093805,-0.004211426,-0.10751035,42.187183,-0.03240814,3.867931E-05,0.0030966029,-1.0548778,-0.0038267183,0.00085574196,0.53403765,0.5402575,0.5774709,0.58559185,0.04411714,0.046648942,0.103758134,0.10269386,131.09505,131.12679,131.9464,131.93503,0,0,0,0,0,0,0,0,0,0,0,0,0.00024704685,0.00066718593,-0.0009942825,0.0022171766,0.044117834,0.04665371,0.103762895,0.102717794,0.004016459,0.004750401,0.01105082,0.011972398,53,3,190,2,4,-1139.4015,320.3657,-3529.3853,42.18732,256397.12,363.334,101.6759,101.726074,109.66339,109.66339,23.196556,1,149.70041,0,0,10.579026,10.579025,0,10,255,0,0,0,3,0,62,0
True,1905281,7999.995,1269.8213,6788.506,0.01223141,0.03342685,2.0813406,0.002046585,-0.10018186,42.44905,0.01234922,-0.0004103905,-0.008616854,-1.0549091,-0.0037668105,0.00015184052,0.5038848,0.4963915,0.5966171,0.59881735,0.050688118,0.04967204,0.12669747,0.1279928,131.90157,131.88892,132.96217,132.98087,0,0,0,0,0,0,0,0,0,0,0,0,0.0005301225,0.0011136021,-0.0020694176,0.0034414732,0.05069089,0.04968452,0.12671436,0.12803906,0.00045841932,-0.00042578578,0.013223559,0.0134732425,53,3,190,2,4,-1143.6008,320.37424,-3527.0037,42.449165,255758.95,359.8288,101.74495,101.792725,109.73001,109.73001,23.196556,1,153.5365,0,0,10.693096,10.693093,0,10,255,0,0,0,3,0,62,0
True,1905375,7999.995,1269.8213,6815.2544,0.17489141,-0.5060832,2.3542473,0.0018882751,-0.10561104,42.662457,0.0063537494,4.1561518E-05,0.0037790928,-1.0549254,-0.0030062445,-3.731041E-05,0.47947642,0.4823516,0.5685287,0.56451225,0.050021857,0.049081683,0.1239114,0.12393676,132.18024,132.1709,132.9363,132.93509,0,0,0,0,0,0,0,0,0,0,0,0,-0.0011507566,-0.0006779774,-0.0023551886,0.00036007416,0.050035093,0.049086366,0.123933785,0.12393728,-0.0024217665,-0.0020824969,0.010036051,0.009580255,53,3,190,2,4,-1147.0106,320.37784,-3525.0698,42.662582,-46898.305,-65.660484,101.79944,101.84917,109.78266,109.78266,21.958248,1,156.65143,0,0,10.785206,10.785203,0,10,255,0,0,0,3,0,62,0
True,1905484,7999.995,1269.8213,6673.796,-0.15138316,-0.42910782,-0.39733326,0.0016384125,-0.031306565,42.571915,0.032802448,8.84E-05,-0.00914436,-1.054913,-0.00024437005,-0.00021772645,0.48836157,0.47630653,0.53224826,0.5336273,-0.00376325,-0.0038321875,-0.014034024,-0.01419205,131.46513,131.464,131.32791,131.32486,0,0,0,0,0,0,0,0,0,0,0,0,0.0006814973,0.00088367186,0.0011794455,0.0006795411,0.0038244594,0.0039327517,0.014083498,0.01420831,-0.0013733208,-0.0027958155,0.0059188902,0.006075382,53,3,190,2,4,-1151.3632,320.37805,-3522.6013,42.571926,-44653.402,-63.8704,101.85268,101.89981,109.796616,109.796616,-5.554393,1,160.62753,0,0,10.902587,10.902584,0,10,255,0,0,0,3,0,62,0
True,1905609,7999.995,1269.8213,6440.5806,0.84301245,-0.13242936,-0.26627076,0.00084495544,0.06575799,42.486626,0.0105745215,2.1117146E-05,0.013665833,-1.0549098,0.002465558,-0.0003985046,0.504892,0.52053314,0.50416094,0.49654445,0.0004899451,0.0004598999,0.0008291323,0.0008371336,131.30203,131.30162,131.30669,131.3068,0,0,0,0,0,0,0,0,0,0,0,0,-0.0017857329,-0.0020468356,-0.0016469632,-0.0022129668,0.0018517257,0.0020978665,0.0018438948,0.0023660124,0.000577271,0.0024229288,0.002731502,0.0018671751,53,3,190,2,4,-1155.7611,320.3737,-3520.1067,42.486675,-43099.33,-63.8704,101.903366,101.95389,109.79611,109.79611,-10.137777,1,164.64525,0,0,11.021486,11.021483,0,10,255,0,0,0,3,0,62,0
True,1905718,7999.995,1269.8213,6177.4307,0.1629344,-0.020385034,-0.54356444,-0.008647919,0.10479923,42.4146,0.004436976,0.00013095654,0.013699638,-1.0548991,0.0034128244,0.0017054739,0.5117885,0.53040254,0.49195284,0.50455225,0.0044489903,0.004589636,0.01273102,0.012571327,131.16292,131.1645,131.29918,131.2968,0,0,0,0,0,0,0,0,0,0,0,0,0.00025236956,-0.00019577358,0.00022195668,-0.00035340042,0.0044561424,0.0045938096,0.012732955,0.012576294,0.0013910532,0.0035875142,0.0013461113,0.0027759075,53,3,190,2,4,-1159.9996,320.36945,-3517.7036,42.414726,-31837.908,-49.1424,101.95346,102.0047,109.795425,109.795425,-10.3376665,1,168.5169,0,0,11.136269,11.136266,0,10,255,0,0,0,4,0,63,0
True,1905828,7999.995,1269.8213,5395.4424,0.01229924,0.19476189,0.7798135,-0.0048236847,0.0673344,42.50441,-0.02257367,-0.00017005118,-0.007935844,-1.0548995,0.0019384762,0.0018922555,0.5346231,0.52786225,0.5072278,0.51315033,0.022936529,0.023733037,0.06181095,0.061699938,131.72716,131.73662,132.2424,132.24202,0,0,0,0,0,0,0,0,0,0,0,0,0.002247682,0.001991563,0.0024804592,0.0015877425,0.023046397,0.023816451,0.061860703,0.061720364,0.004085541,0.0032877624,0.0030795336,0.0037516356,53,3,190,2,4,-1164.0253,320.36633,-3515.4216,42.50446,50479.793,89.18068,102.01367,102.06151,109.82125,109.82125,-0.5500536,1,172.19395,0,0,11.245293,11.24529,0,10,255,0,0,0,4,0,63,0
True,1905921,7999.995,1269.8213,5350.7007,0.0973292,0.19990642,0.5784792,0.0017108917,0.03542676,42.546673,-0.011772943,-0.00038791262,-0.010121358,-1.0549321,0.00081799,0.0010240448,0.52477545,0.5129154,0.53012264,0.526323,0.018578403,0.018769933,0.05450494,0.05443152,131.79747,131.80177,132.30199,132.3024,0,0,0,0,0,0,0,0,0,0,0,0,0.0011618704,0.00088433013,0.0013492617,0.00026491712,0.018614698,0.018790754,0.054521635,0.054432165,0.0029235184,0.0015240312,0.0056776702,0.0052464902,53,3,190,2,4,-1167.4546,320.36548,-3513.477,42.546684,116056.6,207.16357,102.060104,102.10687,109.84381,109.84381,2.2740068,1,175.32654,0,0,11.337995,11.337992,0,10,255,0,0,0,4,0,63,0
True,1906046,7999.995,1269.8213,5310.044,0.47156948,0.40297568,1.6246111,0.0052700043,-0.0031824056,42.6819,-0.014399836,-8.5773834E-05,-0.0039268564,-1.0549679,-0.0017531737,-9.866438E-05,0.5373975,0.5269442,0.5562243,0.54782444,0.03779238,0.03586015,0.08548868,0.08666647,132.49123,132.46791,133.17752,133.1914,0,0,0,0,0,0,0,0,0,0,0,0,-0.0006801733,-0.00052075327,-0.0011334367,-0.0004438063,0.0377985,0.035863932,0.085496195,0.08666761,0.0044129193,0.003179431,0.008639723,0.007686496,53,3,190,2,4,-1171.9055,320.37024,-3510.9524,42.6819,191614.69,344.61948,102.1284,102.175064,109.88528,109.88528,9.80688,1,179.3927,0,0,11.458097,11.458096,0,10,255,0,0,0,4,0,63,0
True,1906171,7999.995,1269.8213,5348.8965,-0.9322906,-0.59983724,1.6371955,-0.003818512,-0.046284158,42.898903,0.009967592,0.0005539986,0.016455255,-1.0549299,-0.0011538075,0.000949884,0.47829697,0.49251622,0.54882526,0.5442481,0.046609636,0.046302117,0.11835114,0.117924824,133.24576,133.23979,134.25107,134.24348,0,0,0,0,0,0,0,0,0,0,0,0,-0.0016229486,-0.0012921231,-0.0016588193,-0.00090271054,0.046637885,0.046320144,0.11836276,0.117928274,-0.0025609434,-0.0008830726,0.0078000724,0.0072806478,53,3,190,2,4,-1176.4088,320.3758,-3508.3987,42.898926,231953.1,414.13632,102.191536,102.24164,109.94179,109.94179,20.017551,1,183.50641,0,0,11.57909,11.57909,0,10,255,0,0,0,4,0,63,0
True,1906265,7999.995,1269.8213,5380.8174,-0.042410612,-0.26579115,1.9258044,-0.007843018,-0.07040365,43.14154,-0.013624912,0.00010846698,0.006013815,-1.0548911,-0.00075626216,0.0022348661,0.47368518,0.48124385,0.52504617,0.53248644,0.041199185,0.04144621,0.11900582,0.12018155,133.97705,133.97943,135.06914,135.07895,0,0,0,0,0,0,0,0,0,0,0,0,0.0008846778,0.0008199536,0.0012745032,0.0008228051,0.041208684,0.04145432,0.11901265,0.12018437,-0.0031051338,-0.0022132099,0.0051015913,0.005945921,53,3,190,2,4,-1180.6847,320.37228,-3505.9746,43.141594,243253.6,431.75363,102.25977,102.30846,110.00101,110.00101,22.643417,1,187.4121,0,0,11.693337,11.693338,0,10,255,0,0,0,4,0,64,0
True,1906390,7999.995,1269.8213,5406.107,0.06565589,0.4906394,2.0308132,-0.0029125214,-0.10990782,43.380173,0.0011318321,-0.0005813608,-0.01198981,-1.0549171,-0.0034124793,0.0021893252,0.5133609,0.50606215,0.57560813,0.58107823,0.050485615,0.055687767,0.10484131,0.10264461,134.81343,134.88174,135.61665,135.59566,0,0,0,0,0,0,0,0,0,0,0,0,0.0019199084,0.002784076,0.00049622846,0.003556181,0.050522108,0.055757318,0.104842484,0.102706194,0.0015766025,0.00071534514,0.0108394325,0.011460185,53,3,190,2,4,-1184.8512,320.37347,-3503.6125,43.380318,245748.12,434.14926,102.33264,102.378525,110.06436,110.06436,23.09497,1,191.21786,0,0,11.804043,11.804045,0,10,255,0,0,0,4,0,64,0
True,1906484,7999.995,1269.8213,5439.498,0.027756035,-0.7036226,2.072204,0.006345749,-0.10136266,43.57732,0.017284343,-0.00071741577,-0.017303603,-1.0549887,-0.0011088139,0.0005934934,0.4731659,0.45392624,0.56564546,0.5614987,0.046459857,0.045548216,0.13522723,0.13676001,135.33807,135.32901,136.58357,136.6013,0,0,0,0,0,0,0,0,0,0,0,0,0.0008963045,0.0011934,-0.00074662094,0.002051771,0.046468504,0.045563847,0.13522929,0.1367754,-0.0031664073,-0.0054366887,0.009708852,0.009238273,53,3,190,2,4,-1188.3307,320.37283,-3501.6392,43.577435,246969.17,433.62555,102.38314,102.42767,110.11298,110.11298,23.171734,1,194.39642,0,0,11.896039,11.896042,0,10,255,0,0,0,4,0,64,0
True,1906625,7999.995,1269.8213,5466.311,-0.09525502,0.5262497,2.0489535,0.00011062622,-0.10739516,43.866344,-0.010381095,0.00037521904,0.018200453,-1.0550143,-0.0029325762,0.0005774502,0.50214237,0.5211656,0.57356495,0.56928533,0.048438624,0.04575719,0.102944784,0.10348119,136.31906,136.2863,137.13486,137.13773,0,0,0,0,0,0,0,0,0,0,0,0,-0.002727447,-0.0021464035,-0.0035996833,-0.0010902323,0.04851535,0.045807503,0.1030077,0.10348693,0.0002528131,0.0024975538,0.01060757,0.010121912,53,3,190,2,4,-1193.3903,320.3692,-3498.7695,43.866478,247785.47,432.92178,102.46864,102.51805,110.18866,110.18866,23.193344,1,199.01872,0,0,12.029063,12.029066,0,10,255,0,0,0,4,0,64,0
True,1906750,7999.995,1269.8213,5506.6235,-0.07855749,-0.20199217,1.7948428,-0.0075473785,-0.098582245,44.153267,-0.00075654837,-6.485507E-05,0.00031730058,-1.0549661,-0.0018080107,0.0023287176,0.4795234,0.48410487,0.55268496,0.5666124,0.042995244,0.045374256,0.120336525,0.119566515,137.11885,137.14917,138.2245,138.2198,0,0,0,0,0,0,0,0,0,0,0,0,0.0013735747,0.001640442,0.0007075971,0.002866562,0.04301718,0.0454039,0.12033861,0.11960087,-0.0024162233,-0.0018756092,0.008238077,0.009818584,53,3,190,2,4,-1198.547,320.36954,-3495.8467,44.153378,248885.89,431.6503,102.54973,102.59674,110.26175,110.26175,23.196182,1,203.72879,0,0,12.163743,12.163746,0,10,255,0,0,0,4,0,64,0
True,1906859,7999.995,1269.8213,5532.274,0.04717934,0.2381674,2.0462673,0.0028095245,-0.10526501,44.386192,-0.0015691346,-0.00060629204,-0.017543694,-1.0550094,-0.0027460603,0.0010834426,0.5110199,0.48965618,0.567379,0.56347597,0.047581743,0.047926325,0.108126394,0.108498044,137.90588,137.91089,138.80429,138.8115,0,0,0,0,0,0,0,0,0,0,0,0,0.0015263786,0.0020657459,0.00027678502,0.0025721984,0.047606222,0.047970824,0.108126745,0.10852853,0.0013003647,-0.0012205541,0.009905577,0.009462655,53,3,190,2,4,-1202.7562,320.36966,-3493.4602,44.38632,249562.64,430.82596,102.621414,102.665146,110.32311,110.32311,23.196514,1,207.57376,0,0,12.273034,12.273037,0,10,255,0,0,0,4,0,64,0
True,1906968,7999.995,1269.8213,5560.393,0.04511398,-0.35583743,2.0244746,0.0063610077,-0.10226356,44.57878,0.009819454,-0.00017297498,-0.0046700346,-1.0550501,-0.0017011963,8.409378E-06,0.48148254,0.47025108,0.5702397,0.55670905,0.046614602,0.045114726,0.12276497,0.12353986,138.46431,138.44814,139.57564,139.58246,0,0,0,0,0,0,0,0,0,0,0,0,-0.00087463635,-0.0005091655,-0.0023482007,0.00019219497,0.04662281,0.045117598,0.12278742,0.12354001,-0.0021850467,-0.003510356,0.010230213,0.008694738,53,3,190,2,4,-1206.2924,320.36935,-3491.4548,44.578903,250300.34,429.91742,102.67392,102.719284,110.37297,110.37297,23.196552,1,210.804,0,0,12.364418,12.364421,0,10,255,0,0,0,4,0,65,0
True,1907093,7999.995,1269.8213,5591.0503,0.028655827,0.2164404,2.0981348,0.0036792755,-0.10668148,44.858475,-0.005275763,9.146093E-05,-0.0077796024,-1.055046,-0.0023471776,-0.00043768046,0.49723458,0.48879573,0.56016695,0.55919343,0.04505782,0.046299614,0.10879861,0.108076885,139.3471,139.3614,140.29457,140.28722,0,0,0,0,0,0,0,0,0,0,0,0,-4.4795222E-05,0.00037935268,-0.00073300203,0.0011138897,0.045057844,0.046301167,0.108801074,0.10808262,-0.00032630563,-0.0013220906,0.009087145,0.008976668,53,3,190,2,4,-1211.4309,320.3667,-3488.541,44.858604,251102,428.92194,102.75913,102.80368,110.44587,110.44587,23.196552,1,215.49794,0,0,12.496506,12.496509,0,10,255,0,0,0,4,0,65,0
True,1907187,7999.995,1269.8213,5617.588,-0.045083046,-0.004538367,2.1008282,0.0033798218,-0.100698404,45.05227,-0.00048185157,0.00029638933,0.0009975212,-1.0550324,-0.002077074,-0.0009051514,0.48446706,0.48331815,0.5651809,0.5583273,0.044529732,0.04231168,0.11641456,0.11793725,139.92929,139.8982,140.99406,141.00687,0,0,0,0,0,0,0,0,0,0,0,0,-0.00097027514,-0.0007196426,-0.0019656504,0.00034840792,0.0445403,0.0423178,0.116431154,0.117937766,-0.0018328726,-0.0019684434,0.009656131,0.00887838,53,3,190,2,4,-1215.0693,320.36627,-3486.4778,45.05238,251782.77,428.05804,102.815765,102.86142,110.49718,110.49718,23.196552,1,218.8216,0,0,12.58954,12.589542,0,10,255,0,0,0,4,0,65,0
True,1907296,7999.995,1269.8213,5643.6924,0.19057906,0.8100498,2.2704844,-0.0064792633,-0.09960088,45.29529,-0.017204227,0.00038902316,0.011302669,-1.0549827,-0.0042625205,0.0006073077,0.51686823,0.53687596,0.57393813,0.58373433,0.04396825,0.047904197,0.10206227,0.09979909,140.71178,140.76155,141.59633,141.56697,0,0,0,0,0,0,0,0,0,0,0,0,-0.00044041802,7.028205E-05,-0.0014483016,0.0016896882,0.043970454,0.04790425,0.102072544,0.099813394,0.0019904673,0.0043513775,0.0106499195,0.011761606,53,3,190,2,4,-1219.6892,320.37082,-3483.8586,45.295403,252462.31,427.21268,102.89546,102.9435,110.563896,110.563896,23.196552,1,223.04158,0,0,12.707091,12.707095,0,10,255,0,0,0,4,0,65,0
True,1907406,7999.995,1269.8213,5677.5947,-0.64111745,-1.1045259,2.488613,-0.0010700226,-0.10595442,45.4915,0.043326065,-0.00048359294,-0.016398156,-1.0549904,-0.0019517285,0.00015773236,0.47101888,0.46330035,0.5733633,0.5854663,0.051299803,0.05364674,0.13607393,0.13615265,141.29887,141.33075,142.54492,142.54845,0,0,0,0,0,0,0,0,0,0,0,0,0.0020489083,0.0027076027,0.00040171953,0.004445229,0.051340703,0.053715024,0.13607453,0.13622521,-0.003419757,-0.0043305457,0.010584682,0.011958152,53,3,190,2,4,-1223.499,320.37622,-3481.699,45.491623,253318.8,426.11066,102.94882,102.99254,110.6161,110.6161,23.196552,1,226.52153,0,0,12.803561,12.803565,0,10,255,0,0,0,4,0,65,0
True,1907531,7999.995,1269.8213,5702.73,0.1436488,0.66490424,1.700008,0.0039405823,-0.10109655,45.77137,-0.03440587,4.471963E-05,0.0068351934,-1.0550292,-0.0025968205,-0.0010430568,0.519407,0.5280163,0.5523911,0.5440332,0.041802038,0.03955286,0.09913203,0.09971517,142.19441,142.16481,143.07314,143.07736,0,0,0,0,0,0,0,0,0,0,0,0,-0.0016794725,-0.0014764714,-0.0020000027,-0.00151689,0.041835763,0.03958041,0.0991522,0.099726714,0.0022900403,0.0033059418,0.008204728,0.0072562695,53,3,190,2,4,-1228.8154,320.37067,-3478.684,45.77148,253939.7,425.2555,103.03912,103.08566,110.69021,110.69021,23.196552,1,231.37805,0,0,12.937491,12.937495,0,10,255,0,0,0,4,0,65,0
True,1907625,7999.995,1269.8213,5737.816,-0.214257,-0.5426721,1.8643391,-0.0042266846,-0.10544034,45.991776,0.031724047,0.00036520814,0.008192229,-1.0549908,-0.0016864043,0.0002628074,0.47350863,0.4861168,0.58124053,0.59016114,0.04904489,0.05072853,0.12890159,0.12853175,142.84328,142.86351,144.04393,144.03935,0,0,0,0,0,0,0,0,0,0,0,0,-0.0005670281,2.6268921E-05,-0.002211948,0.0023890303,0.049048167,0.050728537,0.12892056,0.12855396,-0.0031259656,-0.0016382039,0.011478603,0.012490928,53,3,190,2,4,-1233.1854,320.37305,-3476.2065,45.991898,254789.5,424.11407,103.10173,103.14859,110.75228,110.75228,23.196552,1,235.36975,0,0,13.046971,13.046976,0,10,255,0,0,0,4,0,66,0
True,1907734,7999.995,1269.8213,5756.2134,0.17132807,-0.3586155,2.1712837,-0.0039958954,-0.10335387,46.173164,-0.01098881,4.9631366E-05,0.00096828025,-1.0549743,-0.0009794792,0.0005956995,0.4826327,0.48514974,0.53955275,0.54644513,0.042295963,0.042601306,0.11301047,0.11301006,143.40198,143.40564,144.46327,144.46452,0,0,0,0,0,0,0,0,0,0,0,0,0.00058536895,0.00074868085,0.0005708414,0.001179487,0.042300012,0.042607885,0.11301192,0.11301621,-0.002049327,-0.001752317,0.006747812,0.007529974,53,3,190,2,4,-1236.6886,320.36807,-3474.2205,46.173275,255254.94,423.48413,103.158676,103.20447,110.7986,110.7986,23.196552,1,238.56967,0,0,13.134351,13.134355,0,10,255,0,0,0,4,0,66,0
True,1907843,7999.995,1269.8213,5777.9473,0.27023834,0.41618758,2.467374,-0.0014076233,-0.10004849,46.366966,-0.0093073845,-0.00017457861,-0.0025497284,-1.0549829,-0.0020507514,0.00053763634,0.5023002,0.49960613,0.5667986,0.56785065,0.041672304,0.042321246,0.10679205,0.10659443,143.98962,143.99911,144.98914,144.9875,0,0,0,0,0,0,0,0,0,0,0,0,0.0004894787,0.0007368063,-0.00071207376,0.0018236731,0.04167518,0.04232766,0.10679442,0.10661003,0.00027143955,-4.646182E-05,0.009839714,0.009959102,53,3,190,2,4,-1240.5312,320.3651,-3472.042,46.367077,255790.23,422.78748,103.22281,103.267876,110.85294,110.85294,23.196552,1,242.07953,0,0,13.229811,13.2298155,0,10,255,0,0,0,4,0,66,0
True,1907953,7999.995,1269.8213,5807.694,-0.11089045,0.3001526,1.7675643,0.0048217773,-0.105995,46.609943,0.009408049,-0.00038956554,-0.015062055,-1.0550145,-0.0033458385,-0.0005410453,0.5123613,0.49613163,0.58602226,0.5837396,0.049670942,0.050714266,0.10530727,0.104686774,144.8207,144.83278,145.69708,145.69438,0,0,0,0,0,0,0,0,0,0,0,0,0.0006323467,0.0013195011,-0.0012143628,0.0026490767,0.049674965,0.050731428,0.10531428,0.10472029,0.0014586449,-0.00045645237,0.012021244,0.011762202,53,3,190,2,4,-1245.4478,320.3694,-3469.2542,46.610058,256491.97,421.7906,103.30414,103.34664,110.92166,110.92166,23.196552,1,246.57068,0,0,13.35138,13.351383,0,10,255,0,0,0,4,0,66,0
True,1908078,7999.995,1269.8213,5839.3525,-0.8430347,-0.029244427,1.8276978,0.005147934,-0.0965127,46.840134,-0.013775073,0.00012318547,0.003592661,-1.0550314,-0.0022906158,-0.0013066733,0.49017218,0.49317336,0.5551399,0.5451617,0.04180902,0.040907115,0.11279221,0.112628,145.47128,145.45895,146.55536,146.55406,0,0,0,0,0,0,0,0,0,0,0,0,-0.0014907968,-0.0013782937,-0.0022702464,-0.001043901,0.04183559,0.040930327,0.11281505,0.11263283,-0.001159668,-0.000805527,0.008516669,0.00738433,53,3,190,2,4,-1250.1355,320.37125,-3466.5957,46.840233,257261.8,420.72415,103.37538,103.42053,110.983246,110.983246,23.196552,1,250.85294,0,0,13.466712,13.466716,0,10,255,0,0,0,4,0,66,0
True,1908187,7999.995,1269.8213,5861.05,-0.0081272125,0.08634703,2.4007158,9.536743E-06,-0.10618622,47.03374,0.00727382,0.00035233173,0.0051432922,-1.0550039,-0.0031124486,-0.00082484895,0.49310896,0.4989381,0.5720494,0.5751864,0.04724733,0.046701964,0.10772749,0.107999004,146.10559,146.09622,147.05736,147.0595,0,0,0,0,0,0,0,0,0,0,0,0,-0.00095078885,-0.00043015447,-0.0019842074,0.0011061382,0.047256898,0.046703946,0.10774576,0.108004674,-0.00081312656,-0.00012528896,0.010435581,0.01079157,53,3,190,2,4,-1254.1152,320.3746,-3464.3389,47.03386,257774.3,420.02133,103.438614,103.48396,111.03886,111.03886,23.196556,1,254.4885,0,0,13.564177,13.564181,0,10,255,0,0,0,4,0,67,0
True,1908281,7999.995,1269.8213,5893.046,-0.028517246,-0.6734132,1.9579649,-0.004224777,-0.115438916,47.259243,0.019626247,0.00027428393,0.005654136,-1.0549613,-0.0013828544,5.242444E-05,0.4588098,0.46827126,0.5492097,0.5534521,0.0474188,0.049997356,0.12099992,0.11843611,146.78322,146.81827,147.9194,147.88684,0,0,0,0,0,0,0,0,0,0,0,0,-0.00016533081,0.0003101977,-0.0004494452,0.0009803798,0.047419086,0.049998317,0.12100075,0.11844017,-0.004860431,-0.0037439764,0.007843703,0.00832513,53,3,190,2,4,-1258.789,320.37457,-3461.6892,47.259384,258508.3,418.94608,103.50575,103.5516,111.09977,111.09977,23.196556,1,258.75763,0,0,13.678127,13.678131,0,10,255,0,0,0,4,0,67,0
True,1908406,7999.995,1269.8213,5917.441,0.26045883,0.09274182,1.9052284,-0.00043678284,-0.102895185,47.48472,-0.026034277,-0.00012508364,-0.006838851,-1.0549597,-0.0013467345,-0.00016080354,0.5026591,0.49515194,0.5363672,0.5374812,0.037833147,0.03828744,0.10641023,0.10644428,147.43959,147.44623,148.50003,148.50119,0,0,0,0,0,0,0,0,0,0,0,0,0.0009189056,0.0008273712,0.0009347261,0.00087378523,0.037844304,0.038296375,0.10641433,0.10644786,0.00031378865,-0.0005720556,0.00638631,0.0065127313,53,3,190,2,4,-1263.4528,320.36688,-3459.045,47.484825,259080.42,418.12225,103.58312,103.6266,111.160324,111.160324,23.196556,1,263.0178,0,0,13.791294,13.791298,0,10,255,0,0,0,4,0,67,0
True,1908515,7999.995,1269.8213,5938.396,-0.5503738,0.5555895,1.9392406,0.0040416718,-0.10905528,47.672543,0.010757358,-0.00019726992,-0.009932627,-1.0549752,-0.0031786326,-0.0009879504,0.5239683,0.5132233,0.5993604,0.59478295,0.049364273,0.050052047,0.101563975,0.1011106,148.1108,148.12096,148.96408,148.95964,0,0,0,0,0,0,0,0,0,0,0,0,5.3756485E-05,0.0008010994,-0.0021854516,0.0026141643,0.0493643,0.050058458,0.10158748,0.10114439,0.0028282702,0.0015603602,0.013534874,0.013015419,53,3,190,2,4,-1267.4584,320.3688,-3456.7734,47.67267,259571.9,417.44293,103.64961,103.692154,111.218025,111.218025,23.196556,1,266.67694,0,0,13.888072,13.888076,0,10,255,0,0,0,4,0,67,0
True,1908625,7999.995,1269.8213,5969.519,-0.14937389,-0.38650244,1.7765522,0.0045204163,-0.098848775,47.873295,0.0010494615,0.00017139404,0.0016933545,-1.054982,-0.0014942021,-0.0015311447,0.4844547,0.4830873,0.5665357,0.55869657,0.043996528,0.04227577,0.118574895,0.11893146,148.68108,148.65672,149.83621,149.84026,0,0,0,0,0,0,0,0,0,0,0,0,-0.0012080721,-0.0009488306,-0.002387224,4.2079526E-05,0.04401311,0.04228642,0.11859892,0.118931465,-0.001834333,-0.0019956827,0.009809881,0.008920282,53,3,190,2,4,-1271.7665,320.36896,-3454.33,47.873398,260281.22,416.39514,103.71214,103.756165,111.2729,111.2729,23.196556,1,270.6125,0,0,13.991741,13.991745,0,10,255,0,0,0,4,0,67,0
True,1908750,7999.995,1269.8213,5998.114,0.48281997,-0.25763828,2.494558,-0.0026168823,-0.10608054,48.124184,0.008099937,0.000281658,0.0047367993,-1.0549386,-0.0014557331,-0.0005115829,0.47662097,0.4851477,0.55629754,0.56432134,0.043367445,0.044759855,0.113079436,0.1120041,149.43687,149.45323,150.5353,150.52176,0,0,0,0,0,0,0,0,0,0,0,0,-0.0002884113,6.864858E-05,-0.00087423646,0.0012218291,0.043368403,0.044759907,0.11308282,0.11201077,-0.0027587116,-0.0017525554,0.008648038,0.009558588,53,3,190,2,4,-1277.1385,320.36566,-3451.2837,48.124306,260928.69,415.46014,103.79477,103.839386,111.34375,111.34375,23.196556,1,275.51987,0,0,14.120395,14.120399,0,10,255,0,0,0,4,0,68,0
True,1908859,7999.995,1269.8213,6020.4863,0.23049837,0.83015,1.8690525,-0.0029525757,-0.0957142,48.32936,-0.028344125,0.00014088738,0.008338305,-1.0549185,-0.0027475406,-0.0001257042,0.51876724,0.5291392,0.56201684,0.562212,0.039061543,0.03777102,0.09968631,0.10051883,150.0819,150.06357,151.05533,151.06442,0,0,0,0,0,0,0,0,0,0,0,0,-0.00041364218,-0.000351228,-0.0012589036,0.00064230274,0.039063733,0.037772655,0.09969426,0.10052088,0.002214551,0.003438443,0.009297073,0.009319216,53,3,190,2,4,-1281.6165,320.36404,-3448.7446,48.329453,260985.03,413.98816,103.870346,103.91559,111.402626,111.402626,23.196556,1,279.61032,0,0,14.227129,14.227134,0,10,255,0,0,0,4,0,68,0
True,1908953,7999.995,1269.8213,6047.959,-0.06542736,-0.012699653,1.7182026,-0.0014686584,-0.10103278,48.53001,0.02260194,-0.0004258289,-0.015561166,-1.0549212,-0.0034719184,5.1525996E-05,0.5114677,0.5065564,0.59224606,0.6054878,0.046479557,0.053172044,0.11200559,0.109490216,150.7119,150.80417,151.76387,151.73418,0,0,0,0,0,0,0,0,0,0,0,0,0.0017822636,0.0025392722,-0.0004820773,0.0047957664,0.046513714,0.053232644,0.11200663,0.109595194,0.0013532043,0.0007736683,0.012727529,0.0142302215,53,3,190,2,4,-1286.1335,320.37238,-3446.1836,48.530113,260991.94,412.14148,103.941574,103.98318,111.46408,111.46408,23.196556,1,283.73645,0,0,14.334341,14.334346,0,10,255,0,0,0,4,0,68,0
True,1909062,7999.995,1269.8213,6077.808,-0.41072583,-0.14550224,1.7982528,0.0075626373,-0.099926,48.77416,-0.010169651,-8.283559E-05,0.0009804456,-1.0549753,-0.0022096543,-0.0019296835,0.4909607,0.49321756,0.5552292,0.5440963,0.042720776,0.040276837,0.1073042,0.10735572,151.47879,151.4461,152.51474,152.51514,0,0,0,0,0,0,0,0,0,0,0,0,-0.001581875,-0.0013696697,-0.002339447,-0.0012387058,0.042750053,0.04030012,0.107329704,0.10736287,-0.0010666251,-0.00080031157,0.008526802,0.007263422,53,3,190,2,4,-1291.5802,320.3745,-3443.0942,48.774258,260938.72,410.00568,104.02313,104.06644,111.53196,111.53196,23.196556,1,288.71228,0,0,14.463042,14.463046,0,10,255,0,0,0,4,0,68,0
True,1909187,7999.995,1269.8213,6100.7754,-0.76893836,-0.2868429,1.6022639,0.0024986267,-0.11091226,48.959236,0.01432546,0.00020665253,-0.0003688112,-1.0549606,-0.0023137587,-0.0015615614,0.48455647,0.48798096,0.562255,0.5697788,0.04699858,0.048251845,0.10891563,0.108708166,152.06873,152.08414,153.07472,153.07211,0,0,0,0,0,0,0,0,0,0,0,0,-0.0007689492,-0.00021284187,-0.0014957062,0.0010093779,0.04700487,0.048252314,0.1089259,0.10871285,-0.0018223226,-0.0014182329,0.009324104,0.01017791,53,3,190,2,4,-1295.7981,320.3761,-3440.7021,48.959362,260920.06,408.44513,104.08681,104.12962,111.58653,111.58653,23.196556,1,292.5653,0,0,14.562265,14.562269,0,10,255,0,0,0,4,0,68,0
True,1909281,7999.995,1269.8213,6125.7793,0.027432203,-0.5100059,1.6381419,0.0010662079,-0.112014964,49.152298,0.002013545,0.00026224158,0.0030255564,-1.0549372,-0.0011310482,-0.0015266587,0.4688928,0.47388193,0.5432982,0.54422575,0.043579843,0.043466758,0.11139927,0.11064381,152.64302,152.64069,153.73116,153.72005,0,0,0,0,0,0,0,0,0,0,0,0,-0.00073479523,-0.0004342427,-0.0008143904,-0.000105757696,0.043586038,0.043468926,0.11140225,0.11064386,-0.0036706328,-0.0030819178,0.0071728528,0.0072781146,53,3,190,2,4,-1300.2097,320.3726,-3438.2002,49.152424,260860.9,406.6709,104.15128,104.194824,111.64055,111.64055,23.196556,1,296.59546,0,0,14.6656475,14.665652,0,10,255,0,0,0,4,0,68,0
True,1909406,7999.995,1269.8213,6151.836,0.098086715,0.3114471,1.7250583,0.0034294128,-0.10470901,49.383827,-0.0139072025,4.9654685E-05,-0.010646479,-1.054917,-0.001669513,-0.0020236296,0.5055272,0.49268642,0.5536278,0.55296963,0.039207198,0.03919585,0.10263273,0.103254355,153.3283,153.3276,154.3596,154.3678,0,0,0,0,0,0,0,0,0,0,0,0,0.0004495913,0.0005851279,-7.5974844E-05,0.0012717663,0.039209776,0.039200217,0.10263275,0.10326219,0.0006522238,-0.00086298585,0.0083450675,0.008270383,53,3,190,2,4,-1305.577,320.36646,-3435.1562,49.38394,260804.33,404.86194,104.237595,104.278656,111.708084,111.708084,23.196556,1,301.49854,0,0,14.79088,14.790886,0,10,255,0,0,0,4,0,69,0
True,1909515,7999.995,1269.8213,6171.8564,-0.9495159,0.6778408,1.8633761,0.003944397,-0.099687606,49.555958,-0.0033638254,0.00027515137,-7.0555834E-06,-1.0549002,-0.0029047031,-0.0024662232,0.5157082,0.5158519,0.5860722,0.5795703,0.042336505,0.042832755,0.100231014,0.09933319,153.88692,153.89325,154.84569,154.83232,0,0,0,0,0,0,0,0,0,0,0,0,-0.0009988993,-0.000579884,-0.0027009859,0.0010104277,0.042348288,0.042836677,0.100267395,0.09933832,0.0018535852,0.0018705428,0.012026906,0.01128906,53,3,190,2,4,-1309.6721,320.36807,-3432.8335,49.556057,260755.72,403.47537,104.303055,104.345825,111.762314,111.762314,23.196556,1,305.23962,0,0,14.886044,14.886049,0,10,255,0,0,0,4,0,69,0
True,1909625,7999.995,1269.8213,6201.8193,0.4254601,-0.5667138,2.3273282,0.0022296906,-0.10566281,49.764046,0.019124653,0.00049118977,0.009922645,-1.0548681,-0.0019388837,-0.002454004,0.4833457,0.4867035,0.57070744,0.56699055,0.050794218,0.044737462,0.10994949,0.11359513,154.61325,154.52254,155.59958,155.64122,0,0,0,0,0,0,0,0,0,0,0,0,-0.0018798392,-0.0012862534,-0.0027692504,6.458032E-05,0.050828993,0.04475595,0.10998436,0.11359514,-0.001965195,-0.0015689731,0.010283291,0.009861499,53,3,190,2,4,-1314.69,320.3715,-3429.987,49.764156,260651.34,401.38632,104.374374,104.41811,111.824165,111.824165,23.196556,1,309.8237,0,0,15.002206,15.002212,0,10,255,0,0,0,4,0,69,0
True,1909734,7999.995,1269.8213,6223.3584,-0.8196473,-0.2525555,1.7539186,-0.007715225,-0.09923265,49.94737,-0.012255573,0.0005186444,0.017208042,-1.054803,-0.0010828164,-0.00043203158,0.47612518,0.49455437,0.53690684,0.5447213,0.037283204,0.03910473,0.10763059,0.10699038,155.0476,155.07054,156.185,156.17586,0,0,0,0,0,0,0,0,0,0,0,0,-0.0005467629,-0.00058352127,-0.00047024034,-4.992963E-05,0.037287213,0.039109085,0.10763162,0.1069904,-0.0028172135,-0.0006425679,0.0064475536,0.0073343515,53,3,190,2,4,-1319.0864,320.36713,-3427.494,49.94747,260583.34,399.86118,104.439415,104.48526,111.876,111.876,23.196556,1,313.83987,0,0,15.1035795,15.103584,0,11,255,0,0,0,4,0,69,0
True,1909843,7999.995,1269.8213,6241.1006,0.023359358,0.8872962,1.9342748,-0.00481987,-0.09892538,50.12897,-0.0102663385,-8.5252956E-05,0.0016997866,-1.0547835,-0.0034850803,3.4767672E-05,0.53504664,0.533875,0.58954793,0.59143615,0.043975107,0.042120885,0.09226481,0.09393527,155.70218,155.67583,156.53433,156.55602,0,0,0,0,0,0,0,0,0,0,0,0,0.00048084266,0.0009844821,-0.0012020958,0.0028139513,0.043977737,0.04213239,0.09227264,0.09397741,0.0041355193,0.0039972663,0.01242134,0.012635618,53,3,190,2,4,-1323.5765,320.36917,-3424.9475,50.12907,260530.72,398.65964,104.517044,104.560394,111.935326,111.935326,23.196556,1,317.94162,0,0,15.206731,15.206736,0,11,255,0,0,0,4,0,69,0
True,1909953,7999.995,1269.8213,6274.517,0.44733596,-0.3605682,2.069399,-0.004432678,-0.096862756,50.349236,0.0036161977,-0.00017347212,0.0052492972,-1.0547976,-0.002101505,0.0008387771,0.4883391,0.49420914,0.5652069,0.56803,0.042986635,0.043730356,0.111058444,0.11069787,156.34691,156.35802,157.45808,157.45447,0,0,0,0,0,0,0,0,0,0,0,0,8.424947E-05,0.00044855344,-0.0011050974,0.0015683544,0.042986717,0.043732654,0.11106394,0.11070898,-0.0013759732,-0.00068330765,0.009659082,0.009979457,53,3,190,2,4,-1329.1182,320.37506,-3421.8044,50.349323,260383.81,396.30447,104.59518,104.63924,112.00196,112.00196,23.196556,1,323.00406,0,0,15.333537,15.333542,0,11,255,0,0,0,4,0,70,0
True,1910062,7999.995,1269.8213,6298.5854,0.28188187,-0.82468396,2.0851448,-0.001958847,-0.10511815,50.532402,0.015640328,-0.00036428488,-0.0039169155,-1.0548226,-0.0005869006,0.00092397357,0.4647124,0.46353495,0.54498076,0.5486971,0.042111866,0.043120224,0.1167238,0.11605715,156.8771,156.89285,158.09206,158.08607,0,0,0,0,0,0,0,0,0,0,0,0,0.0007127225,0.0010145224,0.00025317757,0.0013122694,0.042117897,0.043132156,0.116724074,0.11606457,-0.004163921,-0.0043028593,0.0073637962,0.007785529,53,3,190,2,4,-1333.7019,320.37192,-3419.2048,50.532513,260286.12,394.65396,104.65908,104.70158,112.055786,112.055786,23.196556,1,327.1914,0,0,15.438004,15.438008,0,11,255,0,0,0,4,0,70,0
True,1910171,7999.995,1269.8213,6313.548,0.056434393,0.60006684,1.664407,0.0033836365,-0.100317605,50.710052,-0.029146546,-0.0003389268,-0.010976253,-1.0548593,-0.0018992458,9.697914E-05,0.5309405,0.5184851,0.553233,0.54978514,0.03720822,0.037637606,0.09293912,0.09282105,157.44121,157.4492,158.3841,158.38434,0,0,0,0,0,0,0,0,0,0,0,0,0.0005610325,0.0006788974,-9.297677E-06,0.0008389892,0.03721245,0.037643727,0.09293912,0.09282484,0.003650993,0.0021812618,0.008300275,0.007909,53,3,190,2,4,-1338.1777,320.36594,-3416.666,50.710148,260191.66,393.557,104.7347,104.77568,112.10951,112.10951,23.196556,1,331.28018,0,0,15.53965,15.539655,0,11,255,0,0,0,4,0,70,0
True,1910296,7999.995,1269.8213,6346.106,-0.023347616,-0.3688477,2.1101234,0.0059070587,-0.09367081,50.920887,0.008794006,4.9651426E-05,-0.00097564654,-1.0548872,-0.0014264998,-0.0009761274,0.4974634,0.4929155,0.5823908,0.5734717,0.042052835,0.040221516,0.11324821,0.114390835,158.09578,158.06955,159.26883,159.28271,0,0,0,0,0,0,0,0,0,0,0,0,-0.0011184474,-0.0008118949,-0.0029926004,0.00072284474,0.042067707,0.04022971,0.11328774,0.114393115,-0.00029930472,-0.00083595514,0.011609137,0.010596991,53,3,190,2,4,-1343.7065,320.36713,-3413.5295,50.920975,260022,391.29083,104.81346,104.85538,112.17776,112.17776,23.196556,1,336.33127,0,0,15.664733,15.664739,0,11,255,0,0,0,4,0,70,0
True,1910390,7999.995,1269.8213,6361.6626,0.09926653,0.34361365,1.3435051,-0.0028152466,-0.096722186,51.09442,-0.008038962,0.00045768858,0.020480504,-1.0548605,-0.0023108982,0.00016357542,0.50536937,0.52803504,0.5702715,0.5713624,0.0420297,0.041587837,0.09572851,0.09535692,158.66605,158.6584,159.58775,159.58006,0,0,0,0,0,0,0,0,0,0,0,0,-0.0020017945,-0.0015958156,-0.0029075984,-0.00033321275,0.042077344,0.041618444,0.09577266,0.0953575,0.0006335974,0.0033081472,0.0102338195,0.010357618,53,3,190,2,4,-1348.2063,320.36664,-3410.9773,51.09452,259927.53,390.1877,104.88306,104.92884,112.23203,112.23203,23.196556,1,340.442,0,0,15.7661495,15.766155,0,11,255,0,0,0,4,0,70,0
True,1910515,7999.995,1269.8213,6385.807,0.101486504,-0.013361079,1.7529485,-0.005153656,-0.08974109,51.26514,-0.0065336893,-3.5711288E-05,-0.0051353024,-1.0548334,-0.0021109546,0.0009937804,0.5045988,0.5035431,0.5616954,0.5759049,0.03841109,0.03960881,0.103879295,0.105026245,159.13965,159.15654,160.23187,160.24693,0,0,0,0,0,0,0,0,0,0,0,0,0.0013467495,0.0015389011,0.0004044032,0.0031777644,0.03843469,0.039638694,0.103880085,0.10507431,0.0005426705,0.00041809678,0.009260595,0.010873109,53,3,190,2,4,-1352.7745,320.36853,-3408.3867,51.265217,259782.84,388.50162,104.95242,104.993965,112.284966,112.284966,23.196556,1,344.61517,0,0,15.868754,15.868761,0,11,255,0,0,0,4,0,71,0
True,1910625,7999.995,1269.8213,6414.408,0.16158599,-0.44860357,1.909276,0.0010623932,-0.09897789,51.483807,0.020256806,-0.00034691097,-0.0097866515,-1.0548614,-0.0017745589,0.00024498915,0.48940465,0.4828941,0.5706544,0.56885725,0.042266272,0.04616303,0.11147572,0.10851606,159.82199,159.88051,160.9806,160.94188,0,0,0,0,0,0,0,0,0,0,0,0,0.00067399413,0.0011461889,-0.0007882331,0.0021267165,0.042271644,0.046177257,0.11147851,0.10853689,-0.0012502372,-0.0020184815,0.010277271,0.010073334,53,3,190,2,4,-1358.6791,320.37207,-3405.0378,51.48391,259621.48,386.55164,105.037766,105.078255,112.35506,112.35506,23.196556,1,350.00912,0,0,16.000875,16.000883,0,11,255,0,0,0,4,0,71,0
True,1910750,7999.995,1269.8213,6435.7817,-0.2711541,0.7487125,1.7742847,0.0070648193,-0.089834936,51.69522,-0.031545334,-1.3986955E-05,5.6909397E-05,-1.054899,-0.0025178588,-0.0013704264,0.52995676,0.52924556,0.561921,0.5485169,0.036427937,0.034383185,0.0927794,0.09326527,160.49025,160.46077,161.45528,161.46138,0,0,0,0,0,0,0,0,0,0,0,0,-0.001189257,-0.001216929,-0.0021329268,-0.00089509855,0.036447346,0.034404714,0.09280392,0.093269564,0.003534913,0.0034509897,0.009286195,0.0077650845,53,3,190,2,4,-1364.412,320.3702,-3401.786,51.6953,259435.02,384.9631,105.128525,105.16941,112.42032,112.42032,23.196556,1,355.24655,0,0,16.12863,16.128635,0,11,255,0,0,0,4,0,71,0
True,1910859,7999.995,1269.8213,6463.7676,0.16673881,-0.9792935,1.4175444,0.0011882782,-0.10566569,51.858604,0.05241874,0.00035114723,-0.0013212338,-1.0548695,-0.0016375751,-0.00090881693,0.4875516,0.49052957,0.5914183,0.5985329,0.05318176,0.056445114,0.117379606,0.117318146,161.08707,161.13127,162.18808,162.18779,0,0,0,0,0,0,0,0,0,0,0,0,-0.00060467474,0.00026127172,-0.002492451,0.0027435268,0.053185195,0.056445718,0.11740606,0.11735022,-0.0014688969,-0.0011174977,0.012633592,0.013440967,53,3,190,2,4,-1369.0509,320.37543,-3399.1545,51.85871,259266.7,383.08118,105.189095,105.22993,112.476814,112.476814,23.196556,1,359.4845,0,0,16.231628,16.231634,0,11,255,0,0,0,4,0,71,0
True,1910984,7999.995,1269.8213,6480.196,-0.003775388,0.73029166,1.0319117,0.0008716583,-0.08581329,52.05888,-0.05027684,0.00026179777,0.0019276701,-1.0548315,-0.001283566,-0.0012231789,0.53992283,0.5420507,0.5355775,0.5357668,0.032733314,0.032089107,0.08890856,0.089144066,161.59846,161.58763,162.56735,162.5692,0,0,0,0,0,0,0,0,0,0,0,0,-0.00019602042,-0.0005565072,-4.002554E-06,-0.0005197678,0.032733902,0.03209393,0.08890856,0.08914558,0.0047109127,0.0049619973,0.0062966943,0.0063181818,53,3,190,2,4,-1374.5167,320.3656,-3396.0542,52.05895,259084.4,381.79538,105.27603,105.31734,112.53542,112.53542,23.196556,1,364.47787,0,0,16.352568,16.35257,0,11,255,0,0,0,4,0,71,0
True,1911078,7999.995,1269.8213,6503.354,-0.39772975,0.08686517,1.4684281,-0.00349617,-0.0878236,52.214256,0.036407277,0.00041308952,0.012674701,-1.0547963,-0.0023147666,-0.00037458766,0.5213977,0.53306735,0.6219908,0.6253515,0.04867778,0.04797729,0.1061514,0.10632609,162.15407,162.14221,163.15862,163.15904,0,0,0,0,0,0,0,0,0,0,0,0,-0.0012588704,-0.0004123189,-0.0043517523,0.003408164,0.048694056,0.047979064,0.10624056,0.10638069,0.0025249422,0.0039019585,0.016103,0.01648438,53,3,190,2,4,-1379.0521,320.3706,-3393.4817,52.214333,258946.28,380.2771,105.340454,105.383575,112.59563,112.59563,23.196556,1,368.62115,0,0,16.45257,16.452572,0,11,255,0,0,0,4,0,72,0
True,1911187,7999.995,1269.8213,6522.214,0.4039343,-0.01860593,2.0781121,-0.007209778,-0.080112435,52.37884,-0.020502098,0.00016907263,0.010977388,-1.0547655,-0.0012814747,0.0008540498,0.5076487,0.5203877,0.55341715,0.56065226,0.036188554,0.03612588,0.098157965,0.09843981,162.58672,162.58475,163.64468,163.64723,0,0,0,0,0,0,0,0,0,0,0,0,9.770131E-05,8.04758E-05,-0.000509842,0.0011275975,0.036188688,0.03612597,0.09815928,0.098446265,0.00090256333,0.0024057627,0.008321166,0.00914222,53,3,190,2,4,-1383.7074,320.3687,-3390.8413,52.3789,258735.08,378.83154,105.40888,105.45201,112.64365,112.64365,23.196556,1,372.87427,0,0,16.554905,16.554907,0,11,255,0,0,0,4,0,72,0
True,1911296,7999.995,1269.8213,6542.9565,-0.30310073,-0.17446147,1.3945884,-0.007827759,-0.09115624,52.539803,0.020914163,-0.00015448674,0.006527689,-1.0547647,-0.0016798101,0.001881021,0.4987737,0.509551,0.5816707,0.58897203,0.042913582,0.044645246,0.103762075,0.10286994,163.10176,163.13034,164.16692,164.15456,0,0,0,0,0,0,0,0,0,0,0,0,0.0004432119,0.0009572023,-0.0013119184,0.002845323,0.04291587,0.044655506,0.10377037,0.10290929,-0.00014469028,0.0011270344,0.011527419,0.012355983,53,3,190,2,4,-1388.4104,320.37012,-3388.1743,52.53988,258547.61,377.39832,105.476265,105.51906,112.699936,112.699936,23.196556,1,377.17038,0,0,16.657963,16.657963,0,11,255,0,0,0,4,0,72,0
True,1911390,7999.995,1269.8213,6560.771,-0.076012194,0.55726874,1.8261384,-0.0016384125,-0.08317036,52.708164,-0.02755262,-0.00048782869,-0.010358211,-1.0548048,-0.0021501342,0.0015807904,0.53538734,0.52405745,0.55782807,0.5597786,0.034779698,0.03539825,0.091699354,0.0919219,163.59807,163.60956,164.58614,164.59186,0,0,0,0,0,0,0,0,0,0,0,0,0.0014315784,0.0013930823,0.0005587544,0.0020818189,0.034809146,0.035425648,0.09170106,0.09194548,0.0041757226,0.0028387904,0.008821726,0.009043068,53,3,190,2,4,-1393.3273,320.36893,-3385.3857,52.70823,258387.98,376.10605,105.55458,105.593956,112.75244,112.75244,23.196556,1,381.6621,0,0,16.765373,16.765373,0,11,255,0,0,0,4,0,72,0
True,1911531,7999.995,1269.8213,6591.7363,0.16616637,-0.7261148,1.6821039,9.536743E-06,-0.09734952,52.90528,0.033600844,-0.00015649578,0.0025877114,-1.0548506,-0.0017316343,0.0013961233,0.49348074,0.4950085,0.5875925,0.5826634,0.04777076,0.05156858,0.11224926,0.109607875,164.29216,164.3538,165.40573,165.37138,0,0,0,0,0,0,0,0,0,0,0,0,-0.0006499238,8.616025E-05,-0.0027099743,0.0016283081,0.04777518,0.05156865,0.11228197,0.10961997,-0.00076925755,-0.0005889833,0.012199432,0.011640072,53,3,190,2,4,-1399.3213,320.37613,-3381.9856,52.905373,258078.56,373.90784,105.634995,105.67604,112.82195,112.82195,23.196556,1,387.138,0,0,16.895866,16.895864,0,11,255,0,0,0,4,0,73,0
True,1911625,7999.995,1269.8213,6608.274,-0.10817331,-0.3144145,1.5831225,0.0046806335,-0.0894147,53.069927,-0.022520605,-0.00023022988,-0.015813803,-1.054878,-0.00033998024,0.0002912871,0.5032612,0.48565662,0.53195304,0.52880925,0.034407955,0.03405609,0.09912237,0.09956655,164.7046,164.70067,165.8124,165.82248,0,0,0,0,0,0,0,0,0,0,0,0,0.0009240074,0.0007399195,0.0010585464,0.00051240873,0.03442036,0.034064125,0.099128015,0.09956787,0.0003848374,-0.0016925037,0.0058853924,0.005528629,53,3,190,2,4,-1404.1547,320.36874,-3379.2441,53.07,257908.4,372.7008,105.70529,105.74261,112.869804,112.869804,23.196556,1,391.55356,0,0,17.000732,17.00073,0,11,255,0,0,0,4,0,73,0
True,1911734,7999.995,1269.8213,6622.3467,0.0036984086,0.91612846,1.2100234,0.005086899,-0.08843783,53.225002,-0.001893617,0.00014706507,-0.002253752,-1.0548841,-0.0030288738,-0.0005364119,0.54778385,0.5441745,0.6091101,0.60161054,0.04096576,0.04115965,0.08698611,0.08664859,165.2472,165.25204,166.0897,166.08322,0,0,0,0,0,0,0,0,0,0,0,0,-0.0009786307,-0.000423913,-0.00341178,0.0017611462,0.040977444,0.04116183,0.08705299,0.08666649,0.00563851,0.005212605,0.014641285,0.01379022,53,3,190,2,4,-1408.9346,320.37027,-3376.5325,53.225075,257761.19,371.7212,105.782684,105.82187,112.929245,112.929245,23.196556,1,395.92032,0,0,17.104128,17.104126,0,11,255,0,0,0,4,0,73,0
True,1911843,7999.995,1269.8213,6647.325,-0.4335901,-0.47932985,1.3697134,0.004337311,-0.09242778,53.373615,0.02087104,0.00020777898,-0.003829714,-1.054869,-0.0017801285,-0.0010655494,0.50575906,0.4988679,0.5831196,0.58002067,0.04821598,0.045153175,0.10292791,0.104768075,165.78065,165.73169,166.75076,166.7751,0,0,0,0,0,0,0,0,0,0,0,0,-0.00070084014,-7.7061064E-05,-0.0022128224,0.001599053,0.048221078,0.04515324,0.1029517,0.10478028,0.00067958236,-0.00013357401,0.0116918385,0.011340171,53,3,190,2,4,-1413.6044,320.37518,-3373.8835,53.373688,257506.22,369.9434,105.84416,105.88223,112.97864,112.97864,23.196556,1,400.1932,0,0,17.204855,17.204851,0,11,255,0,0,0,4,0,73,0
True,1911968,7999.995,1269.8213,6668.628,-0.24398234,0.04692045,1.5111963,-0.005376816,-0.08528145,53.565636,-0.03183593,0.00040768523,0.018822089,-1.0548179,-0.0003619761,0.00045409775,0.49685344,0.51776785,0.528606,0.53165054,0.03238545,0.032519415,0.09583118,0.09543814,166.22969,166.22966,167.32649,167.31769,0,0,0,0,0,0,0,0,0,0,0,0,-0.000889323,-0.0011678224,-0.0006144728,-0.0012492157,0.03239766,0.032540377,0.095833145,0.09544632,-0.00037127733,0.0020966232,0.005505562,0.00585106,53,3,190,2,4,-1419.4966,320.3661,-3370.5415,53.565704,257247.31,368.38046,105.92436,105.9668,113.03764,113.03764,23.196556,1,405.57608,0,0,17.33154,17.331537,0,11,255,0,0,0,4,0,73,0
True,1912062,7999.995,1269.8213,6686.12,-0.10714841,0.25635365,1.380132,-0.006877899,-0.08730791,53.71992,0.023398122,-0.000100597725,0.0018362133,-1.054801,-0.0020687738,0.0014409499,0.5245176,0.5305066,0.6058158,0.6141553,0.042925972,0.043013714,0.095151946,0.0963396,166.76216,166.76382,167.71225,167.72635,0,0,0,0,0,0,0,0,0,0,0,0,0.0007003159,0.0013304253,-0.0018530037,0.0042148726,0.042931683,0.043034285,0.095169984,0.096431755,0.0028930902,0.0035997927,0.014267445,0.015213817,53,3,190,2,4,-1424.4578,320.36725,-3367.728,53.71999,257095.88,367.2342,106.00008,106.04018,113.09828,113.09828,23.196556,1,410.1082,0,0,17.437857,17.437853,0,11,255,0,0,0,4,0,73,0
True,1912171,7999.995,1269.8213,6704.406,0.36207104,0.46538046,1.3762717,-0.0022354126,-0.07535731,53.868225,-0.021338612,-0.00038259893,-0.008635183,-1.0548261,-0.0019337606,0.0012475038,0.5325334,0.52395713,0.56595033,0.56968087,0.03382569,0.03516372,0.09206828,0.09167986,167.16875,167.19095,168.19643,168.19315,0,0,0,0,0,0,0,0,0,0,0,0,0.0013037452,0.0012783369,4.7515117E-05,0.0024422607,0.033850808,0.035186946,0.092068285,0.091712385,0.0038389564,0.002826959,0.009743452,0.010166794,53,3,190,2,4,-1429.2115,320.3677,-3365.032,53.86827,256836.33,365.83127,106.07149,106.10957,113.145966,113.145966,23.196556,1,414.45096,0,0,17.539446,17.539442,0,11,255,0,0,0,4,0,72,0
True,1912296,7999.995,1269.8213,6728.6294,0.23486066,-0.29741392,1.522737,0.0040187836,-0.08556977,54.04199,0.025754107,-0.00020214391,0.0008210549,-1.0548755,-0.0025095823,0.00014026325,0.5170983,0.51018673,0.59943134,0.58791864,0.047649674,0.044675976,0.10052143,0.10089431,167.83316,167.78856,168.78796,168.79391,0,0,0,0,0,0,0,0,0,0,0,0,-0.0010793924,-0.00038948088,-0.0034378325,0.001347122,0.047661897,0.044677675,0.10058019,0.10090331,0.0020176172,0.0012020469,0.01354292,0.012236446,53,3,190,2,4,-1434.9742,320.3766,-3361.7632,54.042057,256555.56,364.1286,106.15206,106.19081,113.211685,113.211685,23.196556,1,419.71555,0,0,17.662233,17.66223,0,11,255,0,0,0,4,0,72,0
True,1912390,7999.995,1269.8213,6747.251,-0.40799007,-0.64520717,1.5589693,-0.0026988983,-0.09113608,54.194427,-0.00269297,0.00020898941,0.016685298,-1.0548687,-0.0009710352,0.001251161,0.47892433,0.49385175,0.54454905,0.5430524,0.039062697,0.038079657,0.09838264,0.09884757,168.22903,168.2127,169.2781,169.28467,0,0,0,0,0,0,0,0,0,0,0,0,-0.0013888221,-0.0011645735,-0.0015525514,-0.0009774185,0.039087377,0.03809746,0.098394886,0.098852396,-0.0024869144,-0.00072547793,0.007314801,0.007144958,53,3,190,2,4,-1439.919,320.37543,-3358.9587,54.1945,256298.8,362.74673,106.21613,106.257645,113.25911,113.25911,23.196556,1,424.2327,0,0,17.767273,17.767271,0,11,255,0,0,0,4,0,72,0
True,1912515,7999.995,1269.8213,6766.7617,0.29184848,-0.123059824,1.383987,-0.006872177,-0.09711591,54.361004,-0.0026387423,-0.00012199018,-0.0025024072,-1.0548528,-0.0009114945,0.0024871097,0.4910238,0.49113014,0.54271966,0.5551339,0.03664714,0.038629606,0.096237935,0.09624552,168.7069,168.73781,169.76427,169.76459,0,0,0,0,0,0,0,0,0,0,0,0,0.0012881886,0.0015264141,0.0011487199,0.00214242,0.036669772,0.03865975,0.09624479,0.09626936,-0.0010591745,-0.0010466278,0.0071071982,0.008515984,53,3,190,2,4,-1445.4254,320.3703,-3355.8362,54.36109,256054.86,361.36353,106.29435,106.33316,113.316086,113.316086,23.196556,1,429.26285,0,0,17.883892,17.88389,0,11,255,0,0,0,4,0,72,0
True,1912609,7999.995,1269.8213,6787.578,0.06458914,0.07307484,1.3196651,-0.0010356903,-0.10927078,54.491802,-0.013287842,-0.0007275522,0.009779055,-1.0548842,-0.0013156263,0.0018874147,0.5030248,0.4897302,0.5627078,0.55566883,0.034443308,0.035897985,0.12208377,0.08804099,169.08202,169.11378,170.6146,170.08176,0,0,0,0,0,0,0,0,0,0,0,0,-0.00026010274,-9.557466E-05,-0.0021418743,0.0002079365,0.034444287,0.03589811,0.12210256,0.08804124,0.00035694242,-0.001211822,0.009375483,0.008576691,53,3,190,2,4,-1449.9082,320.36658,-3353.2942,54.49191,255781.86,359.95123,106.3586,106.398735,113.3634,113.3634,23.196556,1,433.35794,0,0,17.978573,17.97857,0,11,255,0,0,0,4,0,72,0
True,1912734,7999.995,1269.8213,6801.7837,-0.22950417,0.097519055,1.3668914,0.0046081543,-0.10788828,54.649986,0.03100228,-0.0006577139,-0.004064056,-1.0549619,-0.0017997201,0.00094588497,0.53799176,0.5006482,0.6052213,0.60422623,0.056068543,0.04826548,0.0945465,0.09034369,169.84174,169.73476,170.59027,170.53073,0,0,0,0,0,0,0,0,0,0,0,0,-0.00047865362,0.00043947247,-0.0035517467,0.0024685427,0.056070585,0.04826748,0.09461319,0.09037741,0.004483044,7.650256E-05,0.014199972,0.014087051,53,3,190,2,4,-1455.2596,320.36642,-3350.2593,54.65009,255578.55,358.87274,106.4375,106.46983,113.42322,113.42322,23.196556,1,438.24658,0,0,18.0913,18.091297,0,11,255,0,0,0,4,0,72,0
True,1912828,7999.995,1269.8213,6756.117,-0.47003794,-0.52823704,0.69569445,0.008518219,-0.04996284,54.75083,0.0073926533,-1.1722319E-05,-0.009208316,-1.0549948,0.00016596327,-0.00047868144,0.48508382,0.46730143,0.56117254,0.5322057,0.001632307,0.0014415854,0.007900295,0.0083893435,169.22905,169.2264,169.31871,169.32506,0,0,0,0,0,0,0,0,0,0,0,0,-0.0005475789,-0.00042198907,-0.0014303682,-0.0007310984,0.0017217051,0.0015020795,0.008028736,0.00842114,-0.0017600954,-0.0038584173,0.009201258,0.0059140623,53,3,190,2,4,-1459.8844,320.3626,-3347.6362,54.75085,-45208.953,-63.8704,106.49547,106.52987,113.46439,113.46439,13.119555,1,442.4715,0,0,18.18847,18.18847,0,11,255,0,0,0,4,0,72,0
True,1912937,7999.995,1269.8213,6661.2095,-0.20563185,-0.99365324,-0.8892306,0.0010757446,0.023185007,54.61222,0.03250135,0.00025563885,0.008968448,-1.0549741,0.003994943,0.00018847242,0.45418814,0.46739057,0.48104078,0.48221835,-0.001697453,-0.0017168259,-0.008559614,-0.008490875,168.70512,168.70367,168.59625,168.59573,0,0,0,0,0,0,0,0,0,0,0,0,-0.0012062588,-0.0011686339,-0.0013131452,-0.0009934747,0.002082404,0.0020768235,0.008659755,0.008548798,-0.0054057837,-0.003847897,0.000107795,0.00024142861,53,3,190,2,4,-1465.4617,320.3489,-3344.4731,54.61222,-44579.305,-63.8704,106.544334,106.58199,113.4668,113.4668,-7.011671,1,447.5479,0,0,18.305729,18.305727,0,11,255,0,0,0,4,0,72,0
True,1913046,7999.995,1269.8213,6416.625,-1.0946698,-1.9763299,-1.0240629,0.0012874603,0.060019568,54.50773,0.031052995,0.00018148706,-0.01744061,-1.0549444,0.008652536,-0.00047459104,0.43151262,0.4130016,0.42542893,0.42426106,0.0004917438,0.0004832061,0.0010201307,0.0010557994,168.41965,168.41823,168.4285,168.42807,0,0,0,0,0,0,0,0,0,0,0,0,0.0016192986,0.0014225885,0.00026201963,0.003246303,0.0016923179,0.0015024134,0.0010532431,0.0034136777,-0.008081496,-0.010265797,-0.006203115,-0.006335646,53,3,190,2,4,-1470.9047,320.3143,-3341.3867,54.50776,-42951.605,-63.8704,106.59035,106.622375,113.4579,113.4579,-10.331123,1,452.51996,0,0,18.42042,18.420422,0,11,255,0,0,0,4,0,72,0
True,1913171,7999.995,1269.8213,6157.416,-0.008015722,-0.37401548,-0.73268723,0.0053806305,0.06977749,54.40656,0.012575884,-1.5908117E-06,-0.009102495,-1.0549475,0.009261504,-0.001816265,0.496464,0.49757427,0.47349155,0.48145124,0.0054587754,0.0054997965,0.010871713,0.0107203135,168.2414,168.24174,168.3522,168.34981,0,0,0,0,0,0,0,0,0,0,0,0,3.2744443E-05,6.4396976E-05,-6.368402E-05,3.46924E-05,0.0054588737,0.0055001737,0.010871899,0.010720369,-0.0004172325,-0.0002862215,-0.00074890256,0.00015437603,53,3,190,2,4,-1476.2671,320.2656,-3338.3452,54.4066,-29793.209,-46.15822,106.64874,106.68236,113.45621,113.45621,-9.677226,1,457.41888,0,0,18.533634,18.533636,0,11,255,0,0,0,5,0,72,0
True,1913281,7999.995,1269.8213,5468.52,-0.21959265,-2.0252717,-0.15324147,0.0073719025,0.04453242,54.428886,0.01891175,0.00023410027,-0.0036792285,-1.0549425,0.013118839,-0.002940644,0.41832408,0.39652646,0.44713357,0.4270002,0.014644742,0.014189515,0.05042277,0.049713895,168.44781,168.44084,169.04118,169.02576,0,0,0,0,0,0,0,0,0,0,0,0,-0.0008087911,-0.00093657663,-0.0015320295,0.00043063873,0.014667058,0.0142203905,0.050446037,0.04971576,-0.009637743,-0.0122098625,-0.0037400424,-0.0060248077,53,3,190,2,4,-1481.6572,320.20306,-3335.2878,54.428905,54287.562,94.71621,106.694435,106.72854,113.47219,113.47219,-0.6115885,1,462.34348,0,0,18.647535,18.647537,0,11,255,0,0,0,5,0,73,0
True,1913390,7999.995,1269.8213,5461.8765,-0.15331328,-0.6241489,0.022456504,0.004383087,-0.022108287,54.43311,0.0189908,0.00022648966,0.01178933,-1.0549395,0.012940906,-0.0026218514,0.44838858,0.46388727,0.47850993,0.48619807,0.027452638,0.02528883,0.046890125,0.04750191,168.70692,168.67003,169.07625,169.08325,0,0,0,0,0,0,0,0,0,0,0,0,-0.0023317928,-0.0018390336,-0.0019691086,-0.0018565969,0.027551489,0.02535561,0.046931453,0.04753818,-0.0060901344,-0.004261285,-0.00017940998,0.000693053,53,3,190,2,4,-1486.9073,320.12567,-3332.3098,54.43311,135187.42,236.38608,106.75315,106.789696,113.490524,113.490524,3.089633,1,467.1403,0,0,18.758444,18.758448,0,11,255,0,0,0,5,0,73,0
True,1913484,7999.995,1269.8213,5412.0483,-0.106857195,-2.7291524,0.49906603,-0.0017185211,-0.058103472,54.49429,0.057247538,0.000587365,0.005349433,-1.0548991,0.017620333,-0.0015406945,0.38208497,0.39580488,0.4476475,0.46010983,0.041515157,0.0460937,0.10464504,0.101800956,169.06395,169.13312,170.14944,170.11292,0,0,0,0,0,0,0,0,0,0,0,0,-0.0006479978,-0.00026661617,-0.0011206588,0.00046851204,0.04152021,0.04609447,0.10465104,0.101802036,-0.013913959,-0.012295008,-0.0036817193,-0.00226748,53,3,190,2,4,-1491.2218,320.0473,-3329.863,54.49432,192155.69,339.09937,106.78269,106.819626,113.51037,113.51037,9.277932,1,471.08237,0,0,18.849531,18.849535,0,11,255,0,0,0,5,0,74,0
True,1913609,7999.995,1269.8213,5432.172,0.28170323,-2.707248,1.729408,-0.007854462,-0.1356704,54.66642,0.03045202,0.000638404,0.017647877,-1.0548315,0.023035787,-0.0002542511,0.34231225,0.3766544,0.40548176,0.42419225,0.046745144,0.04830732,0.10401372,0.10242239,169.74367,169.79149,170.76038,170.73268,0,0,0,0,0,0,0,0,0,0,0,0,-0.00090783165,-0.00064857164,-0.003700276,0.0014219059,0.046753958,0.048311673,0.10407952,0.10243225,-0.01860714,-0.014554769,-0.00846675,-0.006343454,53,3,190,2,4,-1497.6404,319.88113,-3326.2231,54.66659,235905.17,414.7355,106.84277,106.8822,113.551834,113.551834,20.45345,1,476.9475,0,0,18.984766,18.98477,0,11,255,0,0,0,5,0,74,0
True,1913703,7999.995,1269.8213,5450.8076,0.2376765,-2.6756427,1.4097675,-0.009403229,-0.17356005,54.78105,0.04671798,0.00033011762,-0.0039449465,-1.054789,0.026488598,-4.2328606E-06,0.31137037,0.33265984,0.40614825,0.4276423,0.04926062,0.049632493,0.12764391,0.12225969,170.10951,170.10176,171.46349,171.41054,0,0,0,0,0,0,0,0,0,0,0,0,0.0020560862,0.0022457342,-0.00080501195,0.0038497353,0.04930351,0.049683273,0.12764645,0.12232029,-0.022258282,-0.019746125,-0.008391112,-0.005951941,53,3,190,2,4,-1501.2616,319.76627,-3324.17,54.781326,243947.1,427.44006,106.87714,106.91147,113.57962,113.57962,22.341278,1,480.25677,0,0,19.060862,19.06087,0,11,255,0,0,0,5,0,74,0
True,1913828,7999.995,1269.8213,5464.7876,0.07126224,-2.584782,1.4685163,-0.0077228546,-0.22785318,54.96755,0.05122246,0.00038425735,0.0013881922,-1.0547261,0.03099794,-0.00016257074,0.2989375,0.2947172,0.42172208,0.4120585,0.057667762,0.055298034,0.106138416,0.112639874,170.83603,170.78871,171.71094,171.81061,0,0,0,0,0,0,0,0,0,0,0,0,0.0009868612,0.0012056719,-0.0009809908,0.0040866705,0.057676207,0.055311177,0.106142946,0.11271398,-0.02372536,-0.024223357,-0.0066237748,-0.007720411,53,3,190,2,4,-1506.6627,319.56467,-3321.107,54.968025,247151.42,431.9324,106.92944,106.964554,113.623505,113.623505,23.045418,1,485.1933,0,0,19.17407,19.174078,0,11,255,0,0,0,5,0,75,0
True,1913921,7999.995,1269.8213,5503.719,-0.19930276,-4.213229,1.5835291,-0.007686615,-0.26049107,55.159863,0.08488229,0.00012950378,0.014566755,-1.054709,0.040567435,0.000805242,0.21809213,0.22796908,0.3846159,0.38569397,0.07575045,0.0709301,0.1634892,0.16543877,171.64304,171.56453,173.15395,173.17961,0,0,0,0,0,0,0,0,0,0,0,0,-0.0002161257,-0.00025861885,-0.005202351,0.004833803,0.07575075,0.07093057,0.16357194,0.16550937,-0.033265114,-0.032099634,-0.010834634,-0.010712296,53,3,190,2,4,-1512.2482,319.30722,-3317.9387,55.160477,248725.17,431.55,106.9682,107.00475,113.66584,113.66584,23.171257,1,490.29922,0,0,19.29078,19.290785,0,11,255,0,0,0,5,0,75,0
