IsRaceOn,TimestampMS,EngineMaxRpm,EngineIdleRpm,CurrentEngineRpm,AccelerationX,AccelerationY,AccelerationZ,VelocityX,VelocityY,VelocityZ,AngularVelocityX,AngularVelocityY,AngularVelocityZ,Yaw,Pitch,Roll,NormalizedSuspensionTravelFrontLeft,NormalizedSuspensionTravelFrontRight,NormalizedSuspensionTravelRearLeft,NormalizedSuspensionTravelRearRight,TireSlipRatioFrontLeft,TireSlipRatioFrontRight,TireSlipRatioRearLeft,TireSlipRatioRearRight,WheelRotationSpeedFrontLeft,WheelRotationSpeedFrontRight,WheelRotationSpeedRearLeft,WheelRotationSpeedRearRight,WheelOnRumbleStripFrontLeft,WheelOnRumbleStripFrontRight,WheelOnRumbleStripRearLeft,WheelOnRumbleStripRearRight,WheelInPuddleDepthFrontLeft,WheelInPuddleDepthFrontRight,WheelInPuddleDepthRearLeft,WheelInPuddleDepthRearRight,SurfaceRumbleFrontLeft,SurfaceRumbleFrontRight,SurfaceRumbleRearLeft,SurfaceRumbleRearRight,TireSlipAngleFrontLeft,TireSlipAngleFrontRight,TireSlipAngleRearLeft,TireSlipAngleRearRight,TireCombinedSlipFrontLeft,TireCombinedSlipFrontRight,TireCombinedSlipRearLeft,TireCombinedSlipRearRight,SuspensionTravelMetersFrontLeft,SuspensionTravelMetersFrontRight,SuspensionTravelMetersRearLeft,SuspensionTravelMetersRearRight,CarOrdinal,CarClass,CarPerformanceIndex,DrivetrainType,NumCylinders,PositionX,PositionY,PositionZ,Speed,Power,Torque,TireTempFl,TireTempFr,TireTempRl,TireTempRr,Boost,Fuel,Distance,BestLapTime,LastLapTime,CurrentLapTime,CurrentRaceTime,Lap,RacePosition,Accelerator,Brake,Clutch,Handbrake,Gear,Steer,NormalDrivingLine,NormalAiBrakeDifference
True,2374093,7999.995,1269.8213,1269.8784,0.33132616,0.0014835608,0.11453218,-0.006050973,0.0003069209,-0.0020156242,-5.1226234E-06,0.001630068,-0.001505934,1.8922895,0.0010890904,0.00028584062,0.51460326,0.49141404,0.48123854,0.4784755,0.0003584873,0.0003612274,-0.024647953,-0.0028216187,-0.0062297145,-0.0062297145,-0.0062297145,-0.0062297145,0,0,0,0,0,0,0,0,0,0,0,0,0.015733382,0.017706335,-0.006792099,0.005563787,0.015737467,0.017710019,0.025566662,0.00623837,0.0017232001,-0.00101313,0.00013023615,-0.00018331409,53,3,190,2,4,-7168.354,431.50143,-1792.6267,0.0063852347,-0.102562994,-0.00077125843,136.5849,136.98074,130.63242,130.63242,-11.024998,1,0,0,0,0,230.6976,0,0,0,0,0,255,1,-127,0,0
True,2396578,7999.995,1269.8213,1771.3708,0.035455346,-0.007857224,-0.32131773,0.0026852614,-0.0008593893,-0.04376428,0.0032643687,-4.736136E-05,-0.004477415,0.108733356,-0.048705086,-0.05365963,0.4828908,0.50413054,0.47923395,0.49115342,0.0011556587,0.0009864148,0.0015970587,0.001481739,-0.14141613,-0.1409474,-0.14190534,-0.14167874,0,0,0,0,0,0,0,0,0,0,0,0,-0.01286908,-0.012720742,-0.010719487,-0.008849333,0.012920865,0.01275893,0.0108378045,0.008972527,-0.002018869,0.00048741698,-9.724498E-05,0.001255393,53,3,190,2,4,-7188.8784,126.01792,-1892.0636,0.043855,44557.84,243.21391,113.746925,113.84046,117.707855,117.707855,-11.024998,1,-85.19601,0,0,0.103729464,0.10372947,0,8,255,0,0,0,1,0,53,0
True,2396687,7999.995,1269.8213,2857.349,0.12740645,0.005525818,-0.4055813,0.005240447,-0.0012060571,-0.08052592,0.0024104854,2.4736742E-05,-0.008568681,0.10871926,-0.0484505,-0.054254472,0.48302898,0.50966644,0.47423527,0.49133727,0.0011479037,0.0009419063,0.00163433,0.0014570367,-0.253304,-0.25321117,-0.25333154,-0.25336498,0,0,0,0,0,0,0,0,0,0,0,0,-0.013408873,-0.01309799,-0.011103338,-0.009142188,0.013457918,0.013131814,0.0112229735,0.009257568,-0.002002567,0.0011406541,-0.0006645024,0.0012762547,53,3,190,2,4,-7188.879,126.01755,-1892.0691,0.08070526,133288.03,451.91055,113.70638,113.79999,117.662445,117.662445,-9.436427,1,-85.2012,0,0,0.19070686,0.19070688,0,8,255,0,0,0,1,0,53,0
True,2396796,7999.995,1269.8213,4617.7666,0.1181189,0.007000627,-0.19861759,0.004390773,-0.00079897186,-0.09914264,-0.0039383904,-7.681374E-06,-0.007262354,0.10871506,-0.048326045,-0.0552411,0.48022476,0.5170784,0.46793324,0.4954903,0.028161,0.024513362,0.09537555,0.08478084,-0.25166857,-0.2581419,-0.13427523,-0.15271696,0,0,0,0,0,0,0,0,0,0,0,0,-0.014971202,-0.014418136,-0.012181229,-0.010077135,0.031893242,0.02843919,0.09615029,0.08537763,-0.0023334622,0.0020152628,-0.0013796687,0.0017475486,53,3,190,2,4,-7188.8794,126.01682,-1892.0806,0.099243045,228061.55,474.94983,113.65459,113.748344,117.604706,117.604706,0.54396343,1,-85.21198,0,0,0.3034206,0.3034206,0,8,255,0,0,0,1,0,53,0
True,2396906,7999.995,1269.8213,4576.4863,-0.2514066,-0.1952444,7.420588,0.011578679,-0.020414032,0.90529054,-0.09198433,-0.010698978,0.0038452959,0.10874174,-0.054985445,-0.05552511,0.44153354,0.48165956,0.53035474,0.5758881,0.381935,0.5255578,7.3296175,5.795086,3.7553892,3.446165,18.04492,15.670715,0,0,0,0,0,0,0,0,0,0,0,0,-0.03148017,-0.031829465,-0.22261687,-0.21758656,0.38323015,0.5265208,7.3329973,5.799169,-0.006899029,-0.0021641552,0.0057040155,0.010871202,53,3,190,2,4,-7188.874,126.01798,-1892.0402,0.90559465,197663.25,410.98895,113.691086,113.79064,119.97418,119.97418,16.873768,1,-85.173706,0,0,0.43404645,0.4340465,0,8,255,0,0,0,1,0,53,0
True,2397015,7999.995,1269.8213,4104.3745,0.07534242,0.06238854,10.995062,0.020316377,-0.016208544,2.105812,-0.061915126,-0.007870719,-0.013148595,0.107789785,-0.06355164,-0.05501036,0.38974592,0.43443754,0.67368394,0.6913792,0.46276134,0.29456234,5.8126082,6.3728786,7.4780006,7.2048607,18.633024,19.568483,0,0,0,0,0,0,0,0,0,0,0,0,-0.020041993,-0.017100032,-0.11630905,-0.096126854,0.46319515,0.29505828,5.8137717,6.3736033,-0.013009965,-0.007736355,0.021969214,0.023977295,53,3,190,2,4,-7188.856,126.02547,-1891.8845,2.1059723,196680.88,456.9002,113.814606,113.8995,129.27432,129.27432,21.891655,1,-85.02637,0,0,0.53719383,0.53719395,0,8,255,0,0,0,1,0,53,0
True,2397109,7999.995,1269.8213,4024.999,-0.10671282,0.019364476,10.736453,0.013346672,-0.021171033,2.832162,-0.029941117,-0.01475884,0.012014498,0.10736227,-0.06662774,-0.055305667,0.35969812,0.41531253,0.6867273,0.76174587,0.36919498,0.03732783,3.1036577,1.6178942,9.12836,10.121508,14.481027,11.772448,0,0,0,0,0,0,0,0,0,0,0,0,-0.016800465,-0.014833567,-0.15909636,-0.114500105,0.36957705,0.04016717,3.1077328,1.6219407,-0.016555607,-0.009993106,0.023449391,0.031962603,53,3,190,2,4,-7188.8364,126.035034,-1891.7183,2.8322723,196116.16,465.12552,113.88496,113.955315,135.0924,135.0924,22.731766,1,-84.86888,0,0,0.6047053,0.6047054,0,8,255,0,0,0,1,0,53,0
True,2397234,7999.995,1269.8213,3923.7004,-0.030059159,-0.21503553,9.827155,0.0049113333,-0.050379574,4.1224914,0.0038293202,-0.00082338403,0.0051566297,0.10700121,-0.06751363,-0.054377723,0.32500166,0.37327763,0.6899745,0.7386416,0.0703546,0.66760266,0.6288398,0.5207683,13.860695,12.658858,14.0356455,13.796007,0,0,0,0,0,0,0,0,0,0,0,0,-0.022147873,-0.020559516,-0.02752607,0.0053922324,0.07375838,0.66791916,0.629442,0.52079624,-0.02064979,-0.014953226,0.023817882,0.0293407,53,3,190,2,4,-7188.788,126.06122,-1891.2684,4.1228013,193106.02,469.55692,113.97889,114.07687,135.86798,135.86798,23.132679,1,-84.443214,0,0,0.73439646,0.7343966,0,8,255,0,0,0,1,0,53,0
True,2397343,7999.995,1269.8213,3734.1802,1.0812018,-0.19586807,9.557867,0.0069465637,-0.08238688,5.294851,0.0016855383,-0.00074662187,0.005871251,0.10698138,-0.06719681,-0.053790476,0.30622745,0.35975698,0.67819613,0.7219283,0.097664475,0.8038311,0.6738315,0.55772924,17.423815,16.532349,17.747583,17.511772,0,0,0,0,0,0,0,0,0,0,0,0,-0.02139361,-0.019983498,-0.027072007,0.001525904,0.099980175,0.8040795,0.6743751,0.55773133,-0.022865146,-0.016548663,0.022481263,0.02744405,53,3,190,2,4,-7188.7305,126.08967,-1890.736,5.295496,184849.42,472.14255,114.076385,114.19011,135.10826,135.10826,23.185371,1,-83.939445,0,0,0.848023,0.848023,0,8,255,0,0,0,1,0,53,0
True,2397453,7999.995,1269.8213,3547.2437,0.79713506,-0.17286187,9.653803,0.0070831776,-0.10771406,6.431344,0.004110923,0.0012664129,0.008438392,0.107022196,-0.06694048,-0.052998506,0.29199028,0.35419834,0.6800313,0.71689075,0.123027705,-0.017280383,0.6135642,0.5419275,20.811594,21.44442,21.231478,21.082972,0,0,0,0,0,0,0,0,0,0,0,0,-0.019923434,-0.018614877,-0.027755963,-3.3817214E-05,0.124630496,0.025399316,0.61419165,0.5419275,-0.024545133,-0.017204583,0.022689521,0.026872382,53,3,190,2,4,-7188.6616,126.12247,-1890.0935,6.43225,176198.77,473.7557,114.164474,114.31309,134.44048,134.44048,23.194515,1,-83.33174,0,0,0.95805675,0.95805675,0,8,255,0,0,0,1,0,53,0
True,2397578,7999.995,1269.8213,3123.4282,0.12836117,-0.20170629,9.698591,0.0069423914,-0.12623131,7.479944,0.012348907,0.0020063776,0.012434613,0.10711978,-0.06636412,-0.051908657,0.2831718,0.34634492,0.68610847,0.7122931,0.32082635,-0.040589035,1.0839883,1.0024835,23.32267,24.757847,25.424004,25.232973,0,0,0,0,0,0,0,0,0,0,0,0,-0.019434717,-0.018236881,-0.028465245,-0.00082001375,0.32141447,0.04449779,1.084362,1.0024838,-0.025585711,-0.018131286,0.023379162,0.026350632,53,3,190,2,4,-7188.5835,126.158844,-1889.3679,7.481013,128154.99,391.02094,114.228546,114.40875,133.8544,133.8544,23.196178,1,-82.6454,0,0,1.0626714,1.0626714,0,8,255,0,0,0,1,0,53,0
True,2397687,7999.995,1269.8213,3317.9282,-0.32439104,-0.23806623,7.76783,0.0070605874,-0.1322684,8.322033,0.034036763,0.0017651459,0.007646422,0.10711553,-0.0637866,-0.050858676,0.29050016,0.342212,0.6771509,0.69192135,0.4149064,-0.023391623,0.34622875,0.3330857,25.606928,26.825272,26.612951,26.616638,0,0,0,0,0,0,0,0,0,0,0,0,-0.0132582905,-0.012274952,-0.024376582,-0.00032010287,0.41511822,0.026416708,0.3470858,0.33308583,-0.024720967,-0.018618971,0.02236265,0.024038821,53,3,190,2,4,-7188.492,126.200516,-1888.518,8.323088,164609.11,474.8262,114.28188,114.4774,133.29234,133.29234,23.196514,1,-81.84147,0,0,1.170537,1.1705369,0,8,255,0,0,0,1,0,53,0
True,2397781,7999.995,1269.8213,3626.1013,-0.014079273,-0.15872121,7.5402822,0.0076196194,-0.12133205,9.089665,0.02677903,-0.0005947469,0.010155508,0.107012905,-0.06052003,-0.049979486,0.31441247,0.35934174,0.6363967,0.6658494,-0.021874147,0.4141781,0.34314844,0.3386198,29.26261,27.977694,29.133163,29.06697,0,0,0,0,0,0,0,0,0,0,0,0,-0.01619292,-0.015224735,-0.017815448,-0.0017452277,0.027215602,0.41445783,0.34361058,0.3386243,-0.021899313,-0.016597658,0.017737806,0.021080136,53,3,190,2,4,-7188.396,126.24315,-1887.624,9.090478,179355.53,473.3718,114.333435,114.53577,132.6879,132.6879,23.196556,1,-80.996,0,0,1.2737926,1.2737925,0,8,255,0,0,0,1,0,53,0
True,2397890,7999.995,1269.8213,3967.2795,-0.074560165,-0.09316465,7.26705,0.006013751,-0.10907906,9.946152,0.015270344,0.0018288854,0.012992903,0.10697412,-0.058092013,-0.048513584,0.3342967,0.37001276,0.6058416,0.63532054,0.26350772,-0.018146528,0.36205804,0.34876844,30.866255,31.755907,31.855017,31.822798,0,0,0,0,0,0,0,0,0,0,0,0,-0.013910663,-0.013077012,-0.015877604,-0.005963689,0.26387465,0.022367492,0.36240602,0.34881943,-0.019552976,-0.0153384805,0.014270365,0.017615676,53,3,190,2,4,-7188.276,126.29617,-1886.507,9.946752,194733.6,469.5943,114.38147,114.59022,132.05948,132.05948,23.196556,1,-79.93953,0,0,1.3918065,1.3918064,0,8,255,0,0,0,1,0,53,0
True,2398015,7999.995,1269.8213,4255.6196,-0.1798231,-0.11186811,6.975028,0.006397009,-0.110075235,10.672263,0.006999103,0.0022580754,0.011629964,0.10709079,-0.05699343,-0.047235735,0.34113455,0.37051862,0.5925796,0.6098016,0.19766617,0.05981073,0.34764847,0.3400804,33.310734,33.72207,34.196507,34.16968,0,0,0,0,0,0,0,0,0,0,0,0,-0.0136714885,-0.012896761,-0.012417387,-0.0053924355,0.19813839,0.061185375,0.34787017,0.34012315,-0.018746108,-0.015278786,0.012765378,0.014719754,53,3,190,2,4,-7188.1626,126.345856,-1885.4546,10.672832,206838.28,464.9147,114.405304,114.61534,131.5609,131.5609,23.196556,1,-78.94423,0,0,1.4944887,1.4944886,0,8,255,0,0,0,1,0,53,0
True,2398125,7999.995,1269.8213,4548.023,-0.4092755,-0.13368851,7.756938,0.006739974,-0.11635667,11.412018,0.0012073598,0.0023208647,0.012883809,0.10729469,-0.056571238,-0.046019044,0.34322172,0.38782266,0.5901278,0.5992485,0.14345703,0.12872566,0.32968482,0.3301861,35.81582,35.759743,36.549957,36.540695,0,0,0,0,0,0,0,0,0,0,0,0,-0.014341051,-0.01343404,-0.011589379,-0.005240212,0.14417206,0.12942477,0.32988846,0.3302277,-0.018499821,-0.01323691,0.012487143,0.013522178,53,3,190,2,4,-7188.0376,126.40017,-1884.2927,11.412613,218208.11,458.84143,114.42854,114.63651,131.08821,131.08821,23.196556,1,-77.845406,0,0,1.6003243,1.600324,0,8,255,0,0,0,1,0,53,0
True,2398234,7999.995,1269.8213,4840.04,-0.46258157,-0.084620446,6.723907,0.0054979324,-0.12387949,12.150374,-0.0031784861,0.0027301018,0.014289859,0.10757617,-0.056675743,-0.04451294,0.34885612,0.40114608,0.59327084,0.5944534,0.1401546,0.12610623,0.3180143,0.32589948,38.13065,38.067726,38.879047,38.89296,0,0,0,0,0,0,0,0,0,0,0,0,-0.013594894,-0.012654574,-0.010499513,-0.004093984,0.14081241,0.12673958,0.31818756,0.3259252,-0.017834961,-0.011664748,0.0128438175,0.012978017,53,3,190,2,4,-7187.902,126.458885,-1883.0355,12.151007,228588.03,451.61658,114.45244,114.6575,130.64734,130.64734,23.196556,1,-76.65637,0,0,1.7076812,1.707681,0,8,255,0,0,0,1,0,53,0
True,2398343,7999.995,1269.8213,5112.869,-0.0029271245,0.0027187765,6.722791,0.00726521,-0.13069147,12.842183,-0.007869461,0.0025866968,0.010788577,0.10787746,-0.057251856,-0.043267235,0.37033856,0.40943214,0.59524333,0.6082382,0.13282476,0.12517302,0.31448767,0.31215793,40.282303,40.240597,41.084213,41.059166,0,0,0,0,0,0,0,0,0,0,0,0,-0.0124416435,-0.011513055,-0.010219873,-0.0028462028,0.13340619,0.12570137,0.31465366,0.3121709,-0.0153000355,-0.010686994,0.013067663,0.014542341,53,3,190,2,4,-7187.764,126.51867,-1881.7642,12.842851,237508.08,444.22983,114.47486,114.67755,130.26218,130.26218,23.196556,1,-75.45389,0,0,1.8100406,1.8100405,0,8,255,0,0,0,1,0,53,0
True,2398453,7999.995,1269.8213,5435.763,0.002461493,0.052867442,6.6174617,0.0108703375,-0.13725537,13.663155,-0.009459297,0.0019698432,0.0056357766,0.10820739,-0.058378875,-0.042197146,0.39599305,0.4109907,0.600985,0.6319348,0.12566777,0.12706898,0.3120076,0.2957157,42.82658,42.82236,43.69301,43.62053,0,0,0,0,0,0,0,0,0,0,0,0,-0.011682013,-0.010717042,-0.011293712,-0.0017051994,0.12620957,0.12752011,0.31221193,0.2957206,-0.012272805,-0.0105030835,0.013719231,0.017231464,53,3,190,2,4,-7187.5864,126.597176,-1880.1295,13.663849,246814.06,434.09576,114.5009,114.70236,129.83926,129.83926,23.196556,1,-73.907646,0,0,1.9341538,1.9341538,0,8,255,0,0,0,1,0,53,0
True,2398562,7999.995,1269.8213,5706.5415,0.63883084,0.030374944,6.45453,0.05705893,-0.14411712,14.354674,-0.0034079936,0.02368887,0.009652559,0.10905111,-0.059082437,-0.041557286,0.40816605,0.40617737,0.6203389,0.6385494,0.11816161,0.13559178,0.29330093,0.30106747,45.004726,44.95843,45.86074,45.78182,0,0,0,0,0,0,0,0,0,0,0,0,0.045305006,0.04774141,-0.021267388,-0.010173332,0.12654924,0.14375107,0.29407096,0.3012393,-0.010836393,-0.011071056,0.015915543,0.017982095,53,3,190,2,4,-7187.4224,126.670204,-1878.64,14.355512,253885.4,425.328,114.52479,114.72618,129.51,129.51,23.196556,1,-72.49841,0,0,2.0411708,2.0411708,0,8,255,0,0,0,1,8,53,0
True,2398687,7999.995,1269.8213,5965.9136,0.15512407,-0.025732964,6.3352056,0.023786426,-0.14676934,15.017816,0.0038117429,0.012095427,-0.0069371583,0.111248225,-0.058917567,-0.04216634,0.41164887,0.4011357,0.62941,0.63829285,0.12518694,0.12028573,0.29703283,0.2906304,47.065033,46.983765,47.9465,47.862797,0,0,0,0,0,0,0,0,0,0,0,0,-0.021489669,-0.020273414,-0.0058367327,0.0060563553,0.127018,0.12198224,0.29709017,0.2906935,-0.010425419,-0.01166597,0.016944945,0.017952979,53,3,190,2,4,-7187.249,126.74576,-1877.11,15.018553,260054.86,416.702,114.548645,114.75023,129.21503,129.21503,23.196556,1,-71.05035,0,0,2.1460662,2.146066,0,8,255,0,0,0,1,0,53,0
True,2398796,7999.995,1269.8213,6255.2354,-0.1464858,-0.0623731,6.091432,0.018745065,-0.14636463,15.761892,0.0034614466,0.0045558577,-0.0016451904,0.112101264,-0.05836535,-0.04281707,0.39411095,0.40603417,0.6300445,0.63101935,0.12033653,0.11053009,0.2848482,0.28330207,49.351097,49.28345,50.23655,50.208477,0,0,0,0,0,0,0,0,0,0,0,0,-0.014041721,-0.012922682,-0.011749929,-0.00053814676,0.12115301,0.11128296,0.28509045,0.28330258,-0.012494892,-0.011087954,0.017016947,0.017127573,53,3,190,2,4,-7187.0386,126.837685,-1875.2496,15.762583,260472.06,397.99307,114.5738,114.774124,128.90776,128.90776,23.196556,1,-69.28966,0,0,2.267778,2.267778,0,8,255,0,0,0,1,0,53,0
True,2398921,7999.995,1269.8213,6523.7627,0.16765654,-0.025811434,5.8151765,0.014770627,-0.14712715,16.459442,0.0014638263,0.0037785778,0.003895482,0.112574086,-0.05811548,-0.042612683,0.36865827,0.39348662,0.6230557,0.6197186,0.11446753,0.10415645,0.26736555,0.26996657,51.50512,51.43748,52.36675,52.3586,0,0,0,0,0,0,0,0,0,0,0,0,-0.012421624,-0.011549749,-0.011091543,-0.0017274644,0.11513954,0.10479486,0.2675955,0.26997212,-0.01549831,-0.012568563,0.016223848,0.01584515,53,3,190,2,4,-7186.8203,126.93277,-1873.3263,16.460106,258759.77,379.07175,114.59677,114.79549,128.63368,128.63368,23.196556,1,-67.46892,0,0,2.3879893,2.387989,0,8,255,0,0,0,1,0,53,0
True,2399015,7999.995,1269.8213,6669.7744,0.09536773,-0.027723819,5.6451397,0.012942076,-0.14672351,16.840742,0.0026556808,0.0033213785,0.009288148,0.11281232,-0.057973158,-0.042179927,0.36351457,0.38724026,0.5984967,0.61713916,0.10943014,0.102653995,0.26354596,0.2572286,52.66864,52.61986,53.549435,53.501858,0,0,0,0,0,0,0,0,0,0,0,0,-0.012565665,-0.011827167,-0.010762778,-0.0029353,0.11014923,0.10333307,0.26376563,0.25724536,-0.016105264,-0.013305634,0.013436854,0.015552431,53,3,190,2,4,-7186.6914,126.98892,-1872.193,16.841387,257288.81,368.6501,114.608986,114.80698,128.48923,128.48923,23.196556,1,-66.39625,0,0,2.4565449,2.4565446,0,8,255,0,0,0,1,0,53,0
True,2399140,7999.995,1269.8213,6653.756,0.8870337,-0.07637402,2.8041427,0.099853754,-0.12876892,17.252106,0.04269688,0.043739002,0.050444186,0.114038594,-0.05636434,-0.039854363,0.36886787,0.4113943,0.5667167,0.5698258,-0.009049813,-0.0076152715,-0.02149476,-0.022993226,53.299107,53.08257,53.22172,52.995594,0,0,0,0,0,0,0,0,0,0,0,0,0.18343623,0.19470605,-0.033242512,-0.030604498,0.18365934,0.19485492,0.03958648,0.03827955,-0.015473574,-0.010455459,0.009830415,0.010183245,53,3,190,2,4,-7186.4478,127.093994,-1870.0703,17.252874,-44519.742,-63.8704,114.62912,114.8257,128.21968,128.21968,4.2204523,1,-64.386894,0,0,2.5813756,2.581375,0,8,255,0,0,0,1,47,52,0
True,2399250,7999.995,1269.8213,6475.262,0.9037858,-0.1678356,-0.76542914,0.11561489,-0.03083831,17.097227,0.05060015,0.1434606,-0.033898257,0.13058501,-0.048828967,-0.034976684,0.48671636,0.46246132,0.52097875,0.48087507,0.0026090688,-0.0011710017,0.0026622957,0.00021755496,53.113773,52.395615,53.109165,52.407757,0,0,0,0,0,0,0,0,0,0,0,0,-0.14270586,-0.13976894,0.07071804,0.07046636,0.14272971,0.13977385,0.07076814,0.0704667,-0.0015674531,-0.004429549,0.004640013,8.8989735E-05,53,3,190,2,4,-7186.168,127.19375,-1867.9896,17.097645,-43349.348,-63.8704,114.73799,114.91835,127.89635,127.89635,-8.68417,1,-62.413334,0,0,2.7038329,2.703832,0,8,255,0,0,0,1,0,51,0
True,2399359,7999.995,1269.8213,6252.7803,0.7405616,-0.060568813,-0.5409513,-0.006486416,0.027713954,17.02839,0.023763102,0.04241778,0.0050709434,0.13893384,-0.04481284,-0.03638501,0.521648,0.51562613,0.49044645,0.48654684,0.0012752669,0.0001585476,0.0013269159,0.0006100814,52.69713,52.484756,52.69563,52.48869,0,0,0,0,0,0,0,0,0,0,0,0,-0.023463935,-0.023572844,0.040187236,0.040272422,0.023498565,0.023573378,0.040209137,0.04027704,0.0025544763,0.0018438995,0.0011751652,0.0007326305,53,3,190,2,4,-7185.928,127.27533,-1866.2566,17.028414,-41857.605,-63.8704,114.74843,114.93222,127.65039,127.65039,-10.538109,1,-60.76893,0,0,2.806482,2.806481,0,8,255,0,0,0,1,0,50,0
True,2399468,7999.995,1269.8213,5977.537,0.2567769,-0.067129724,-0.4658666,0.00015211105,0.045912564,16.983734,0.0033897539,0.011823292,0.007141254,0.14129092,-0.0432974,-0.03580814,0.5038118,0.5247469,0.49985975,0.4886021,0.021484982,0.02063956,0.063635245,0.06918863,52.649773,52.58796,52.900314,52.872673,0,0,0,0,0,0,0,0,0,0,0,0,-0.009194319,-0.009458873,0.008597861,0.008284715,0.023369638,0.022703782,0.064213455,0.06968288,0.00044980645,0.0029201508,0.0022433996,0.00096586347,53,3,190,2,4,-7185.6865,127.35545,-1864.5419,16.983795,-21139.95,-33.696785,114.729866,114.91356,127.41136,127.41136,-7.6324944,1,-59.14149,0,0,2.9084785,2.9084773,0,8,255,0,0,0,2,0,49,0
True,2399562,7999.995,1269.8213,5225.8833,0.27992442,-0.047297202,2.1733315,0.0076749325,0.02268362,17.218336,-0.031633157,0.004655822,0.003942088,0.14195915,-0.044454083,-0.035392843,0.47882256,0.49509132,0.5103973,0.50464386,0.08742147,0.08299175,0.24125192,0.24614307,53.805496,53.760227,54.705994,54.705086,0,0,0,0,0,0,0,0,0,0,0,0,-0.007974547,-0.008191373,-0.0009839935,-0.001507241,0.08778443,0.08339502,0.24125393,0.24614769,-0.0024989247,-0.00057920814,0.0034392178,0.0027863085,53,3,190,2,4,-7185.4814,127.42188,-1863.1094,17.218351,40733.613,74.01832,114.724365,114.908356,127.262405,127.262405,-1.145091,1,-57.7816,0,0,2.9933057,2.9933045,0,8,255,0,0,0,2,0,48,0
True,2399671,7999.995,1269.8213,4264.3203,0.09055567,-0.021448806,3.9068549,0.009840488,-0.062900245,17.717306,-0.03179635,0.002772641,0.0063708313,0.14249033,-0.04924459,-0.034813043,0.43051854,0.44850147,0.538549,0.5490561,0.047556255,0.045747593,0.10985369,0.10877591,55.106003,55.08268,55.478897,55.460663,0,0,0,0,0,0,0,0,0,0,0,0,-0.008895607,-0.0085796835,-0.005040948,-0.0040867687,0.048381086,0.046545174,0.10996929,0.108852655,-0.008198798,-0.0060768127,0.0066339076,0.007826269,53,3,190,2,4,-7185.2144,127.50764,-1861.2496,17.717419,100496.5,225.06664,114.73917,114.922646,127.15378,127.15378,1.754796,1,-56.016075,0,0,3.1007028,3.1007018,0,8,255,0,0,0,2,0,46,0
True,2399796,7999.995,1269.8213,4292.2,-0.09102675,0.14981861,2.935798,0.007183552,-0.075042725,18.084036,-0.014361133,0.0023997114,0.009689964,0.14289087,-0.05121962,-0.03364357,0.4409077,0.4737521,0.53914773,0.53777504,0.06564076,0.06159158,0.17144124,0.17488268,56.32815,56.2951,56.968887,56.974827,0,0,0,0,0,0,0,0,0,0,0,0,-0.008152835,-0.00766441,-0.00510535,-0.0044177743,0.06614513,0.062066626,0.17151724,0.17493847,-0.006972879,-0.0030972362,0.006701857,0.00654608,53,3,190,2,4,-7184.8833,127.615295,-1858.9506,18.084192,160549.7,357.38998,114.73632,114.92029,126.98204,126.98204,8.576627,1,-53.8333,0,0,3.2306914,3.2306905,0,8,255,0,0,0,2,0,45,0
True,2399906,7999.995,1269.8213,4398.291,0.30091453,0.289233,3.6180236,0.0060372353,-0.08512765,18.486433,-0.026120879,0.0018080885,0.012263315,0.14319532,-0.053569842,-0.032428317,0.4690441,0.49334183,0.5563863,0.57658297,0.07667445,0.074468404,0.19574931,0.19296148,57.67056,57.64975,58.410225,58.38699,0,0,0,0,0,0,0,0,0,0,0,0,-0.008029758,-0.0073547475,-0.0064254957,-0.0031656018,0.07709376,0.07483071,0.19585474,0.19298746,-0.0036527812,-0.0007856488,0.008658111,0.010950059,53,3,190,2,4,-7184.6006,127.71038,-1856.992,18.48663,190858.45,414.63718,114.74231,114.926346,126.87743,126.87743,16.80537,1,-51.973522,0,0,3.3390439,3.339043,0,8,255,0,0,0,2,0,43,0
True,2400015,7999.995,1269.8213,4511.391,0.19915521,0.20638746,4.280804,0.006489277,-0.10447192,18.942411,-0.012732342,0.0018189442,0.011222007,0.14345247,-0.05582761,-0.0313097,0.4545834,0.490797,0.5990358,0.6104177,0.090998836,0.08598501,0.20868242,0.20778626,59.152245,59.11509,59.910416,59.89807,0,0,0,0,0,0,0,0,0,0,0,0,-0.008031244,-0.0069221393,-0.008134035,-0.001346196,0.09135255,0.086263195,0.20884088,0.20779061,-0.005359143,-0.001085937,0.013498038,0.014789671,53,3,190,2,4,-7184.3184,127.80865,-1855.0394,18.942701,212438.58,449.95752,114.753204,114.93698,126.802666,126.802666,21.901611,1,-50.119358,0,0,3.4445791,3.4445782,0,8,255,0,0,0,2,0,42,0
True,2400125,7999.995,1269.8213,4607.876,-0.21050382,-0.0733539,4.378899,0.0054063797,-0.11859262,19.346855,0.00911322,0.0024411976,0.011494824,0.14364758,-0.055952836,-0.030225271,0.4143409,0.4559235,0.619045,0.62223923,0.09652129,0.09039173,0.21465857,0.21855722,60.40622,60.36008,61.18712,61.196766,0,0,0,0,0,0,0,0,0,0,0,0,-0.007830971,-0.006714738,-0.0081097,0.00011921475,0.09683844,0.09064079,0.2148117,0.21855725,-0.010107756,-0.005201012,0.015768707,0.016131192,53,3,190,2,4,-7184.074,127.894394,-1853.3501,19.347218,219386.3,454.92487,114.764435,114.94795,126.754654,126.754654,22.865883,1,-48.515076,0,0,3.5338256,3.5338244,0,8,255,0,0,0,2,0,40,0
True,2400234,7999.995,1269.8213,4747.895,0.12663603,-0.34832907,4.5161633,0.004364252,-0.123912334,19.92585,0.017875707,0.0022230064,0.016671443,0.14388509,-0.053729527,-0.028505718,0.3906006,0.4373213,0.5704104,0.59660584,0.09180502,0.08730098,0.22856355,0.22995038,62.168194,62.132,63.08135,63.079586,0,0,0,0,0,0,0,0,0,0,0,0,-0.0082667535,-0.007408841,-0.007002049,-0.0019623959,0.09217647,0.08761479,0.22867078,0.22995876,-0.012909114,-0.007396072,0.010249585,0.013222277,53,3,190,2,4,-7183.716,128.01599,-1850.878,19.926233,225380.64,453.5658,114.781815,114.96488,126.70488,126.70488,23.149448,1,-46.167503,0,0,3.6611357,3.6611342,0,8,255,0,0,0,2,0,38,0
True,2400343,7999.995,1269.8213,4843.496,0.0771783,-0.21362604,4.4866343,0.0045292377,-0.12408674,20.323946,-0.00061210315,0.0019368031,0.013115821,0.14404957,-0.052911125,-0.027260676,0.42658108,0.45697036,0.54645514,0.57388693,0.08616787,0.08360742,0.2273881,0.22414292,63.41136,63.386528,64.366776,64.33669,0,0,0,0,0,0,0,0,0,0,0,0,-0.0069065862,-0.0061105546,-0.0050766533,-0.002113033,0.08644422,0.08383042,0.22744477,0.2241529,-0.008663416,-0.0050774813,0.0075311065,0.010644108,53,3,190,2,4,-7183.4624,128.09918,-1849.1284,20.324326,228793.02,451.3292,114.794586,114.97746,126.6816,126.6816,23.1843,1,-44.506184,0,0,3.749056,3.7490547,0,8,255,0,0,0,2,0,37,0
True,2400468,7999.995,1269.8213,4978.2334,0.041205287,0.2116282,4.529424,0.0053498745,-0.12802899,20.901703,-0.01837496,0.001486225,0.010919705,0.14429635,-0.05451217,-0.025645267,0.4656176,0.4817634,0.5938034,0.6075142,0.08515327,0.08234702,0.20929022,0.20995948,65.24078,65.21543,66.11603,66.11156,0,0,0,0,0,0,0,0,0,0,0,0,-0.006434866,-0.0054921214,-0.0072094677,-0.0005002594,0.08539606,0.08252996,0.20941435,0.20996007,-0.0040571094,-0.0021519065,0.012904257,0.014460176,53,3,190,2,4,-7183.082,128.22482,-1846.5098,20.902094,233281.03,447.72705,114.81427,114.99687,126.65839,126.65839,23.194878,1,-42.019558,0,0,3.87753,3.8775291,0,8,255,0,0,0,2,0,35,0
True,2400578,7999.995,1269.8213,5088.914,-0.39669615,0.15868479,4.4857597,0.005013466,-0.13724351,21.375881,-0.0035186945,0.0017327756,0.01304158,0.1445016,-0.055879276,-0.024463728,0.45402575,0.4844332,0.6247483,0.62749183,0.09176207,0.0857364,0.20593809,0.20826015,66.734695,66.68815,67.56706,67.57198,0,0,0,0,0,0,0,0,0,0,0,0,-0.0070549226,-0.005760207,-0.008826767,0.00052127225,0.09203287,0.085929684,0.20612717,0.2082608,-0.0054249465,-0.0018368661,0.016415924,0.016727269,53,3,190,2,4,-7182.758,128.33548,-1844.2808,21.37632,236797.78,444.56857,114.83052,115.01314,126.64731,126.64731,23.196262,1,-39.90272,0,0,3.9841821,3.9841812,0,8,255,0,0,0,2,0,33,0
True,2400687,7999.995,1269.8213,5200.6543,-0.07207453,-0.22994803,4.374455,0.0019712448,-0.1423819,21.848585,0.02232674,0.0019711475,0.016461961,0.14468393,-0.054741792,-0.022845183,0.39797643,0.44266954,0.6226263,0.62976193,0.09419084,0.0877887,0.21371831,0.21603957,68.17459,68.12495,69.0628,69.066246,0,0,0,0,0,0,0,0,0,0,0,0,-0.0064960895,-0.00544553,-0.008049428,0.001400947,0.094414584,0.087957434,0.21386984,0.21604411,-0.012038767,-0.006764978,0.016175121,0.01698488,53,3,190,2,4,-7182.424,128.44905,-1841.9889,21.849047,240197.9,441.26703,114.84685,115.02933,126.643776,126.643776,23.196533,1,-37.726116,0,0,4.0914445,4.091443,0,8,255,0,0,0,2,0,31,0
True,2400796,7999.995,1269.8213,5311.288,-0.07214403,-0.3366589,4.269372,-0.001465559,-0.13355029,22.300137,0.011945444,0.0012847055,0.018957622,0.14480451,-0.052568458,-0.020821229,0.39715484,0.44319108,0.5667027,0.584996,0.0852239,0.08184669,0.22236916,0.22479144,69.542244,69.51488,70.560555,70.56772,0,0,0,0,0,0,0,0,0,0,0,0,-0.004978817,-0.004317301,-0.005128684,-0.00069174357,0.08536921,0.08196048,0.2224283,0.2247925,-0.012135714,-0.0067034364,0.009828836,0.011904776,53,3,190,2,4,-7182.094,128.5573,-1839.7258,22.300535,243430.64,437.88663,114.863434,115.045746,126.64748,126.64748,23.196548,1,-35.57708,0,0,4.195134,4.195133,0,8,255,0,0,0,2,0,29,0
True,2400921,7999.995,1269.8213,5417.581,-0.2553486,0.10685554,4.2484593,-0.00071167946,-0.12816405,22.754498,-0.020269277,-1.571956E-05,0.011667367,0.14487755,-0.05307265,-0.019113638,0.43967518,0.45913306,0.55682594,0.585689,0.0768048,0.077958435,0.21067543,0.20576108,70.96089,70.96836,71.97235,71.94204,0,0,0,0,0,0,0,0,0,0,0,0,-0.002595949,-0.002235714,-0.003858525,7.286915E-05,0.07684866,0.07799049,0.21071076,0.20576108,-0.0071183145,-0.004822284,0.008708,0.011983424,53,3,190,2,4,-7181.7534,128.66792,-1837.3849,22.754856,246417.36,434.55716,114.88193,115.06367,126.657135,126.657135,23.196552,1,-33.354176,0,0,4.3002324,4.3002315,0,8,255,0,0,0,2,0,27,0
True,2401015,7999.995,1269.8213,5526.4385,0.6596886,0.61507654,4.4511986,0.005032778,-0.12946105,23.222937,-0.03423305,-0.00036562706,-0.0026658836,0.14490418,-0.05646868,-0.01868613,0.4717599,0.4681692,0.5903626,0.60466796,0.078045905,0.07936975,0.19731636,0.19225627,72.457924,72.466965,73.38738,73.35713,0,0,0,0,0,0,0,0,0,0,0,0,-0.0015061193,-0.0009249294,-0.0042903177,0.0018875082,0.07806043,0.07937514,0.197363,0.19226554,-0.0033323169,-0.0037560165,0.012513787,0.014137179,53,3,190,2,4,-7181.3877,128.79243,-1834.881,23.223299,249362.67,431.0718,114.90251,115.08326,126.67055,126.67055,23.196552,1,-30.976091,0,0,4.410403,4.4104023,0,8,255,0,0,0,2,0,25,0
True,2401125,7999.995,1269.8213,5632.253,0.08693755,0.22039026,4.254725,0.008249283,-0.14728415,23.681787,0.0055795894,0.0008929776,-0.00440163,0.14496315,-0.058333006,-0.019193687,0.45031434,0.44277108,0.61268544,0.6142961,0.09101441,0.08745647,0.19706073,0.19570465,73.90495,73.87525,74.7675,74.752235,0,0,0,0,0,0,0,0,0,0,0,0,-0.0033106734,-0.002196022,-0.0053428654,0.002079825,0.0910746,0.08748404,0.19713315,0.19571571,-0.0058628917,-0.0067529976,0.015047014,0.015229791,53,3,190,2,4,-7181.018,128.92513,-1832.3507,23.682247,252111.6,427.6352,114.92119,115.10155,126.68738,126.68738,23.196552,1,-28.57264,0,0,4.519559,4.519558,0,8,255,0,0,0,2,0,23,0
True,2401250,7999.995,1269.8213,5739.518,-0.051213324,-0.40565306,4.2144437,0.0066103935,-0.14717484,24.118248,0.026611961,0.0016494077,-6.440515E-05,0.14506556,-0.056155547,-0.019434977,0.4131213,0.41037798,0.5943788,0.5897525,0.089364246,0.085799426,0.21609476,0.21406455,75.214745,75.1819,76.237686,76.2145,0,0,0,0,0,0,0,0,0,0,0,0,-0.0037775994,-0.002856504,-0.004683601,0.0010605021,0.089444056,0.08584697,0.2161455,0.21406718,-0.010251671,-0.010575384,0.0129695535,0.012444556,53,3,190,2,4,-7180.6543,129.05391,-1829.8645,24.118696,254793.28,424.10895,114.93884,115.11903,126.70729,126.70729,23.196552,1,-26.21627,0,0,4.624801,4.6247993,0,8,255,0,0,0,2,0,22,0
True,2401359,7999.995,1269.8213,5846.416,1.9434835,-0.4761606,4.584081,0.004357815,-0.14868176,24.567154,0.013993704,0.0013108881,0.001109195,0.14519148,-0.05385877,-0.019369531,0.39686212,0.39835173,0.5601977,0.55701685,0.08436421,0.082118705,0.2147696,0.21099569,76.602104,76.57947,77.66526,77.633255,0,0,0,0,0,0,0,0,0,0,0,0,-0.0026911378,-0.0019996224,-0.002663902,0.00012889071,0.08440713,0.082143046,0.21478613,0.21099573,-0.012170255,-0.011994481,0.009090632,0.0087296665,53,3,190,2,4,-7180.272,129.18288,-1827.2506,24.567604,257375.64,420.55276,114.95813,115.13807,126.73263,126.73263,23.196552,1,-23.73324,0,0,4.733426,4.7334247,0,8,255,0,0,0,2,0,20,0
True,2401453,7999.995,1269.8213,5938.6045,-0.8161226,-0.18241137,4.0460925,0.0024371147,-0.14774871,24.961252,-0.0023964853,0.00073124166,0.002556169,0.14527692,-0.05330489,-0.019214254,0.40560204,0.41380727,0.54706573,0.54669255,0.08071686,0.07723053,0.20586938,0.20365152,77.83406,77.805336,78.87483,78.854324,0,0,0,0,0,0,0,0,0,0,0,0,-0.001842226,-0.0011875025,-0.0018368564,-0.00013435568,0.08073788,0.077239655,0.20587757,0.20365156,-0.011138946,-0.010170728,0.007600397,0.007558048,53,3,190,2,4,-7179.9277,129.29594,-1824.8947,24.96169,259517.1,417.48804,114.976135,115.15614,126.75696,126.75696,23.196552,1,-21.495403,0,0,4.8296566,4.829656,0,8,255,0,0,0,2,0,18,0
True,2401578,7999.995,1269.8213,6041.524,0.28417462,0.18615995,3.9163487,-0.0013144016,-0.14782381,25.40575,-0.012152245,0.0003026096,0.004713753,0.14535089,-0.05428553,-0.01877334,0.42022207,0.43374047,0.55715317,0.5619856,0.07902385,0.076145396,0.19684058,0.19279978,79.224106,79.20174,80.22801,80.19648,0,0,0,0,0,0,0,0,0,0,0,0,-0.000778038,-0.00017242796,-0.0014735202,0.0012838946,0.07902768,0.07614559,0.1968461,0.19280405,-0.009413779,-0.0078186095,0.008745134,0.009293526,53,3,190,2,4,-7179.5273,129.4284,-1822.1576,25.406178,260958.12,412.632,114.9975,115.17772,126.78611,126.78611,23.196552,1,-18.895493,0,0,4.939596,4.9395957,0,8,255,0,0,0,2,0,16,0
True,2401671,7999.995,1269.8213,6144.145,-0.27706882,0.26104563,3.828114,-0.0034935474,-0.14688337,25.845476,-0.008623209,-7.893585E-05,0.0013182131,0.14538458,-0.055517845,-0.0184035,0.4270665,0.4359297,0.56721145,0.57728183,0.078794226,0.07704612,0.1946464,0.18842329,80.58557,80.572235,81.58859,81.5433,0,0,0,0,0,0,0,0,0,0,0,0,0.00076641666,0.0013568116,-0.0006717873,0.0031964523,0.07879795,0.07705806,0.19464757,0.1884504,-0.008606136,-0.007560283,0.009886563,0.011029363,53,3,190,2,4,-7179.115,129.56871,-1819.3392,25.845896,260811.58,405.51285,115.019455,115.19943,126.81642,126.81642,23.196552,1,-16.218191,0,0,5.050853,5.0508523,0,8,255,0,0,0,2,0,14,0
True,2401796,7999.995,1269.8213,6243.605,-0.50712705,0.0072394013,3.816197,-0.046842575,-0.15265286,26.267193,0.0067082867,-0.020075079,-0.020548025,0.14494485,-0.055714894,-0.018882584,0.41695645,0.42317328,0.56606746,0.5779549,0.09220169,0.07442162,0.20345344,0.1828851,81.92467,81.87695,82.91376,82.843864,0,0,0,0,0,0,0,0,0,0,0,0,-0.122053064,-0.11586424,0.0075001437,0.011348777,0.15296438,0.13770658,0.20359163,0.18323687,-0.009799123,-0.009065539,0.009756744,0.011105746,53,3,190,2,4,-7178.705,129.71112,-1816.525,26.267677,260505.72,398.58292,115.042496,115.22301,126.84723,126.84723,23.196552,1,-13.5448475,0,0,5.160109,5.160109,0,8,255,0,0,0,2,-67,13,0
True,2401906,7999.995,1269.8213,6320.3696,-0.8861047,-0.13845699,3.8405275,-0.06097865,-0.14918232,26.588274,0.0065821796,-0.072007604,0.0053731543,0.13977319,-0.05502867,-0.021046627,0.40392452,0.43536243,0.54726636,0.5795151,0.07831019,0.074954346,0.21298486,0.18251163,82.68716,83.01638,83.86575,83.97784,0,0,0,0,0,0,0,0,0,0,0,0,0.050516207,0.05050795,-0.018568618,-0.015232555,0.093189985,0.09038367,0.21379276,0.18314618,-0.011336893,-0.007627219,0.007623166,0.011282802,53,3,190,2,4,-7178.3916,129.8235,-1814.2839,26.588764,260155.17,393.1893,115.09068,115.27936,126.87436,126.87436,23.196552,1,-11.417373,0,0,5.245828,5.245828,0,8,255,0,0,0,2,0,11,0
True,2402015,7999.995,1269.8213,6431.565,-0.46430698,0.22797789,3.6110451,0.033079624,-0.1392281,27.06744,-0.014035198,-0.022946542,-0.0066280486,0.13413733,-0.055888563,-0.020590892,0.43827143,0.45619854,0.5476427,0.5753768,0.076723315,0.07070592,0.19662824,0.17504671,84.330086,84.39495,85.403534,85.34745,0,0,0,0,0,0,0,0,0,0,0,0,-0.0014674672,-0.0007274285,-0.023263572,-0.020104118,0.07673735,0.07070966,0.19799964,0.17619741,-0.007283956,-0.005168557,0.0076658726,0.010813177,53,3,190,2,4,-7177.9204,129.99663,-1810.8552,27.067818,259467.1,385.37354,115.11978,115.3089,126.91725,126.91725,23.196552,1,-8.163329,0,0,5.3749657,5.374966,0,8,255,0,0,0,2,0,10,0
True,2402125,7999.995,1269.8213,6508.5127,-0.724324,-0.012154028,3.6125357,0.018640995,-0.15335596,27.405132,0.0116852475,-0.0060717887,-0.0031424705,0.13290945,-0.056316856,-0.020937461,0.43691644,0.44870225,0.567083,0.59014857,0.08500086,0.08032727,0.18964551,0.17601569,85.44083,85.43578,86.40719,86.32968,0,0,0,0,0,0,0,0,0,0,0,0,-0.0043272697,-0.0035544708,-0.010781633,-0.0064941915,0.08511093,0.080405876,0.18995175,0.17613545,-0.0074438453,-0.00605312,0.0098719895,0.012489498,53,3,190,2,4,-7177.5825,130.1254,-1808.352,27.405567,258866.89,379.94247,115.136734,115.327225,126.94618,126.94618,23.196552,1,-5.78819,0,0,5.467803,5.4678025,0,8,255,0,0,0,2,0,8,0
True,2402234,7999.995,1269.8213,6604.779,-0.19781086,-0.73058635,3.5810606,0.004523754,-0.14925873,27.801443,0.036480185,0.0019642126,-0.00018068822,0.13271226,-0.052860938,-0.021100875,0.41905802,0.4263068,0.5651743,0.5778756,0.0778791,0.07523874,0.2023222,0.19778222,86.582565,86.551605,87.72507,87.68238,0,0,0,0,0,0,0,0,0,0,0,0,-0.0026809897,-0.0018629855,-0.0024192592,0.0010333218,0.077925235,0.0752618,0.20233665,0.19778492,-0.009551138,-0.008695781,0.009655386,0.011096746,53,3,190,2,4,-7177.177,130.27586,-1805.3202,27.801842,257965.14,373.1059,115.155716,115.34623,126.978134,126.978134,23.196552,1,-2.912047,0,0,5.5787315,5.5787315,0,8,255,0,0,0,2,0,7,0
True,2402343,7999.995,1269.8213,6691.005,0.27916938,-0.2587367,3.5329797,0.0012910366,-0.13488007,28.17549,-0.00999367,0.0025437793,0.0016884549,0.13294865,-0.051363032,-0.021069268,0.45297915,0.46245676,0.5534752,0.5610919,0.06608741,0.06506322,0.18610358,0.18325666,87.74317,87.723045,88.85033,88.81632,0,0,0,0,0,0,0,0,0,0,0,0,-0.0017360724,-0.0012196455,-0.00056327006,0.0019720953,0.06611021,0.06507465,0.18610443,0.18326727,-0.0055484474,-0.0044300854,0.008327752,0.009192109,53,3,190,2,4,-7176.783,130.41446,-1802.3756,28.17581,257006.78,366.89713,115.17694,115.36766,127.00931,127.00931,23.196552,1,-0.11910783,0,0,5.6849694,5.6849694,0,8,255,0,0,0,2,0,5,0
True,2402453,7999.995,1269.8213,6771.5366,3.0326598,0.74992585,3.8361692,0.002846241,-0.130077,28.546577,-0.023262376,0.0022018764,0.0017496624,0.1332532,-0.05374978,-0.020927086,0.49303195,0.5003353,0.5891359,0.597025,0.06721646,0.06541277,0.1634561,0.16242705,88.931404,88.90438,89.85607,89.83849,0,0,0,0,0,0,0,0,0,0,0,0,-0.002381908,-0.0016815291,-0.0025145202,0.0028132496,0.067258656,0.065434374,0.16347544,0.16245142,-0.0008222163,3.9577484E-05,0.01237458,0.013269842,53,3,190,2,4,-7176.378,130.56064,-1799.3494,28.546873,255994.58,361.10028,115.20035,115.39086,127.039444,127.039444,23.196552,1,2.7546918,0,0,5.7927284,5.792729,0,8,255,0,0,0,2,0,3,0
True,2402578,7999.995,1269.8213,6716.1704,-0.019395128,0.29105237,2.0410347,0.0024044514,-0.11902034,28.78677,0.018936604,0.0019488065,0.008955099,0.13349187,-0.054525923,-0.020405741,0.48687726,0.5030736,0.611647,0.61514014,-0.0037808164,-0.0035899521,-0.010498643,-0.010574106,88.89789,88.890526,88.8163,88.80616,0,0,0,0,0,0,0,0,0,0,0,0,-0.0036824108,-0.002706533,-0.005134824,0.002078705,0.0052777575,0.0044958955,0.011687083,0.01077649,-0.0015484691,0.00036269426,0.014929175,0.015325576,53,3,190,2,4,-7175.9653,130.71603,-1796.2737,28.787016,-44937.688,-63.8704,115.21649,115.40783,127.05728,127.05728,8.532523,1,5.6710024,0,0,5.900937,5.900937,0,8,255,0,0,0,2,0,1,0
True,2402687,7999.995,1269.8213,6600.422,-0.14021564,-0.072516,-0.7746511,-0.0011513233,-0.024004817,28.645655,0.03296416,0.0012224173,0.013745541,0.1335996,-0.050775718,-0.0190307,0.5011008,0.5265042,0.5672955,0.5749017,-0.0012615058,-0.0012188442,-0.007036722,-0.006871324,88.47297,88.46742,88.433464,88.42901,0,0,0,0,0,0,0,0,0,0,0,0,-0.0027993743,-0.0024429269,-0.0032603743,-0.0002921073,0.0030704874,0.0027301048,0.0077553526,0.00687753,0.00012990832,0.0031275153,0.0098961,0.010759264,53,3,190,2,4,-7175.5376,130.87749,-1793.0875,28.645666,-44179.19,-63.8704,115.20842,115.40119,127.005554,127.005554,-7.5056667,1,8.692119,0,0,6.0130343,6.0130343,0,8,255,0,0,0,2,0,254,0
True,2402796,7999.995,1269.8213,6355.171,0.030945256,-0.022847544,-0.80096936,-0.00012612343,0.0406996,28.550213,0.012695664,0.0005640503,0.005557333,0.13365231,-0.048379257,-0.017831873,0.528379,0.545405,0.52892977,0.54358155,0.0006553995,0.0006582143,0.0011660953,0.0011202277,88.225426,88.22278,88.22986,88.2269,0,0,0,0,0,0,0,0,0,0,0,0,-0.0011789794,-0.0012756684,-0.00034044223,-0.00087719416,0.0013489036,0.0014354707,0.0012147753,0.001422807,0.003348738,0.005357802,0.005542308,0.0072050095,53,3,190,2,4,-7175.1064,131.03888,-1789.8813,28.55024,-42543.324,-63.8704,115.20131,115.393715,126.945694,126.945694,-10.403435,1,11.732236,0,0,6.126303,6.126303,0,8,255,0,0,0,2,0,251,0
True,2402906,7999.995,1269.8213,6105.125,0.016894884,-0.124329224,-0.6778932,0.005353689,0.06077349,28.462772,0.009582056,0.00047248963,-0.004723341,0.1336832,-0.047246434,-0.017829811,0.5400969,0.5435885,0.5175285,0.53260696,0.006194645,0.0062597273,0.018102637,0.017610515,88.02568,88.023865,88.159454,88.1525,0,0,0,0,0,0,0,0,0,0,0,0,-0.0009635402,-0.0010966108,-0.00011354652,-0.0012121013,0.0062691336,0.0063550565,0.018102992,0.017652178,0.0047314465,0.0051434636,0.00424847,0.0059596,53,3,190,2,4,-7174.6924,131.19308,-1786.8057,28.462835,-32364.29,-50.54303,115.1933,115.38425,126.88815,126.88815,-10.36861,1,14.652504,0,0,6.235311,6.235311,0,8,255,0,0,0,3,0,249,0
True,2403015,7999.995,1269.8213,5216.1226,-0.2981198,-0.2967704,1.0796083,0.008090496,0.026190877,28.596638,-0.012700406,-0.00032300327,-0.0068402393,0.13372238,-0.047690853,-0.018421452,0.52104586,0.5174085,0.52500314,0.5325004,0.06283366,0.06094374,0.16649091,0.16477154,89.027245,89.010155,90.01915,90.00684,0,0,0,0,0,0,0,0,0,0,0,0,-0.0016320634,-0.0012876637,-0.0009172218,-0.0018605654,0.06285485,0.060957342,0.16649345,0.16478205,0.0024834275,0.0020542145,0.005096704,0.0059475005,53,3,190,2,4,-7174.2886,131.3422,-1783.8071,28.59665,44014.637,80.08614,115.19639,115.38838,126.86656,126.86656,-1.1338692,1,17.496777,0,0,6.341598,6.3415985,0,8,255,0,0,0,3,0,247,0
True,2403109,7999.995,1269.8213,4659.81,-0.05418232,-0.10986075,1.6729974,0.010715485,-0.023645043,28.781584,-0.017262354,0.002034654,-0.0029638824,0.13380972,-0.049283028,-0.019322528,0.4968979,0.49600434,0.5392226,0.54498684,0.026661798,0.025948126,0.07238363,0.071152896,89.25425,89.23882,89.68843,89.669495,0,0,0,0,0,0,0,0,0,0,0,0,-0.0035919242,-0.0035266848,-0.0020961638,-0.0016438194,0.026902666,0.02618669,0.07241397,0.07117188,-0.00036603212,-0.00047147274,0.0067103505,0.0073644817,53,3,190,2,4,-7173.949,131.46503,-1781.2948,28.781593,98267.03,201.38206,115.20726,115.40034,126.87517,126.87517,1.1873741,1,19.879868,0,0,6.4299817,6.4299817,0,8,255,0,0,0,3,0,245,0
True,2403234,7999.995,1269.8213,4631.361,-0.040495932,0.47070545,1.5811552,0.008177519,-0.035524487,28.972345,-0.026505949,0.0018673472,0.0011584205,0.13411655,-0.052073292,-0.019482687,0.4923288,0.50108564,0.54397756,0.54573107,0.043139525,0.042104036,0.11342201,0.11381845,90.029175,90.01156,90.70466,90.699684,0,0,0,0,0,0,0,0,0,0,0,0,-0.003417229,-0.0034205688,-0.0021432606,-0.0015530725,0.04327466,0.042242754,0.11344225,0.11382905,-0.00090518594,0.00012812018,0.0072499514,0.0074489415,53,3,190,2,4,-7173.445,131.65195,-1777.5586,28.97237,169086.8,348.71033,115.218155,115.41168,126.86429,126.86429,8.165174,1,23.424063,0,0,6.560756,6.560756,0,8,255,0,0,0,3,0,243,0
True,2403375,7999.995,1269.8213,4688.013,-0.12206705,0.2565079,2.1662436,0.011999369,-0.069728255,29.26749,-0.0065188697,0.0016820626,-0.009401297,0.13442445,-0.054728243,-0.019869424,0.4870076,0.47226048,0.5522272,0.56578934,0.05588026,0.059330065,0.14231353,0.13651063,91.03141,91.05193,91.87216,91.81965,0,0,0,0,0,0,0,0,0,0,0,0,-0.002794136,-0.0023426714,-0.0018602695,2.4655847E-05,0.055950075,0.059376296,0.14232568,0.13651063,-0.0015330911,-0.0032732487,0.008186132,0.009725183,53,3,190,2,4,-7172.9375,131.8483,-1773.8113,29.267574,207541.67,422.86816,115.23601,115.4281,126.87552,126.87552,18.775852,1,26.979345,0,0,6.690804,6.6908045,0,8,255,0,0,0,3,0,241,0
True,2403468,7999.995,1269.8213,4731.1143,0.30291247,-0.116795845,2.540721,0.01867652,-0.08742285,29.505054,0.0041033635,0.0014106812,-0.015739305,0.13454972,-0.05468508,-0.02107594,0.48098826,0.46283892,0.5578399,0.55380946,0.062255044,0.061689224,0.15629357,0.15593019,91.80736,91.79469,92.728035,92.7192,0,0,0,0,0,0,0,0,0,0,0,0,-0.0036622758,-0.003058707,-0.00320241,-0.0013407249,0.06236267,0.061765004,0.15632638,0.15593596,-0.0022433698,-0.0043849945,0.008823067,0.008365691,53,3,190,2,4,-7172.591,131.98256,-1771.2589,29.50519,220813.62,445.81097,115.249664,115.44065,126.89107,126.89107,22.041283,1,29.401043,0,0,6.7785726,6.778573,0,8,255,0,0,0,3,0,239,0
True,2403578,7999.995,1269.8213,4780.56,0.09187633,-0.2133698,2.7851892,0.019805431,-0.10206354,29.807241,0.001773612,0.002074772,-0.006957664,0.13472782,-0.054286048,-0.022404376,0.4642414,0.4625381,0.5634394,0.5594161,0.06271002,0.059791166,0.1587164,0.15881054,92.757095,92.722,93.706154,93.697136,0,0,0,0,0,0,0,0,0,0,0,0,-0.0058078766,-0.0052230568,-0.0052098315,-0.0027250526,0.062978394,0.060018864,0.15880188,0.15883392,-0.004219502,-0.004420489,0.009458512,0.0090019405,53,3,190,2,4,-7172.165,132.14435,-1768.1312,29.80742,225914.1,451.37897,115.26729,115.45883,126.91402,126.91402,22.97017,1,32.36829,0,0,6.8851366,6.885137,0,8,255,0,0,0,3,0,237,0
True,2403687,7999.995,1269.8213,4830.6724,-0.4223804,0.0502266,2.5738277,0.014821529,-0.10716057,30.123064,-0.010962029,0.0024066695,0.0015925231,0.13499232,-0.054792408,-0.022604786,0.45550525,0.45935607,0.5592286,0.5637299,0.059597168,0.05856701,0.15472367,0.15364072,93.73808,93.717545,94.6866,94.667305,0,0,0,0,0,0,0,0,0,0,0,0,-0.005809816,-0.005429572,-0.0049345535,-0.0023696641,0.059879683,0.05881815,0.15480235,0.15365899,-0.0052503645,-0.0047959685,0.008980662,0.009491473,53,3,190,2,4,-7171.7173,132.3135,-1764.8423,30.123257,228305.69,451.41702,115.2878,115.48021,126.938965,126.938965,23.155128,1,35.488575,0,0,6.996038,6.9960384,0,8,255,0,0,0,3,0,235,0
True,2403796,7999.995,1269.8213,4879.1045,0.8318362,0.29440016,3.2213006,0.012269974,-0.11606324,30.43138,-0.008934176,0.0028225102,0.002069396,0.13531552,-0.05606593,-0.02228379,0.4701248,0.4750773,0.56164443,0.5655638,0.060884245,0.061344404,0.15095627,0.15030976,94.706635,94.698296,95.61996,95.60245,0,0,0,0,0,0,0,0,0,0,0,0,-0.0053258114,-0.004713425,-0.004047647,-0.0014473448,0.061116736,0.06152522,0.15101053,0.15031673,-0.003525257,-0.0029408634,0.009254813,0.009699583,53,3,190,2,4,-7171.2715,132.48451,-1761.5737,30.431602,230061.69,450.3673,115.308975,115.50131,126.96361,126.96361,23.188782,1,38.589756,0,0,7.1051216,7.1051226,0,8,255,0,0,0,3,0,232,0
True,2403921,7999.995,1269.8213,4927.3994,-0.044270873,-0.2065137,2.78022,0.01723528,-0.123197556,30.731236,0.015247061,0.0020851567,-0.009748224,0.13556713,-0.05562754,-0.022655448,0.45701206,0.43772438,0.5736136,0.574221,0.062114302,0.065926015,0.15873241,0.15567091,95.602554,95.62446,96.58548,96.55233,0,0,0,0,0,0,0,0,0,0,0,0,-0.0044576325,-0.0037943306,-0.004294418,-0.0006573456,0.062274046,0.066035114,0.1587905,0.1556723,-0.005072564,-0.0073485076,0.010613084,0.010682017,53,3,190,2,4,-7170.831,132.654,-1758.3517,30.73149,231679.16,449.09726,115.32841,115.519196,126.98732,126.98732,23.19506,1,41.646946,0,0,7.2115912,7.2115917,0,8,255,0,0,0,3,0,230,0
True,2404031,7999.995,1269.8213,5040.0146,-21.840126,-0.2470868,4.5800834,-2.416207,-0.18274605,31.17429,0.0013297405,0.04371933,0.08895044,0.1382588,-0.05450634,-0.024940874,0.45503372,0.45959222,0.53841084,0.55021137,0.057010725,0.1285522,0.1648518,0.3197716,97.12104,97.69826,98.32134,99.56408,0,0,0,0,0,0,0,0,0,0,0,0,0.46577892,0.5416893,0.4997468,0.57553774,0.46925497,0.55673414,0.5262347,0.6584053,-0.0053060055,-0.0047681034,0.0066182315,0.007957369,53,3,190,2,4,-7170.4897,132.82376,-1755.085,31.268318,235247.97,445.99167,115.384415,115.56357,127.04106,127.04106,23.196293,1,44.736233,0,0,7.3177238,7.317724,0,8,255,0,0,0,3,0,230,0
True,2404125,7999.995,1269.8213,5045.4243,1.4226154,0.11653331,1.2385843,-1.6648633,-0.14686894,31.214054,0.00404785,-0.062129825,0.16314237,0.13789697,-0.05475961,-0.0048638512,0.687721,0.48260465,0.76423573,0.5792307,0.04387,0.22617333,0.1357281,0.31533197,96.92844,98.89697,98.020386,99.73587,0,0,0,0,0,0,0,0,0,0,0,0,0.3905644,0.5084233,0.34361005,0.45156208,0.39302054,0.55646086,0.3694455,0.5507654,0.022151098,-0.002052635,0.03224516,0.011250526,53,3,190,2,4,-7170.265,132.98503,-1751.7753,31.258764,235513.23,445.7517,115.77848,115.77667,127.38254,127.38254,23.196545,1,47.853893,0,0,7.424085,7.4240856,0,8,255,0,0,0,3,0,232,0
True,2404250,7999.995,1269.8213,5061.4355,6.480859,0.31336948,2.4881523,-0.30979085,0.012194276,31.536615,0.021225339,-0.094086744,-0.07974728,0.12611419,-0.05255688,-0.0010859189,0.7103093,0.41154405,0.8004346,0.5307973,0.051485084,0.088932805,0.15407942,0.18745784,97.77328,98.55995,98.874855,99.557655,0,0,0,0,0,0,0,0,0,0,0,0,0.13442555,0.14571722,0.039732926,0.06948396,0.1439477,0.17071189,0.15912,0.19992115,0.024816513,-0.010437787,0.03635305,0.0057542324,53,3,190,2,4,-7169.8677,133.18774,-1747.9274,31.538137,235981.6,445.3227,116.04219,115.9135,127.547134,127.547134,23.196552,1,51.502445,0,0,7.5475283,7.547528,0,8,255,0,0,0,3,0,233,0
True,2404375,7999.995,1269.8213,5114.6147,1.5826753,-0.46002412,2.6637099,0.10071826,-0.04616046,31.872053,-0.009551929,-0.044144675,-0.12224782,0.11794188,-0.052085947,-0.014017159,0.5972926,0.3819453,0.6635641,0.46990627,0.062303055,0.06349825,0.17138201,0.15685195,99.0886,99.31425,100.21765,100.296814,0,0,0,0,0,0,0,0,0,0,0,0,0.006854198,0.007175892,-0.036329333,-0.027690012,0.06267895,0.06390244,0.17519023,0.15927733,0.01148054,-0.01393044,0.020820796,-0.0011557639,53,3,190,2,4,-7169.412,133.38474,-1744.1456,31.872246,237640.98,443.7734,116.091415,115.95085,127.58095,127.58095,23.196552,1,55.08516,0,0,7.667821,7.66782,0,8,255,0,0,0,3,0,232,0
True,2404484,7999.995,1269.8213,5156.8135,-0.34394762,-0.4542644,2.7556612,0.13391232,-0.10806167,32.15976,0.0031204675,-0.014321137,-0.08519171,0.11509961,-0.052683998,-0.02498543,0.5106792,0.4069997,0.6015961,0.50333655,0.07065367,0.05907359,0.16021453,0.14945486,100.10737,100.07201,101.06787,101.04115,0,0,0,0,0,0,0,0,0,0,0,0,-0.019845493,-0.018798275,-0.034133647,-0.030744107,0.073387906,0.06199245,0.16381025,0.15258425,0.0012601614,-0.01097402,0.013788581,0.0026379526,53,3,190,2,4,-7169.015,133.54991,-1740.861,32.160217,238920.05,442.5252,116.10808,115.9715,127.606674,127.606674,23.196556,1,58.196827,0,0,7.7712774,7.7712765,0,8,255,0,0,0,3,0,231,0
True,2404609,7999.995,1269.8213,5203.0864,1.9445437,-0.48698625,2.684432,0.26359582,-0.12514257,32.4384,0.01387826,0.08957629,0.013605205,0.117487386,-0.051609654,-0.028670035,0.4812921,0.45458618,0.5788497,0.52602184,0.05666721,0.0887109,0.13953798,0.18138649,101.045906,100.91648,101.97383,101.95445,0,0,0,0,0,0,0,0,0,0,0,0,0.27247515,0.30050895,-0.039805572,-0.039405815,0.27830538,0.3133293,0.14510454,0.18561755,-0.0022075176,-0.005358815,0.011207283,0.005212307,53,3,190,2,4,-7168.6133,133.71144,-1737.5503,32.439713,240312.6,441.15143,116.16121,116.02113,127.63121,127.63121,23.196556,1,61.333103,0,0,7.874633,7.874631,0,8,255,0,0,0,3,127,231,0
True,2404718,7999.995,1269.8213,5255.5703,6.145488,-0.31396425,2.3740873,0.27654934,-0.12636364,32.690655,0.0065029664,0.3036166,0.054743845,0.13874131,-0.050117344,-0.025300669,0.51067466,0.4069156,0.61493766,0.52928483,0.05985156,0.17315833,0.110902295,0.24611692,102.31924,101.90455,103.022354,102.86687,0,0,0,0,0,0,0,0,0,0,0,0,0.50456566,0.609961,0.03869405,0.04671166,0.508103,0.63406324,0.11745871,0.2505105,0.001259625,-0.010983944,0.0153025985,0.005582601,53,3,190,2,4,-7168.143,133.87413,-1734.1058,32.69207,241859.02,439.54657,116.388306,116.19112,127.6552,127.6552,23.196556,1,64.60146,0,0,7.981479,7.981477,0,8,255,0,0,0,3,97,229,0
True,2404812,7999.995,1269.8213,5294.922,5.0470476,-0.6818562,2.8919153,-0.30286217,-0.124751925,32.97525,0.03609675,0.25231525,-0.017687833,0.17337666,-0.046979465,-0.025622478,0.51792574,0.3711167,0.61745745,0.4875377,0.06132068,0.07971901,0.127256,0.23568286,103.14901,102.09262,103.90651,103.74345,0,0,0,0,0,0,0,0,0,0,0,0,0.006673884,0.007802616,0.19118007,0.20971346,0.06168279,0.08009994,0.22966042,0.31547764,0.0021152496,-0.0152082145,0.015588552,0.00084507465,53,3,190,2,4,-7167.59,134.03262,-1730.6234,32.97688,242999.03,438.35168,116.553604,116.310326,127.70102,127.70102,23.196556,1,67.91396,0,0,8.088983,8.088981,0,8,255,0,0,0,3,0,227,0
True,2404921,7999.995,1269.8213,5343.1416,4.9342494,-0.8298754,2.8929906,-0.39721632,-0.114044785,33.26396,0.016007056,0.111919485,0.009105715,0.19164403,-0.04326028,-0.026466418,0.47684827,0.39415795,0.60260165,0.47301358,0.0523717,0.073544726,0.14093325,0.2310772,103.65717,103.308784,104.65587,104.94715,0,0,0,0,0,0,0,0,0,0,0,0,0.07221713,0.07736575,0.15385659,0.17019722,0.08920823,0.10674402,0.20864812,0.28699088,-0.0027318895,-0.012489349,0.013902694,-0.0008031428,53,3,190,2,4,-7166.989,134.17874,-1727.1627,33.26653,244384.52,436.837,116.587204,116.332214,127.772064,127.772064,23.196556,1,71.24191,0,0,8.195115,8.195113,0,8,255,0,0,0,3,0,223,0
True,2405046,7999.995,1269.8213,5393.4985,6.101681,-0.05117881,2.5942502,-0.06744099,-0.11778295,33.5902,-0.011040454,0.15335457,0.042992126,0.20453872,-0.042993378,-0.024428308,0.52721596,0.39825928,0.61593425,0.47830376,0.050585344,0.103536785,0.11631389,0.22219801,104.737175,104.50606,105.57917,105.85929,0,0,0,0,0,0,0,0,0,0,0,0,0.35507017,0.4071435,0.071447596,0.08391084,0.35865542,0.420102,0.13650523,0.23751418,0.0032114983,-0.012005389,0.015415698,-0.0002028048,53,3,190,2,4,-7166.212,134.34154,-1723.1276,33.590473,245785.6,435.2802,116.71419,116.418015,127.831085,127.831085,23.196556,1,75.10105,0,0,8.318113,8.31811,0,8,255,0,0,0,3,127,217,0
True,2405140,7999.995,1269.8213,5431.416,7.8356776,0.30874896,2.4454818,0.045373917,-0.1155591,33.78298,-0.0073030693,0.29286715,0.063097306,0.22373383,-0.043646034,-0.020431647,0.58198124,0.4011577,0.65543616,0.47442016,0.060950622,0.18412894,0.10143754,0.24859254,105.65723,105.44158,106.36144,106.39866,0,0,0,0,0,0,0,0,0,0,0,0,0.58262444,0.7150229,0.087261334,0.10845747,0.58580387,0.73835033,0.13380626,0.27122182,0.009673804,-0.011663377,0.01989843,-0.00064352155,53,3,190,2,4,-7165.6035,134.45604,-1720.3239,33.78321,246835.84,434.07043,116.93837,116.57527,127.864624,127.864624,23.196556,1,77.79138,0,0,8.403336,8.403333,0,8,255,0,0,0,3,127,211,0
True,2405265,7999.995,1269.8213,5484.858,8.858567,-0.4978883,2.586297,-0.344903,-0.09648335,34.04642,0.036523305,0.37443146,-0.0144828595,0.26697764,-0.040766284,-0.017104575,0.57564574,0.3247102,0.6917768,0.4486171,0.053140044,0.12469041,0.13035229,0.31994092,106.717354,105.47372,107.64019,107.6354,0,0,0,0,0,0,0,0,0,0,0,0,-0.02259487,-0.024612932,0.23130804,0.27130803,0.057744198,0.1270964,0.2655092,0.41948807,0.008926213,-0.020684183,0.024022415,-0.0035716891,53,3,190,2,4,-7164.6343,134.61577,-1716.4036,34.048306,248322.75,432.32684,117.36055,116.86948,127.94003,127.94003,23.196556,1,81.56847,0,0,8.522524,8.522523,0,8,255,0,0,0,3,0,201,0
True,2405375,7999.995,1269.8213,5527.848,7.0217037,-0.5754476,2.9404979,-0.6277027,-0.08554375,34.362328,-0.0016895743,0.17025486,0.0015137964,0.29779962,-0.037393402,-0.02014606,0.5636905,0.3587346,0.6169847,0.4124892,0.046243276,0.07896867,0.13883267,0.26780993,107.1916,106.67744,108.27396,108.68265,0,0,0,0,0,0,0,0,0,0,0,0,0.11042649,0.1224235,0.23127978,0.26331463,0.11971822,0.1456831,0.26974958,0.3755752,0.00751549,-0.016669303,0.015534908,-0.007671535,53,3,190,2,4,-7163.562,134.76303,-1712.4948,34.368168,249446.52,430.969,117.41766,116.90508,128.06294,128.06294,23.196556,1,85.3477,0,0,8.641075,8.641074,0,8,255,0,0,0,3,0,191,0
True,2405484,7999.995,1269.8213,5557.0186,7.5286865,0.54795206,2.8472452,-0.31047058,-0.09411645,34.636818,-0.034311846,0.12547547,0.022685032,0.31066278,-0.03951556,-0.019750051,0.6520281,0.43858385,0.6773165,0.46679583,0.044559773,0.08565352,0.11167875,0.19867162,107.92552,107.7251,108.788,109.033585,0,0,0,0,0,0,0,0,0,0,0,0,0.28099552,0.3196141,0.11771592,0.1406265,0.28450668,0.3308923,0.1622627,0.24340548,0.01793933,-0.0072470903,0.02238144,-0.0015087426,53,3,190,2,4,-7162.552,134.88956,-1709.1165,34.638336,250208.28,430.03125,117.52019,116.96797,128.14854,128.14854,23.196556,1,89.08443,0,0,8.743324,8.743322,0,8,255,0,0,0,3,127,184,0
True,2405593,7999.995,1269.8213,5599.2393,9.239735,1.284709,2.4768724,-0.0422554,-0.08003497,34.868156,-0.03545738,0.27266717,0.04713746,0.3305027,-0.043041155,-0.016221398,0.6910489,0.4768485,0.77453434,0.52381873,0.048516814,0.13199338,0.095553584,0.22588393,108.982155,108.49796,109.699974,109.69468,0,0,0,0,0,0,0,0,0,0,0,0,0.43780765,0.53005016,0.08608578,0.121902935,0.4404877,0.5462375,0.12861279,0.25667855,0.022543788,-0.0027318597,0.033413857,0.0049622953,53,3,190,2,4,-7161.4585,135.02673,-1705.766,34.86827,251309.8,428.6626,117.76904,117.137115,128.20189,128.20189,23.196556,1,92.39811,0,0,8.844798,8.844795,0,8,255,0,0,0,3,2,177,0
True,2405687,7999.995,1269.8213,5634.8975,5.4765778,0.30170348,2.7286696,-0.3575678,-0.08264184,35.139603,0.02250731,0.14628705,-0.035572913,0.35344303,-0.043441933,-0.019679727,0.62987196,0.42781335,0.746985,0.5482898,0.055197336,0.08273271,0.12071783,0.19528928,109.58621,109.149345,110.3964,110.45096,0,0,0,0,0,0,0,0,0,0,0,0,0.055495895,0.060312428,0.13932501,0.16896196,0.078272216,0.102383055,0.18434818,0.2582364,0.0153249055,-0.00851801,0.03028752,0.0077393055,53,3,190,2,4,-7160.2627,135.17728,-1702.3514,35.141518,252206.78,427.51245,117.86084,117.19559,128.25887,128.25887,23.196556,1,95.79687,0,0,8.948232,8.94823,0,8,255,0,0,0,3,0,171,0
True,2405812,7999.995,1269.8213,5682.879,4.0478473,-0.65928966,2.586259,-0.29042816,-0.08672285,35.41238,0.0113965925,0.06277318,-0.03088273,0.36349276,-0.040598106,-0.023490453,0.59084165,0.4037169,0.67422247,0.5070928,0.050733753,0.06680761,0.1450847,0.20074272,110.20416,110.05721,111.31743,111.55477,0,0,0,0,0,0,0,0,0,0,0,0,0.060929414,0.064348586,0.098844685,0.113992564,0.07928623,0.09275774,0.17555581,0.23085047,0.010719329,-0.01136139,0.022030324,0.0030642152,53,3,190,2,4,-7159.0127,135.32198,-1698.9225,35.413677,253427.61,425.9278,117.89767,117.219955,128.30676,128.30676,23.196556,1,99.222626,0,0,9.0517645,9.051763,0,8,255,0,0,0,3,0,165,0
True,2405921,7999.995,1269.8213,5723.025,2.8887138,0.48655224,2.7295895,-0.113580704,-0.099983335,35.728428,-0.031905554,0.018705195,-0.03272491,0.36799556,-0.04251292,-0.027537264,0.58998394,0.47645882,0.6766585,0.5265728,0.050605938,0.05560184,0.12589245,0.14634408,111.15886,111.1192,112.07037,112.178894,0,0,0,0,0,0,0,0,0,0,0,0,0.028684907,0.029557591,0.03317701,0.04295213,0.05817031,0.06296996,0.13019072,0.15251713,0.01061812,-0.0027778447,0.02230677,0.0052748322,53,3,190,2,4,-7157.53,135.48463,-1694.99,35.72875,254430.28,424.59793,117.941696,117.25389,128.34543,128.34543,23.196556,1,103.16419,0,0,9.1699915,9.16999,0,8,255,0,0,0,3,0,160,0
True,2406031,7999.995,1269.8213,5762.937,1.4296079,0.4722656,2.667646,-0.0184803,-0.10254359,35.98409,-0.0012071263,0.008816689,-0.017057799,0.36907956,-0.043888696,-0.030275054,0.52994716,0.47614083,0.65360504,0.57059133,0.053093556,0.05685194,0.13535649,0.14510086,111.88817,111.89025,112.88739,112.94708,0,0,0,0,0,0,0,0,0,0,0,0,0.06894668,0.07058259,0.004843349,0.013674886,0.08702052,0.09063137,0.1354431,0.14574383,0.0035337806,-0.0028153658,0.019690633,0.010270119,53,3,190,2,4,-7156.272,135.62709,-1691.7156,35.984238,255423.14,423.3355,117.96304,117.2758,128.3685,128.3685,23.196556,1,106.45248,0,0,9.267886,9.267883,0,8,255,0,0,0,3,20,158,0
True,2406140,7999.995,1269.8213,5814.2207,4.78865,0.47461757,2.426127,0.20955372,-0.11163771,36.26929,-0.016567614,0.17661247,0.062348712,0.37841684,-0.04535446,-0.02718523,0.54256266,0.4733326,0.63610363,0.557862,0.051269747,0.104732394,0.10719814,0.18147357,113.12356,112.83081,113.907425,113.857635,0,0,0,0,0,0,0,0,0,0,0,0,0.38455114,0.44523343,0.0012095972,0.0076709185,0.3879538,0.45738572,0.107204966,0.18163563,0.0050224066,-0.0031467378,0.017704546,0.00882557,53,3,190,2,4,-7154.7056,135.8048,-1687.7379,36.270065,256641.94,421.58142,118.09418,117.37877,128.3944,128.3944,23.196556,1,111.035065,0,0,9.386299,9.386297,0,8,255,0,0,0,3,127,156,0
True,2406250,7999.995,1269.8213,5866.4854,8.253179,0.3920625,2.1283293,0.0634985,-0.09781468,36.46733,-0.006247055,0.37674952,0.08949775,0.40729818,-0.04546418,-0.020477304,0.58108264,0.4420149,0.662671,0.5214281,0.06290636,0.2007816,0.10008496,0.27051583,114.127495,113.7291,114.93055,114.93714,0,0,0,0,0,0,0,0,0,0,0,0,0.67949843,0.8499728,0.10256656,0.12601466,0.6824041,0.8733653,0.14330702,0.29842672,0.009567767,-0.006842226,0.020719454,0.0046910048,53,3,190,2,4,-7153.2676,135.96317,-1684.2993,36.46752,257874.61,419.8478,118.40626,117.60358,128.42361,128.42361,23.196556,1,114.54208,0,0,9.488855,9.488855,0,8,255,0,0,0,3,127,154,0
True,2406375,7999.995,1269.8213,5899.666,9.742243,0.666951,2.5603385,-0.62432194,-0.058117747,36.687256,-0.010806017,0.42403215,-0.00040429458,0.45790985,-0.045839947,-0.0145017365,0.6820643,0.42535844,0.71563387,0.48600665,0.0447499,0.08654237,0.10603476,0.281083,115.03262,113.3923,115.8258,115.65081,0,0,0,0,0,0,0,0,0,0,0,0,0.03108895,0.035737902,0.28694168,0.34159213,0.054489233,0.09363108,0.30590668,0.44237185,0.0214836,-0.008807689,0.026729748,0.0006713271,53,3,190,2,4,-7151.5493,136.14407,-1680.5187,36.692616,258674.19,418.71237,118.83999,117.895676,128.52191,128.52191,23.196556,1,118.449745,0,0,9.60253,9.60253,0,8,255,0,0,0,3,0,152,0
True,2406468,7999.995,1269.8213,5942.7495,8.758851,0.010658957,2.6443622,-0.90083313,-0.047395825,36.92306,0.009252729,0.21080866,0.021082819,0.4897757,-0.044974703,-0.014681309,0.62966955,0.3973152,0.72989744,0.48832896,0.047154076,0.09827936,0.12979543,0.2865384,115.23758,114.749245,116.316635,116.895905,0,0,0,0,0,0,0,0,0,0,0,0,0.15421434,0.17512335,0.27798474,0.33350945,0.16126242,0.20081589,0.3067937,0.43969625,0.015301019,-0.01211679,0.028348401,0.00093486905,53,3,190,2,4,-7149.8804,136.31384,-1677.0916,36.934074,259650.78,417.2932,118.90856,117.930435,128.67247,128.67247,23.196556,1,122.03401,0,0,9.706174,9.706173,0,8,255,0,0,0,3,0,150,0
True,2406578,7999.995,1269.8213,5968.372,8.219924,-0.37463453,2.679658,-0.66794205,-0.071151614,37.141663,0.004506925,0.112943396,0.012772889,0.50329506,-0.044340324,-0.013636486,0.5871848,0.38219103,0.6828105,0.4485617,0.04925479,0.11455442,0.12808347,0.23461042,115.67888,115.83896,116.72726,117.2596,0,0,0,0,0,0,0,0,0,0,0,0,0.24848887,0.28388825,0.19301003,0.2268204,0.2533234,0.30612946,0.2316425,0.32632735,0.010287821,-0.013901442,0.023004904,-0.0035779774,53,3,190,2,4,-7148.368,136.45703,-1674.1567,37.147736,260236.36,416.4355,118.99736,117.978905,128.77554,128.77554,23.196556,1,125.134476,0,0,9.795379,9.795377,0,8,255,0,0,0,3,127,149,0
True,2406703,7999.995,1269.8213,6020.836,9.207209,-0.42149192,2.2532778,-0.26228237,-0.0875752,37.414616,0.00016777683,0.22498132,0.029542135,0.5225369,-0.04283832,-0.012343851,0.603614,0.35687774,0.6630839,0.4328106,0.055346165,0.16529574,0.119571134,0.27601877,116.690025,116.77709,117.7551,118.325386,0,0,0,0,0,0,0,0,0,0,0,0,0.56066775,0.68349695,0.13326512,0.16238622,0.5633929,0.7032004,0.17904426,0.32024312,0.012226462,-0.01688841,0.020766303,-0.0053654313,53,3,190,2,4,-7146.1216,136.65115,-1670.0442,37.415638,260967.5,413.9806,119.28261,118.16261,128.86601,128.86601,23.196556,1,130.33041,0,0,9.921161,9.921158,0,8,255,0,0,0,3,127,150,0
True,2406812,7999.995,1269.8213,6049.855,10.962693,0.7158874,1.9126301,-0.29146957,-0.071353436,37.599327,-0.019597514,0.385101,0.039066724,0.5557819,-0.04451606,-0.009384282,0.7004268,0.38989773,0.7338651,0.43027923,0.053871036,0.19646946,0.093467124,0.27501112,117.675316,117.34306,118.46574,118.57003,0,0,0,0,0,0,0,0,0,0,0,0,0.56472194,0.7056291,0.17844003,0.22877035,0.5672856,0.7324703,0.2014372,0.35772473,0.023650378,-0.012992054,0.028798655,-0.005652696,53,3,190,2,4,-7144.113,136.81538,-1666.6301,37.600525,260951.17,411.93542,119.734924,118.46547,128.94614,128.94614,23.196556,1,134.05327,0,0,10.026863,10.02686,0,8,255,0,0,0,3,58,152,0
True,2406921,7999.995,1269.8213,6090.8745,8.444431,0.107839584,2.7488446,-0.8099499,-0.04103577,37.875526,-0.00023385836,0.22472674,-0.005195102,0.59700936,-0.0437941,-0.011943703,0.63322,0.38553396,0.7407314,0.44734892,0.04509459,0.077838,0.12486564,0.2725225,118.22142,117.478195,119.27829,119.75557,0,0,0,0,0,0,0,0,0,0,0,0,0.12874134,0.14272498,0.25697356,0.31017765,0.13641061,0.16257052,0.2857041,0.41289067,0.01571998,-0.013506979,0.029577851,-0.0037156045,53,3,190,2,4,-7141.591,137.01924,-1662.6346,37.884205,260907.95,409.12128,119.93287,118.58821,129.087,129.087,23.196556,1,138.49873,0,0,10.152165,10.152163,0,8,255,0,0,0,3,0,154,0
True,2407031,7999.995,1269.8213,6111.0063,7.7282853,0.10944352,2.4098146,-0.6754875,-0.0665313,38.08162,-0.01008571,0.108301915,0.006196061,0.6111376,-0.044529352,-0.011938359,0.6242785,0.40819836,0.6893278,0.46162698,0.04620103,0.08819363,0.11781296,0.2078773,118.60724,118.53975,119.56468,119.97284,0,0,0,0,0,0,0,0,0,0,0,0,0.12797457,0.14310633,0.18742073,0.21959929,0.13605891,0.16809979,0.22137395,0.3023852,0.0146648735,-0.010832578,0.023744494,-0.0020953119,53,3,190,2,4,-7139.7793,137.16035,-1659.899,38.087666,260875.39,407.69418,120.005035,118.629395,129.18163,129.18163,23.196556,1,141.5861,0,0,10.238621,10.238618,0,8,255,0,0,0,3,0,156,0
True,2407140,7999.995,1269.8213,6151.906,7.3653045,0.18233678,4.131094,-0.24727821,-0.09011364,38.392662,-0.024923908,0.03663836,-0.027218979,0.6183273,-0.04542839,-0.014628376,0.6028843,0.40483096,0.66791266,0.4750158,0.042799298,0.06397872,0.12266871,0.16747248,119.36515,119.42869,120.410866,120.704254,0,0,0,0,0,0,0,0,0,0,0,0,0.16428655,0.1786214,0.06900752,0.082745045,0.16976999,0.18973371,0.14074677,0.18679875,0.012140363,-0.011229932,0.021314278,-0.0005759299,53,3,190,2,4,-7136.9805,137.37169,-1655.8381,38.393562,260789.62,404.85867,120.0936,118.681046,129.25757,129.25757,23.196556,1,146.73251,0,0,10.367694,10.367689,0,8,255,0,0,0,3,44,159,0
True,2407265,7999.995,1269.8213,6187.3193,6.7880635,0.7607807,2.2754855,0.063848495,-0.10590017,38.616154,-0.01410878,0.18187203,0.025249986,0.6289083,-0.048071366,-0.015033659,0.6339164,0.4456379,0.7062747,0.5073751,0.050245784,0.11219193,0.09684561,0.17910418,120.374725,120.188255,121.140045,121.193954,0,0,0,0,0,0,0,0,0,0,0,0,0.43281296,0.50553584,0.03451557,0.050551686,0.43571976,0.51783544,0.10281243,0.18610154,0.015802145,-0.0064147115,0.025667652,0.0030962527,53,3,190,2,4,-7134.644,137.54974,-1652.5709,38.616352,260696.23,402.41537,120.26288,118.80049,129.28995,129.28995,23.196556,1,150.49892,0,0,10.472098,10.472095,0,8,255,0,0,0,3,118,163,0
True,2407359,7999.995,1269.8213,6222.559,4.710346,0.27934253,2.4665878,-0.2984867,-0.084532976,38.841484,0.0013161395,0.18155183,-0.024391945,0.6514307,-0.047771044,-0.016253434,0.59512967,0.44217327,0.7020235,0.51290584,0.048578847,0.05819249,0.11306583,0.18145183,121.13947,120.362656,121.99782,121.90108,0,0,0,0,0,0,0,0,0,0,0,0,0.024028504,0.025184808,0.12742148,0.14733922,0.05419662,0.063408524,0.17035292,0.23373833,0.011225313,-0.0068235397,0.025185227,0.0037238896,53,3,190,2,4,-7132.2744,137.73105,-1649.3804,38.842724,260580.05,399.9573,120.40779,118.905014,129.32353,129.32353,23.196556,1,154.23029,0,0,10.574826,10.574822,0,8,255,0,0,0,3,0,167,0
True,2407468,7999.995,1269.8213,6257.0156,4.367481,0.41490448,2.376583,-0.36169815,-0.086705446,39.073097,-0.015999869,0.08005751,-0.0009283996,0.66430223,-0.048673607,-0.01735882,0.6029126,0.4729045,0.6657718,0.53585166,0.044981275,0.064988464,0.11339193,0.15945712,121.6069,121.438965,122.523796,122.63719,0,0,0,0,0,0,0,0,0,0,0,0,0.062127806,0.06708063,0.10576553,0.12032868,0.07670189,0.09339867,0.15506153,0.19976377,0.012143701,-0.0031972528,0.02107133,0.006327808,53,3,190,2,4,-7129.8774,137.91396,-1646.2235,39.07487,260482,397.59323,120.44423,118.92932,129.37009,129.37009,23.196556,1,157.95403,0,0,10.676672,10.676668,0,8,255,0,0,0,3,0,172,0
True,2407593,7999.995,1269.8213,6303.727,2.8218234,-0.5452983,2.1470404,-0.17747116,-0.11068559,39.35914,0.028520191,0.017034806,-0.027529715,0.66953224,-0.04770088,-0.019790784,0.55270046,0.43208417,0.6647477,0.54764056,0.056391872,0.066955194,0.13357918,0.15916564,122.38438,122.415184,123.41423,123.603004,0,0,0,0,0,0,0,0,0,0,0,0,0.041756455,0.043466438,0.04530967,0.05579169,0.07016869,0.07982687,0.14105447,0.16866064,0.006218672,-0.008014053,0.020955116,0.007665634,53,3,190,2,4,-7126.8594,138.14154,-1642.3403,39.359695,260236.64,394.2926,120.48222,118.95449,129.41043,129.41043,23.196556,1,162.57661,0,0,10.802204,10.802198,0,8,255,0,0,0,3,0,178,0
True,2407687,7999.995,1269.8213,6341.52,1.8185592,-0.22765741,2.384602,-0.053678513,-0.10534537,39.609066,-0.01831659,0.004854484,-0.022798792,0.6705579,-0.04662023,-0.022642784,0.52291834,0.4512698,0.6043809,0.51285017,0.046790037,0.04955231,0.13228412,0.14199802,123.11012,123.11744,124.21723,124.298,0,0,0,0,0,0,0,0,0,0,0,0,0.014180213,0.014417294,0.015102172,0.018209621,0.048891574,0.051607072,0.1331434,0.14316085,0.002704382,-0.0057501495,0.014104605,0.0037175715,53,3,190,2,4,-7124.19,138.3315,-1638.9526,39.60924,260031.78,391.60397,120.505844,118.97824,129.42924,129.42924,23.196556,1,166.75143,0,0,10.911535,10.91153,0,8,255,0,0,0,3,0,183,0
True,2407812,7999.995,1269.8213,6371.461,0.8243882,0.7248974,2.2644536,0.0061302185,-0.11277926,39.836563,-0.016973246,0.0009645508,-0.021933842,0.6708636,-0.049183737,-0.024994407,0.53975695,0.50290835,0.6122957,0.56751555,0.05157178,0.052626554,0.11865511,0.12054456,123.859985,123.86818,124.76324,124.78042,0,0,0,0,0,0,0,0,0,0,0,0,0.0013129477,0.0018821446,-0.0010821848,0.0032637615,0.05158849,0.0526602,0.11866004,0.120588735,0.0046913326,0.00034320354,0.015002787,0.009921074,53,3,190,2,4,-7121.686,138.514,-1635.7936,39.836723,259857.98,389.51794,120.52736,119.002556,129.44633,129.44633,23.196556,1,170.53387,0,0,11.0131035,11.013098,0,8,255,0,0,0,3,0,188,0
True,2407921,7999.995,1269.8213,6418.2974,0.34015942,-0.10715326,2.3253124,0.029211044,-0.11288798,40.098495,0.008420919,0.0014190929,-0.0077501927,0.6709714,-0.04880868,-0.027022092,0.5018822,0.50760525,0.59975463,0.59312165,0.05572097,0.052503247,0.13587591,0.13758771,124.673485,124.63042,125.73608,125.74708,0,0,0,0,0,0,0,0,0,0,0,0,-0.0062256977,-0.0055092815,-0.007938536,-0.0025111928,0.05606769,0.052791506,0.13610762,0.13761063,0.00022211671,0.00089743733,0.013579607,0.01282689,53,3,190,2,4,-7118.706,138.7364,-1632.0427,40.098663,259552.61,386.22134,120.54254,119.02485,129.46214,129.46214,23.196556,1,175.02951,0,0,11.133086,11.13308,0,8,255,0,0,0,3,0,195,0
True,2408046,7999.995,1269.8213,6459.5337,-0.15617287,-0.4887221,2.084472,0.028625488,-0.11862993,40.360863,0.016041564,0.0022441605,-0.0012616972,0.671167,-0.04743767,-0.027198995,0.4951959,0.508367,0.58402693,0.59801555,0.053699426,0.054865446,0.13787222,0.13556904,125.45187,125.45466,126.56618,126.532364,0,0,0,0,0,0,0,0,0,0,0,0,-0.0072527337,-0.0065266252,-0.007821005,-0.002901755,0.054186996,0.055252276,0.13809386,0.13560009,-0.00056687,0.0009873211,0.0117948055,0.013382256,53,3,190,2,4,-7115.713,138.9543,-1628.2777,40.36105,259298.44,383.3844,120.55714,119.04646,129.47665,129.47665,23.196556,1,179.54317,0,0,11.252762,11.252754,0,8,255,0,0,0,3,0,202,0
True,2408156,7999.995,1269.8213,6497.3926,-0.031919003,0.4783331,2.153305,0.028398514,-0.09873533,40.62059,-0.030649152,0.0022932906,-0.0027868403,0.6714542,-0.048132814,-0.027708543,0.53437203,0.55226684,0.5912781,0.60288006,0.0453967,0.04372197,0.12217409,0.12228975,126.249405,126.21803,127.27405,127.26913,0,0,0,0,0,0,0,0,0,0,0,0,-0.006535892,-0.006283916,-0.0076006283,-0.0022937774,0.045864783,0.04417124,0.12241029,0.12231126,0.0040559173,0.006167501,0.012617677,0.013934284,53,3,190,2,4,-7112.691,139.1709,-1624.4785,40.62072,258983,380.67844,120.580246,119.075516,129.49104,129.49104,23.196556,1,184.09639,0,0,11.372762,11.372754,0,8,255,0,0,0,3,0,209,0
True,2408265,7999.995,1269.8213,6529.0625,-0.16769087,0.4939951,2.042029,0.022571564,-0.11243212,40.83516,0.015410036,0.0029844162,0.014571267,0.671785,-0.05011624,-0.026873412,0.5164869,0.55035645,0.61684453,0.64891523,0.06123844,0.060711093,0.118815325,0.11773919,127.01629,126.99761,127.837715,127.810814,0,0,0,0,0,0,0,0,0,0,0,0,-0.008333728,-0.0071543483,-0.009334078,0.00021405765,0.061802894,0.061131183,0.1191814,0.11773939,0.0019454658,0.0059420764,0.015518993,0.019158423,53,3,190,2,4,-7110.113,139.36575,-1621.2389,40.83532,258730.33,378.4772,120.59628,119.0997,129.50627,129.50627,23.196556,1,187.97409,0,0,11.474523,11.474516,0,8,255,0,0,0,3,0,214,0
True,2408375,7999.995,1269.8213,6574.6436,0.008710861,-1.2106057,2.0069983,0.021566391,-0.11341667,41.0411,0.037329935,0.0026700185,0.011698579,0.67196345,-0.04636698,-0.025618438,0.4617569,0.48353863,0.57810277,0.5951927,0.059313018,0.05730384,0.1538649,0.15578799,127.59184,127.55424,128.84825,128.85979,0,0,0,0,0,0,0,0,0,0,0,0,-0.0074551622,-0.0066555385,-0.0075037736,-0.002638134,0.059779707,0.05768905,0.15404777,0.15581033,-0.0045126677,-0.001942426,0.011122525,0.013061911,53,3,190,2,4,-7107.578,139.55133,-1618.0552,41.04126,258249.03,375.14587,120.60396,119.11207,129.51546,129.51546,23.196556,1,191.79404,0,0,11.574026,11.574018,0,8,255,0,0,0,3,0,219,0
True,2408484,7999.995,1269.8213,6600.9062,0.019241929,-0.6718196,2.154725,0.01712799,-0.11350989,41.249435,-0.0044679614,0.0026441584,0.018618997,0.6721869,-0.044820376,-0.024144594,0.4590265,0.48193133,0.5392767,0.55055434,0.04913096,0.04814526,0.13358158,0.13375813,128.19748,128.17372,129.32898,129.32027,0,0,0,0,0,0,0,0,0,0,0,0,-0.0070820497,-0.006770951,-0.005755001,-0.004747041,0.049638763,0.04861905,0.13370548,0.13384233,-0.0048348606,-0.002132088,0.00671649,0.007996291,53,3,190,2,4,-7105.0933,139.72081,-1614.9342,41.24959,258016.88,373.30157,120.617676,119.132454,129.52638,129.52638,23.196556,1,195.53828,0,0,11.671067,11.671061,0,8,255,0,0,0,3,0,224,0
True,2408609,7999.995,1269.8213,6636.4707,-0.084929526,-0.076068014,1.9343264,0.015756607,-0.12313795,41.501057,0.01169136,0.0022197543,0.0009859004,0.67249906,-0.045305207,-0.02277042,0.49225405,0.49564797,0.5701832,0.58218414,0.05227238,0.05473474,0.12431162,0.12316252,128.98457,129.00116,129.98012,129.96272,0,0,0,0,0,0,0,0,0,0,0,0,-0.004476823,-0.0037849334,-0.004359995,-0.00089750084,0.052463736,0.05486545,0.124388054,0.12316579,-0.0009140074,-0.0005135238,0.010223806,0.011585683,53,3,190,2,4,-7101.9917,139.93195,-1611.0406,41.50124,257613.45,370.74115,120.63777,119.15681,129.54056,129.54056,23.196556,1,200.21043,0,0,11.791477,11.79147,0,8,255,0,0,0,3,0,230,0
True,2408718,7999.995,1269.8213,6674.44,0.020333946,-0.13008198,1.9254942,0.019643784,-0.10958743,41.723656,-0.00724781,0.002151912,0.004182164,0.6727087,-0.04438608,-0.022797901,0.50225705,0.52834064,0.58166885,0.5820202,0.047495928,0.045201324,0.1282716,0.129538,129.65372,129.61575,130.75397,130.75847,0,0,0,0,0,0,0,0,0,0,0,0,-0.0054619214,-0.005022171,-0.006149899,-0.0020452193,0.04780895,0.04547947,0.12841894,0.12955415,0.00026634336,0.003344208,0.0115272105,0.011567086,53,3,190,2,4,-7099.1797,140.12067,-1607.5133,41.723804,257184.97,367.99802,120.65431,119.17941,129.55096,129.55096,23.196556,1,204.44249,0,0,11.899968,11.8999605,0,8,255,0,0,0,3,0,235,0
True,2408812,7999.995,1269.8213,6703.762,0.17121899,0.2645645,2.0906482,0.017448425,-0.11610472,41.93601,0.005406932,0.002129089,0.0036767633,0.67296505,-0.045496628,-0.022084314,0.5022967,0.51143414,0.58303607,0.6010244,0.053500548,0.056255475,0.117726654,0.11591046,130.3654,130.39035,131.26993,131.24258,0,0,0,0,0,0,0,0,0,0,0,0,-0.005221459,-0.004452339,-0.005638199,-0.00092266104,0.05375474,0.05643139,0.11786159,0.115914136,0.00027102232,0.0013492405,0.011682361,0.013723701,53,3,190,2,4,-7096.4653,140.3055,-1604.1099,41.936172,256843.28,365.9096,120.672935,119.203766,129.56352,129.56352,23.196556,1,208.52876,0,0,12.004124,12.004117,0,8,255,0,0,0,3,0,240,0
True,2408921,7999.995,1269.8213,6745.9014,0.4524626,-1.0353426,2.2911594,0.021896362,-0.11594403,42.14286,0.03154554,0.0018748206,-0.005416561,0.67310166,-0.042513475,-0.022445764,0.50139123,0.47473988,0.5743815,0.57233906,0.054468118,0.052885562,0.1434049,0.14510705,130.96278,130.93414,132.1835,132.1925,0,0,0,0,0,0,0,0,0,0,0,0,-0.004896074,-0.0041858815,-0.0052206125,-0.0017033682,0.054687727,0.05305096,0.1434999,0.14511704,0.000164181,-0.0029806793,0.010700226,0.010468453,53,3,190,2,4,-7093.747,140.48592,-1600.703,42.14303,256317.02,362.88272,120.68257,119.21736,129.57175,129.57175,23.196556,1,212.61974,0,0,12.10788,12.107872,0,8,255,0,0,0,3,0,246,0
True,2409046,7999.995,1269.8213,6774.9355,0.51904863,0.23451205,2.3056874,0.03501129,-0.108236074,42.38807,-0.019846775,0.00817249,0.0032719588,0.673422,-0.04276602,-0.022979237,0.56030667,0.56515634,0.6165672,0.5918561,0.046825755,0.047170438,0.11131299,0.11487725,131.74744,131.716,132.65656,132.669,0,0,0,0,0,0,0,0,0,0,0,0,0.044146452,0.04507615,-0.008303221,-0.0027869754,0.064354956,0.065244995,0.111622244,0.11491105,0.0071161985,0.0076884627,0.015487522,0.012683272,53,3,190,2,4,-7090.5737,140.68674,-1596.728,42.388218,255934.33,360.77274,120.70726,119.24786,129.58386,129.58386,23.196556,1,217.39363,0,0,12.228308,12.2283,0,8,255,0,0,0,3,11,252,0
True,2409156,7999.995,1269.8213,6816.2344,2.9662304,-0.751274,1.7353969,0.13866615,-0.11657488,42.571465,0.046830565,0.11765244,0.056998868,0.67890644,-0.040980656,-0.019719267,0.50901556,0.51106364,0.6113592,0.616392,0.054966275,0.11188127,0.114677906,0.16712624,132.46826,132.60446,133.4208,133.52081,0,0,0,0,0,0,0,0,0,0,0,0,0.3731217,0.42118907,-0.0016896023,0.005511214,0.37714863,0.43579543,0.11469035,0.16721709,0.0010638535,0.0013055205,0.014896512,0.015467644,53,3,190,2,4,-7087.908,140.85573,-1593.4147,42.57185,255380.89,357.85526,120.78377,119.31142,129.59685,129.59685,23.196556,1,221.38573,0,0,12.32848,12.328473,0,8,255,0,0,0,3,78,0,0
True,2409265,7999.995,1269.8213,6669.287,2.4102678,-1.169414,-0.46072882,-0.22799873,-0.050780296,42.473557,0.035346135,0.13828793,0.0026655495,0.69442904,-0.0359597,-0.017451864,0.5272657,0.47674775,0.58825666,0.5491265,-0.0036426673,-0.004849398,-0.015404463,-0.019534469,131.49307,130.80492,131.32957,130.61566,0,0,0,0,0,0,0,0,0,0,0,0,0.013713121,0.0143676,0.09498398,0.101177774,0.014188683,0.015163924,0.096225016,0.10304629,0.0032173693,-0.0027437508,0.012274802,0.007834256,53,3,190,2,4,-7085.205,141.00996,-1590.1177,42.4742,-44618.266,-63.8704,120.879425,119.37973,129.57391,129.57391,-3.6524448,1,225.38438,0,0,12.428775,12.428768,0,8,255,0,0,0,3,0,4,0
True,2409375,7999.995,1269.8213,6458.925,3.135367,-1.2098104,-0.79555416,-0.3521309,0.035956502,42.342186,0.05145599,0.05945831,0.02411207,0.7058019,-0.030766778,-0.0152561525,0.59859985,0.54634523,0.5859551,0.5230464,0.0009929077,0.0006553279,0.001325279,0.0017705854,130.93402,130.63907,130.93599,130.65541,0,0,0,0,0,0,0,0,0,0,0,0,0.058126885,0.061401285,0.09524362,0.10073496,0.058135364,0.061404783,0.095252834,0.10075051,0.011634797,0.005468756,0.012013614,0.0048746467,53,3,190,2,4,-7081.9336,141.18192,-1586.1799,42.343666,-43235.363,-63.8704,120.89699,119.38852,129.57089,129.57089,-9.861675,1,230.19249,0,0,12.549582,12.549574,0,8,255,0,0,0,3,0,8,0
True,2409468,7999.995,1269.8213,6236.953,2.7693756,-1.2008163,-0.8618434,-0.26078606,0.07069981,42.248665,0.029162008,0.025859838,0.02936939,0.7099829,-0.026944457,-0.012575181,0.5019744,0.47762135,0.57758695,0.53831947,0.0010069829,0.00078530115,0.0013778709,0.0015607165,130.60269,130.4737,130.60776,130.48555,0,0,0,0,0,0,0,0,0,0,0,0,0.046822004,0.04824811,0.06270748,0.066319406,0.04683283,0.048254497,0.06272261,0.066337764,0.00023299456,-0.0026406646,0.011063993,0.0066078603,53,3,190,2,4,-7079.1396,141.31218,-1582.8687,42.249527,-41563.56,-63.576317,120.919876,119.4046,129.55602,129.55602,-10.782203,1,234.26224,0,0,12.652061,12.652053,0,8,255,0,0,0,4,0,11,0
True,2409593,7999.995,1269.8213,5646.426,1.6257601,-1.3179473,-0.1781494,-0.12140846,0.0666213,42.22335,0.023866668,0.003605374,-0.0057830857,0.7114799,-0.023447033,-0.011385215,0.5004517,0.46674755,0.48331952,0.46355274,0.033736277,0.034936264,0.08736717,0.09577198,130.96321,130.95238,131.71457,131.79753,0,0,0,0,0,0,0,0,0,0,0,0,0.027095623,0.027068172,0.029983688,0.03099459,0.04327019,0.044195343,0.092369065,0.10066249,5.3316355E-05,-0.0039237738,0.00036638975,-0.0018767715,53,3,190,2,4,-7075.8516,141.44846,-1579.0159,42.22357,20655.797,34.788864,120.93782,119.411606,129.52618,129.52618,-2.482154,1,239.02036,0,0,12.772097,12.772089,0,8,255,0,0,0,4,0,14,0
True,2409703,7999.995,1269.8213,5308.7065,1.3823713,-0.7600252,0.64294606,-0.047502518,0.01287061,42.274754,-0.004612771,-0.0008956922,-0.0069845906,0.7115881,-0.023587665,-0.0123901265,0.52794486,0.5126224,0.5278638,0.5053028,0.017875522,0.018372262,0.041759778,0.042855445,130.92377,130.93405,131.25542,131.27235,0,0,0,0,0,0,0,0,0,0,0,0,0.011879649,0.012257335,0.0120667955,0.011368672,0.021463,0.022085793,0.043468226,0.04433775,0.0032975078,0.0014894605,0.0054213405,0.0028610826,53,3,190,2,4,-7073.5273,141.5359,-1576.3104,42.27478,80249.97,144.3439,120.94734,119.423615,129.51277,129.51277,0.16373253,1,242.36429,0,0,12.856515,12.856507,0,8,255,0,0,0,4,0,15,0
True,2409828,7999.995,1269.8213,5342.6763,0.69044447,-1.4286275,0.6480251,-0.0021381378,0.00028002262,42.32814,0.031022504,-0.0021414626,0.0052379714,0.71131706,-0.020199602,-0.012749538,0.49920052,0.48828655,0.52381164,0.5075033,0.031941548,0.02988358,0.09009559,0.09242643,131.22055,131.20576,132.01656,132.04938,0,0,0,0,0,0,0,0,0,0,0,0,0.00030922095,0.00058567926,-0.000294457,-0.00093838957,0.031943046,0.02988932,0.090096064,0.092431195,-9.432435E-05,-0.0013821721,0.0049614906,0.0031107962,53,3,190,2,4,-7070.565,141.63684,-1572.8704,42.328136,159573.75,285.28284,120.94092,119.423676,129.48721,129.48721,4.65108,1,246.62886,0,0,12.963885,12.963878,0,8,255,0,0,0,4,0,17,0
True,2409937,7999.995,1269.8213,5298.1826,-0.15054923,-1.5580577,1.141851,0.0041122437,-0.044039547,42.506714,0.04062823,-0.0003689975,0.021974005,0.7111159,-0.01671538,-0.010551045,0.42947116,0.4500254,0.50205183,0.5141696,0.04592333,0.046284918,0.121142805,0.11951255,131.94823,131.95552,132.99365,132.97893,0,0,0,0,0,0,0,0,0,0,0,0,-0.003985275,-0.0036054444,-0.00408708,-0.0044120667,0.046095926,0.04642513,0.12121173,0.11959396,-0.008322388,-0.0058969855,0.0024921596,0.0038672984,53,3,190,2,4,-7067.014,141.73523,-1568.7499,42.506737,212429.5,382.96585,120.94224,119.4348,129.47534,129.47534,15.322434,1,251.73813,0,0,13.092154,13.092146,0,8,255,0,0,0,4,0,19,0
True,2410046,7999.995,1269.8213,5325.1455,0.016945124,-0.5634639,1.8826467,0.0005340576,-0.07135832,42.704147,-0.02185364,0.00014174305,0.016618501,0.71108747,-0.015929708,-0.008789547,0.4177826,0.46888927,0.511291,0.51246285,0.04237912,0.04013315,0.11340145,0.11660509,132.65126,132.62202,133.63913,133.67561,0,0,0,0,0,0,0,0,0,0,0,0,-0.0021214106,-0.0022377248,-0.0020790866,-0.0023955568,0.04243218,0.040195484,0.11342051,0.11662969,-0.009701639,-0.00367105,0.003540635,0.003673613,53,3,190,2,4,-7064.096,141.79958,-1565.363,42.70421,237505.56,425.93988,120.956726,119.45473,129.47534,129.47534,21.576912,1,255.93704,0,0,13.197093,13.197085,0,8,255,0,0,0,4,0,21,0
True,2410156,7999.995,1269.8213,5349.482,-0.017277956,0.07314017,1.9309822,-0.010017395,-0.1164093,42.912445,0.0056419857,0.0011485633,0.0353127,0.71117425,-0.017713917,-0.0059668366,0.4141053,0.4653875,0.49068254,0.5374536,0.05320389,0.05184341,0.110317566,0.10951532,133.38622,133.36516,134.21814,134.20438,0,0,0,0,0,0,0,0,0,0,0,0,-0.0030210821,-0.0024926302,-0.0021586774,-0.0021016658,0.053289592,0.051903296,0.11033869,0.109535486,-0.010135561,-0.0040842593,0.0012019575,0.006509602,53,3,190,2,4,-7061.1924,141.86606,-1561.9913,42.912605,243257.98,434.301,120.97125,119.47824,129.48465,129.48465,22.86599,1,260.1165,0,0,13.301048,13.301041,0,8,255,0,0,0,4,0,23,0
True,2410265,7999.995,1269.8213,5381.8247,-0.050083816,-0.69698507,1.937345,-0.017141342,-0.12073621,43.12679,0.0064961007,0.000868143,0.025091244,0.7112767,-0.015690329,-0.0027216128,0.45491377,0.49197295,0.4869707,0.5201134,0.044605155,0.045095675,0.12973504,0.13070048,133.94063,133.94257,135.12375,135.12776,0,0,0,0,0,0,0,0,0,0,0,0,8.706854E-05,0.00042565106,0.0003618908,0.0005880836,0.04460524,0.045097683,0.12973554,0.13070181,-0.0053201616,-0.0009471774,0.00078073144,0.0045418143,53,3,190,2,4,-7058.2397,141.92857,-1558.5624,43.12696,245219.53,435.15424,120.98251,119.49429,129.49007,129.49007,23.130402,1,264.36298,0,0,13.406236,13.406229,0,8,255,0,0,0,4,0,25,0
True,2410390,7999.995,1269.8213,5406.8433,0.3344527,0.3724579,2.2639349,-0.01407814,-0.12024158,43.381996,-3.3604912E-05,-0.000491337,0.020238196,0.7112866,-0.017049184,-0.00029790495,0.44957283,0.49371058,0.5776306,0.5826009,0.05329259,0.049842525,0.10445541,0.10710905,134.86089,134.81859,135.62045,135.65128,0,0,0,0,0,0,0,0,0,0,0,0,0.00022352302,0.0008618288,-0.0012111036,0.002161838,0.05329306,0.049849976,0.10446243,0.10713086,-0.0059503913,-0.00074213743,0.01106894,0.011632979,53,3,190,2,4,-7054.736,142.00143,-1554.4938,43.38216,246138.2,434.76614,121.00673,119.52438,129.50171,129.50171,23.186687,1,269.40604,0,0,13.530368,13.530362,0,8,255,0,0,0,4,0,27,0
True,2410500,7999.995,1269.8213,5446.325,-0.16800076,-1.4706383,1.9650319,-0.020271301,-0.12085262,43.598686,0.040031247,-0.000115530784,0.04136142,0.7112572,-0.013002993,0.003268631,0.35601678,0.4414757,0.459952,0.52600396,0.053835854,0.0518262,0.14999016,0.14884958,135.45312,135.43025,136.79764,136.78297,0,0,0,0,0,0,0,0,0,0,0,0,-0.0011102672,-0.0007069203,-0.0018211951,-0.0013345738,0.0538473,0.051831022,0.15000121,0.14885555,-0.016990006,-0.0069058537,-0.002285391,0.0052102804,53,3,190,2,4,-7051.6885,142.06001,-1550.9543,43.59886,247245.23,433.57086,121.01083,119.537125,129.50826,129.50826,23.194683,1,273.79254,0,0,13.63777,13.637764,0,8,255,0,0,0,4,0,29,0
True,2410609,7999.995,1269.8213,5464.0537,-1.1325732,-0.23516409,0.9998146,-0.026794434,-0.12928312,43.829933,-0.01603017,-0.00027414656,0.025567107,0.71124905,-0.012338549,0.007181933,0.4842703,0.5119054,0.5012629,0.53794813,0.04216211,0.043277945,0.11064016,0.111640535,136.13333,136.14664,137.11884,137.13173,0,0,0,0,0,0,0,0,0,0,0,0,0.0022892368,0.0026075596,0.0022821939,0.0023539115,0.04222421,0.04335643,0.1106637,0.111665346,-0.0018560886,0.0014048517,0.0024026334,0.00656572,53,3,190,2,4,-7048.562,142.10434,-1547.3221,43.83013,247744.14,433.00427,121.030914,119.56123,129.51614,129.51614,23.196236,1,278.29333,0,0,13.747397,13.747392,0,8,255,0,0,0,4,0,31,0
True,2410703,7999.995,1269.8213,5485.2036,-0.095632255,0.3527941,1.9577765,-0.024965286,-0.11424123,44.00838,-0.0039770426,-0.0010063298,0.03007327,0.71117413,-0.01315856,0.009509137,0.46867207,0.5125355,0.5530946,0.5762518,0.043765742,0.041782785,0.10910377,0.11108031,136.68,136.66074,137.64421,137.66493,0,0,0,0,0,0,0,0,0,0,0,0,0.0015903055,0.0019028743,0.00037004537,0.0029614507,0.04379463,0.041826095,0.109104395,0.111119784,-0.00369668,0.0014792085,0.008284569,0.010912478,53,3,190,2,4,-7046.054,142.14288,-1544.4084,44.008537,248307.33,432.34415,121.04669,119.58281,129.52556,129.52556,23.196495,1,281.9022,0,0,13.834926,13.834921,0,8,255,0,0,0,4,0,33,0
True,2410828,7999.995,1269.8213,5514.2075,-1.0129302,0.67287874,1.7146097,-0.06934357,-0.10173639,44.247345,-0.0057785464,-0.02393527,0.0017177591,0.71053904,-0.014792913,0.012548753,0.50616467,0.53073716,0.57933444,0.59878474,0.053975686,0.044280745,0.10876227,0.10101812,137.50507,137.4861,138.33405,138.34297,0,0,0,0,0,0,0,0,0,0,0,0,-0.13009979,-0.12392841,0.0045427363,0.008657856,0.14085215,0.13160181,0.1088571,0.10138846,0.0007274449,0.0036270022,0.011262298,0.013469547,53,3,190,2,4,-7042.6245,142.20392,-1540.4204,44.247513,249086.9,431.4093,121.075485,119.618744,129.53606,129.53606,23.196552,1,286.84213,0,0,13.954124,13.954119,0,8,255,0,0,0,4,-127,35,0
True,2410921,7999.995,1269.8213,5556.13,-4.115828,-1.1071582,2.0458179,-0.1354847,-0.09746537,44.435894,0.03284899,-0.17565902,-0.075110935,0.7010255,-0.011511846,0.008872766,0.4095329,0.4656133,0.5380886,0.5808989,0.097397305,0.048094593,0.20393139,0.11230305,138.05104,138.27919,139.72057,139.38197,0,0,0,0,0,0,0,0,0,0,0,0,-0.5205814,-0.45488366,-0.020502867,-0.01638383,0.5296142,0.4574191,0.20495947,0.11349187,-0.0106751025,-0.004057616,0.006581664,0.01143983,53,3,190,2,4,-7039.591,142.25587,-1536.8507,44.43621,250179.08,430.0673,121.17008,119.75142,129.53986,129.53986,23.196552,1,291.24115,0,0,14.05976,14.059754,0,8,255,0,0,0,4,-127,38,0
True,2411062,7999.995,1269.8213,5575.6445,-5.8025837,-0.70041513,2.01373,0.4870205,-0.10569067,44.645653,0.008847384,-0.26650834,0.023025416,0.6687529,-0.009337679,0.0037648776,0.32707897,0.5214732,0.41028556,0.5577485,0.06330747,0.040010773,0.18309236,0.09413887,138.24481,139.24817,139.93774,140.06267,0,0,0,0,0,0,0,0,0,0,0,0,-0.040528495,-0.03696665,-0.20068283,-0.18163775,0.07516911,0.054473802,0.27165493,0.20458348,-0.020404667,0.002533853,-0.007921606,0.008812696,53,3,190,2,4,-7036.1743,142.2978,-1532.6913,44.648434,250707.42,429.41293,121.367424,120.06154,129.5643,129.5643,23.196552,1,296.29245,0,0,14.180628,14.180622,0,8,255,0,0,0,4,0,43,0
True,2411171,7999.995,1269.8213,5601.2505,-6.262265,-0.44246185,2.0706422,0.7334671,-0.106864095,44.843895,0.0038311332,-0.1274461,0.021042308,0.6491434,-0.008235818,0.0060348758,0.37347385,0.5944616,0.40766674,0.6182427,0.06418433,0.03684773,0.17808774,0.10208137,139.21884,139.49504,140.81902,140.49026,0,0,0,0,0,0,0,0,0,0,0,0,-0.1296238,-0.11682096,-0.21232732,-0.18687321,0.14464425,0.12249446,0.27712476,0.21293709,-0.014930069,0.011146486,-0.008218795,0.01567766,53,3,190,2,4,-7033.2925,142.32741,-1529.0735,44.850025,251367.84,428.58963,121.38927,120.12554,129.6148,129.6148,23.196552,1,300.62744,0,0,14.283986,14.28398,0,8,255,0,0,0,4,0,49,0
True,2411281,7999.995,1269.8213,5624.2773,-5.2997465,-0.57101166,2.1636071,0.46753502,-0.118569106,45.083935,0.03184461,-0.028866554,0.0401398,0.640541,-0.007233297,0.009621222,0.3993054,0.61517143,0.51824594,0.7022729,0.06917064,0.04490561,0.14104664,0.10757763,140.20874,140.04852,141.27568,141.01967,0,0,0,0,0,0,0,0,0,0,0,0,-0.100610666,-0.09394073,-0.117084436,-0.09957252,0.122094564,0.10412192,0.18331099,0.14658661,-0.0118819475,0.013590246,0.00432989,0.025213525,53,3,190,2,4,-7030.04,142.35742,-1524.8606,45.086517,251969.5,427.8636,121.42702,120.21221,129.65515,129.65515,23.196556,1,305.61313,0,0,14.402342,14.402335,0,8,255,0,0,0,4,0,58,0
True,2411390,7999.995,1269.8213,5652.148,-5.7662735,-0.6097696,1.9822533,0.120801926,-0.10671141,45.287655,0.00028875656,-0.1092992,-0.009822912,0.635223,-0.005216351,0.011542392,0.3769102,0.5663585,0.455405,0.6460733,0.08652168,0.039342705,0.15343419,0.09853324,140.8599,140.7623,141.94514,141.75934,0,0,0,0,0,0,0,0,0,0,0,0,-0.41045552,-0.3526699,-0.06223488,-0.05118575,0.41947556,0.3548576,0.16557546,0.11103504,-0.014524579,0.007830322,-0.0028013885,0.018835917,53,3,190,2,4,-7027.189,142.37401,-1521.0714,45.28794,252668.66,426.9154,121.499985,120.33067,129.66565,129.66565,23.196556,1,310.05066,0,0,14.507274,14.507267,0,8,255,0,0,0,4,-127,68,0
True,2411500,7999.995,1269.8213,5675.3584,-6.983822,-0.30584496,1.8215885,0.2652359,-0.08796233,45.465343,0.016310953,-0.21950148,0.06395942,0.61599326,-0.004119544,0.012153331,0.3599608,0.60486186,0.4411469,0.65289116,0.061131835,0.040767167,0.17302555,0.09502652,140.84888,141.67621,142.4625,142.51566,0,0,0,0,0,0,0,0,0,0,0,0,-0.009075622,-0.008111633,-0.13719197,-0.11901623,0.061801847,0.04156634,0.22081548,0.15229873,-0.016524613,0.012373716,-0.004419416,0.019609615,53,3,190,2,4,-7024.462,142.38634,-1517.322,45.4662,253258.33,426.1488,121.65963,120.59573,129.67712,129.67712,23.196556,1,314.38248,0,0,14.609451,14.609444,0,8,255,0,0,0,4,0,78,0
True,2411609,7999.995,1269.8213,5703.0615,-4.9976625,-0.64696324,2.057599,0.5555496,-0.08223304,45.676445,0.015506275,-0.10788051,0.020153161,0.5991872,-0.0018949669,0.016970767,0.3409459,0.52979916,0.44656184,0.6282085,0.057493884,0.038079895,0.16320324,0.11257366,141.74596,142.01643,143.27846,143.15154,0,0,0,0,0,0,0,0,0,0,0,0,-0.09347687,-0.08642698,-0.1601194,-0.14665408,0.10974275,0.09444417,0.22863403,0.18487902,-0.01876837,0.0035163164,-0.003804922,0.0168086,53,3,190,2,4,-7021.6606,142.3926,-1513.3713,45.679897,253924.61,425.2756,121.67766,120.63451,129.7108,129.7108,23.196556,1,319.12027,0,0,14.715713,14.715704,0,8,255,0,0,0,4,0,87,0
True,2411734,7999.995,1269.8213,5726.8765,-5.680444,0.4632542,2.0772038,0.33005714,-0.096636236,45.929604,-0.025909651,-0.091293566,0.013252185,0.58796465,-0.0029969902,0.01888279,0.38953808,0.5716328,0.4489438,0.6145634,0.052204076,0.033665936,0.13566247,0.08899042,142.56248,142.7661,143.80998,143.65273,0,0,0,0,0,0,0,0,0,0,0,0,-0.15994562,-0.14626856,-0.101730555,-0.09013077,0.16824943,0.15009293,0.16956832,0.12666038,-0.013034493,0.008452684,-0.003534615,0.01526013,53,3,190,2,4,-7018.3545,142.39342,-1508.5736,45.93089,254534.84,424.4573,121.742645,120.75787,129.73904,129.73904,23.196556,1,324.583,0,0,14.842909,14.842901,0,8,255,0,0,0,4,-18,101,0
True,2411828,7999.995,1269.8213,5745.742,-7.5199885,1.9831936,1.7755258,0.159338,-0.060552612,46.08213,-0.05972368,-0.19064824,-0.049750358,0.5766171,-0.0064747944,0.017911557,0.50568604,0.69071376,0.49505672,0.68983066,0.06074415,0.03163801,0.1416129,0.0720143,142.88396,143.41623,144.20615,144.18996,0,0,0,0,0,0,0,0,0,0,0,0,-0.41344407,-0.35424146,-0.08835429,-0.06968431,0.4178826,0.3556515,0.16691522,0.100209594,0.0006709695,0.02250424,0.001698345,0.023801565,53,3,190,2,4,-7016.1226,142.40506,-1505.2274,46.082443,254996.73,423.83405,121.83855,120.90973,129.7534,129.7534,23.196556,1,328.34958,0,0,14.9303255,14.930318,0,8,255,0,0,0,4,-125,110,71
True,2411937,7999.995,1269.8213,5781.3955,-9.942186,1.3010857,1.4351883,0.44750786,-0.014288176,46.21928,0.032999776,-0.34242082,-0.033650696,0.5459336,-0.008818845,0.012505156,0.43779585,0.6617827,0.5398681,0.7727999,0.22211708,0.059916124,0.20464998,0.075909086,144.5866,144.13133,145.01508,144.89572,0,0,0,0,0,0,0,0,0,0,0,0,-0.8719062,-0.7170947,-0.20559746,-0.15749907,0.8997536,0.71959347,0.29008952,0.1748375,-0.0073400736,0.01909037,0.0067836046,0.033217028,53,3,190,2,4,-7013.422,142.44461,-1500.9891,46.22145,255836.98,422.69162,122.072075,121.2897,129.78165,129.78165,23.196556,1,333.04626,0,0,15.039215,15.0392065,0,8,255,0,0,0,4,-76,119,74
True,2412062,7999.995,1269.8213,5804.1597,-8.861759,0.48442733,2.1725159,1.1984138,0.027006062,46.409176,-0.04222141,-0.25147003,-0.012739226,0.50682247,-0.0074393447,0.01216744,0.41376483,0.68856144,0.43292198,0.681775,0.05801995,0.031545356,0.21106783,0.09290355,143.80057,144.67528,145.98212,145.66118,0,0,0,0,0,0,0,0,0,0,0,0,-0.1835759,-0.15980951,-0.34046665,-0.28633454,0.19252643,0.16289319,0.40058354,0.30102912,-0.010175735,0.022250265,-0.005352795,0.022887394,53,3,190,2,4,-7010.553,142.48737,-1496.2467,46.424656,256421.28,421.88693,122.22617,121.549416,129.85735,129.85735,23.196556,1,339.2359,0,0,15.158879,15.15887,0,8,255,0,0,0,4,0,124,68
True,2412156,7999.995,1269.8213,5818.0596,-11.85181,1.8772707,1.7323117,0.9870491,0.025789797,46.567688,-0.039379288,-0.2198904,-0.057022776,0.48492342,-0.012176336,0.008237302,0.4397527,0.7306263,0.4615973,0.7479496,0.101575255,0.036366366,0.18547773,0.07735431,144.78499,144.96783,146.22292,145.86768,0,0,0,0,0,0,0,0,0,0,0,0,-0.5514718,-0.45227367,-0.27686432,-0.21810746,0.56074834,0.45373338,0.33325043,0.23141858,-0.007109165,0.027213916,-0.0020986795,0.030396983,53,3,190,2,4,-7008.1743,142.53865,-1492.085,46.578148,256741.38,421.44257,122.344345,121.77926,129.93617,129.93617,23.196556,1,343.7432,0,0,15.261963,15.261953,0,8,255,0,0,0,4,-127,126,55
True,2412281,7999.995,1269.8213,5843.2256,-12.299841,1.4543782,1.6638336,0.92453194,0.042427003,46.67199,-0.008977715,-0.30615553,-0.029717777,0.45838106,-0.014981083,0.0036532904,0.4292436,0.79399925,0.4583369,0.8140378,0.22147106,0.056793626,0.2204572,0.079007134,146.08087,145.37291,146.77826,146.38391,0,0,0,0,0,0,0,0,0,0,0,0,-0.98657745,-0.782053,-0.29699507,-0.22251189,1.0111303,0.7841125,0.3698749,0.23612215,-0.00834924,0.03469193,-0.0024686754,0.037896767,53,3,190,2,4,-7005.9727,142.60713,-1487.9752,46.68116,257333.47,420.61215,122.58584,122.20871,129.9961,129.9961,23.196556,1,348.12897,0,0,15.361952,15.361942,0,8,255,0,0,0,4,-127,126,41
True,2412375,7999.995,1269.8213,5561.081,-12.383902,-0.019453652,-1.2742233,1.2941475,0.114112854,46.484833,0.04975399,-0.3502089,-0.018788647,0.4236614,-0.012891553,0.0017681147,0.38303006,0.7350969,0.41243038,0.77409554,-0.33869603,-0.44121757,-0.2569554,-0.16704719,137.0521,138.2157,138.5678,141.3443,0,0,0,0,0,0,0,0,0,0,0,0,-1.13822,-0.9114925,-0.41359764,-0.32646504,1.1875435,1.0126656,0.4869179,0.36672086,-0.013802439,0.027741447,-0.0076782107,0.033364058,53,3,190,2,4,-7003.821,142.68329,-1483.6781,46.502983,250342.28,429.86554,123.046524,122.79224,130.06068,130.06068,23.196556,1,352.64798,0,0,15.464927,15.464917,0,8,255,255,0,0,4,-127,125,153
True,2412500,7999.995,1269.8213,5279.0244,-12.745192,0.12311457,-7.222889,1.8339901,0.46283174,45.45229,0.06097704,-0.41166535,-0.0045626555,0.37863165,-0.0054814583,-0.0003449703,0.44858456,0.84004235,0.31340504,0.6935877,-1.0542963,-0.06515983,-0.69785106,-0.38662386,124.30711,138.95583,129.98625,134.8902,0,0,0,0,0,0,0,0,0,0,0,0,-1.2240529,-0.93435025,-0.5898642,-0.47295025,1.6155018,0.9366196,0.91374826,0.6108682,-0.006067008,0.040125012,-0.018915743,0.024227917,53,3,190,2,4,-7001.5303,142.76585,-1478.7529,45.49163,210313.72,380.3417,124.24585,124.09337,130.19043,130.19043,23.196556,1,358.75064,0,0,15.582986,15.582977,0,8,225,255,0,0,4,-127,120,129
True,2412609,7999.995,1269.8213,5085.237,-14.34725,1.1319506,-8.777307,2.4566774,0.71397233,44.38892,-0.010609577,-0.49031267,0.021422802,0.3324933,-0.0027089089,0.00074546813,0.5108161,0.86801344,0.26599795,0.64241767,-0.5867918,-0.5079532,-0.82697284,-0.560532,127.24584,127.72807,124.94538,129.61844,0,0,0,0,0,0,0,0,0,0,0,0,-1.3149132,-0.98870605,-0.7847196,-0.64710945,1.4399033,1.1115557,1.1400303,0.8561231,0.0012763143,0.043425605,-0.024295568,0.018421069,53,3,190,2,4,-6999.74,142.84326,-1474.5558,44.46258,236855.2,444.51877,125.75109,125.52019,130.39226,130.39226,23.196556,1,363.02264,0,0,15.6844225,15.684414,0,8,255,255,0,0,4,-127,115,129
True,2412718,7999.995,1269.8213,4936.19,-14.798465,1.0227052,-8.5609045,3.4432716,0.67671144,43.150597,-0.0048486968,-0.52330405,-0.008396298,0.2696832,-0.0070638936,0.0013727417,0.51063097,0.8533781,0.27249277,0.64445883,-0.5899351,-0.22868654,-0.913459,-0.64337415,122.86139,129.96739,120.13454,124.684616,0,0,0,0,0,0,0,0,0,0,0,0,-1.6302438,-1.3388374,-1.0408801,-0.85313284,1.7337008,1.358228,1.3848605,1.0685345,0.0012544692,0.041698635,-0.023558527,0.018652707,53,3,190,2,4,-6997.877,142.95563,-1469.715,43.293045,203830.2,394.01163,128.02928,128.0505,130.767,130.767,23.196556,1,367.89313,0,0,15.802732,15.802724,0,8,227,255,0,0,4,-127,108,129
True,2412843,7999.995,1269.8213,4547.621,-11.97919,-1.2856003,-6.9711013,4.6145105,0.67880476,42.080276,0.025605844,-0.53625274,-0.012596332,0.21102467,-0.0024065445,0.00030373622,0.44908008,0.81624746,0.24730895,0.61108345,-0.56548125,-0.182939,-1.6786953,-1.2861073,119.62793,122.45841,108.42044,113.20131,0,0,0,0,0,0,0,0,0,0,0,0,-1.873903,-1.4691344,-1.4088296,-1.1760439,1.957366,1.4804806,2.1915333,1.7427424,-0.0060085356,0.037317216,-0.026416421,0.01486522,53,3,190,2,4,-6996.2505,143.0565,-1465.0391,42.33798,214388.36,448.24658,130.8283,131.78976,132.32642,132.32642,23.196556,1,372.54855,0,0,15.918418,15.918409,0,8,250,255,0,0,4,-127,100,134
True,2412953,7999.995,1269.8213,4845.567,-14.382998,0.76372415,-7.473319,5.587154,0.72999203,40.976627,-0.03276859,-0.6013594,0.0029370822,0.15314527,-0.0037197277,0.0011792768,0.49473497,0.8646812,0.23611772,0.603088,-0.4475252,-0.054881968,-0.50966424,-0.45133847,118.04262,125.55281,120.012436,122.279976,0,0,0,0,0,0,0,0,0,0,0,0,-2.1527727,-1.6486763,-1.6697347,-1.3599488,2.198797,1.6495894,1.7457868,1.4328877,-0.0006212592,0.043032393,-0.027686417,0.013957888,53,3,190,2,4,-6994.9907,143.13933,-1461.0333,41.36222,228077.61,452.01974,134.16467,136.69315,134.9928,134.9928,23.196556,1,377.17938,0,0,16.018852,16.018843,0,8,255,0,0,0,4,-127,93,17
True,2413062,7999.995,1269.8213,5243.71,-14.217678,-0.38956544,-1.1318778,6.515913,0.60406405,40.55896,-0.0056692767,-0.5617084,-0.015093434,0.094711564,-0.005916592,5.906151E-05,0.44376743,0.83456266,0.30487704,0.71704257,0.69348687,0.18544295,0.74725235,0.32314673,130.21146,127.345535,133.13274,131.6625,0,0,0,0,0,0,0,0,0,0,0,0,-2.4812586,-1.9364662,-1.9146452,-1.5119319,2.5763478,1.9453253,2.0552986,1.5460795,-0.0066354275,0.039478406,-0.019883513,0.026889607,53,3,190,2,4,-6993.8896,143.22801,-1457.0631,41.083466,241448.44,439.9746,137.51625,141.54291,136.75525,136.75525,23.196556,1,381.02368,0,0,16.118929,16.118921,0,8,255,0,0,0,4,-127,87,24
True,2413171,7999.995,1269.8213,5276.2397,-14.7214,0.23932892,1.6211522,7.4460125,0.49789003,40.249756,-0.047009967,-0.56476283,-0.05113524,0.027200487,-0.009728084,-0.002927535,0.42211202,0.8199331,0.2903784,0.7210316,0.8131132,0.25377,0.95384955,0.42442337,130.58226,127.19989,134.58527,132.44086,0,0,0,0,0,0,0,0,0,0,0,0,-2.6420622,-2.1290538,-2.1437662,-1.6262283,2.7643526,2.1441245,2.3463936,1.6807004,-0.009190768,0.03775212,-0.02152884,0.02734229,53,3,190,2,4,-6992.769,143.32744,-1452.323,40.935726,242517.58,438.85754,142.87201,148.67334,139.84364,139.84364,23.196556,1,385.58752,0,0,16.237747,16.23774,0,8,255,0,0,0,4,-127,80,0
True,2413281,7999.995,1269.8213,5292.1763,-14.333508,-0.36923552,1.9156823,8.162931,0.4064139,39.98033,0.016419573,-0.50436383,-0.01155632,-0.026693884,-0.012221601,-0.0049588494,0.38989696,0.79815584,0.36664885,0.7983989,1.343326,0.30153957,0.9604135,0.5212933,135.3237,126.39003,134.0104,132.47104,0,0,0,0,0,0,0,0,0,0,0,0,-2.94044,-2.4099562,-2.2865374,-1.8623511,3.232756,2.4287477,2.4800498,1.9339333,-0.012992144,0.0351824,-0.01287356,0.03612204,53,3,190,2,4,-6991.991,143.4162,-1448.3038,40.80717,242946.78,438.47726,147.64673,155.36334,143.12086,143.12086,23.196556,1,389.43436,0,0,16.337948,16.337938,0,8,255,0,0,0,4,-127,75,21
True,2413406,7999.995,1269.8213,5264.214,-15.161366,0.6980809,2.2739239,8.799799,0.44654816,39.682808,-0.045090094,-0.51429397,-0.029090822,-0.08534277,-0.012269484,-0.0058485754,0.33630884,0.7921358,0.37724343,0.79692024,1.0445985,0.23064554,1.1208485,0.54315215,131.08571,124.78371,134.69843,132.28706,0,0,0,0,0,0,0,0,0,0,0,0,-3.0360188,-2.274302,-2.5004222,-1.8918594,3.2107003,2.2859674,2.7401483,1.9682852,-0.01931554,0.034472033,-0.011671275,0.035954237,53,3,190,2,4,-6991.2534,143.51137,-1443.5945,40.649242,242183.12,439.20795,154.50424,164.06339,147.41418,147.41418,23.196556,1,393.91852,0,0,16.454985,16.454979,0,8,255,0,0,0,4,-127,68,0
True,2413531,7999.995,1269.8213,5274.376,-13.360694,-0.5864475,2.085481,9.407114,0.39955178,39.375713,0.033137657,-0.4444392,0.032462575,-0.14023934,-0.011371268,-0.0037358147,0.25307095,0.7340267,0.31807914,0.77639854,1.5190918,0.3196177,1.154371,0.6279272,134.93802,124.33834,134.21085,132.04161,0,0,0,0,0,0,0,0,0,0,0,0,-3.3269477,-2.57729,-2.6251938,-2.077711,3.6573515,2.5970328,2.867789,2.1705244,-0.029137611,0.02761516,-0.01838532,0.03362541,53,3,190,2,4,-6990.7188,143.61143,-1438.877,40.4858,242457.72,438.9204,160.9887,172.53221,152.01163,152.01163,23.196556,1,398.95514,0,0,16.57206,16.572056,0,8,255,0,0,0,4,-127,59,8
True,2413640,7999.995,1269.8213,5282.533,-14.5188265,-1.1715881,2.544143,9.848697,0.3896795,39.1135,0.025217563,-0.42880082,0.028172962,-0.18729314,-0.0074016857,0.0008183255,0.25308058,0.70807713,0.27360153,0.70815146,1.4022769,0.40807763,1.27543,0.79390806,132.88959,124.429245,134.75333,132.92169,0,0,0,0,0,0,0,0,0,0,0,0,-3.3648772,-2.7788482,-2.7705915,-2.3020546,3.6453779,2.8086517,3.0500653,2.435107,-0.029136479,0.02455312,-0.023432702,0.025880635,53,3,190,2,4,-6990.3833,143.69409,-1434.4696,40.336266,241082.6,435.78653,167.47366,180.6669,156.49606,156.49606,23.196556,1,403.06964,0,0,16.681477,16.681473,0,8,255,0,0,0,4,-127,50,0
True,2413750,7999.995,1269.8213,5232.6665,-16.007841,-0.24998496,2.6269436,10.057559,0.4209305,38.905685,0.018214371,-0.41540504,0.042200726,-0.22648339,-0.0054985285,0.003676974,0.20814674,0.7297705,0.2916626,0.73451155,1.601814,0.32862487,1.1992031,0.68009853,134.17941,122.6998,133.2084,131.08714,0,0,0,0,0,0,0,0,0,0,0,0,-3.4922867,-2.8032527,-2.8265011,-2.2420907,3.8421185,2.8224492,3.070374,2.3429692,-0.03443867,0.027112931,-0.021383107,0.028872013,53,3,190,2,4,-6990.224,143.75613,-1430.757,40.186863,241219.8,440.2123,172.73645,188.58128,160.55403,160.55403,23.196556,1,406.5438,0,0,16.773785,16.77378,0,8,255,0,0,0,4,-127,42,9
True,2413859,7999.995,1269.8213,5169.926,-14.736697,0.76222605,2.3467546,10.193634,0.4568337,38.66398,-0.02403825,-0.4211505,0.0064702546,-0.27180818,-0.005693516,0.006001638,0.3365417,0.8308848,0.32614574,0.81433487,1.3066685,0.29986888,1.1392466,0.62013394,130.27638,121.85983,131.91237,129.9269,0,0,0,0,0,0,0,0,0,0,0,0,-3.489058,-2.5692647,-2.8024073,-2.160308,3.7257092,2.586705,3.025123,2.2475533,-0.019288063,0.039044425,-0.017469913,0.037930474,53,3,190,2,4,-6990.1943,143.82956,-1426.4158,39.98777,239445,442.00974,179.12576,197.28714,165.17609,165.17609,23.196556,1,410.6166,0,0,16.882088,16.882086,0,8,255,0,0,0,4,-127,32,13
True,2413968,7999.995,1269.8213,4515.4585,-12.843638,-0.37116656,1.0586941,10.276737,0.4560251,38.327164,0.060452826,-0.34407222,0.04276043,-0.31464928,-0.0039109304,0.00962029,0.25418654,0.7399409,0.35934624,0.77662426,-1.2808669,-0.34565425,-0.024799043,-0.12846102,100.21754,111.9137,115.79509,116.36338,0,0,0,0,0,0,0,0,0,0,0,0,-3.5989757,-2.8297234,-2.8472836,-2.4178078,3.8201108,2.8507564,2.8473916,2.4212182,-0.029005975,0.02831304,-0.013702273,0.033651024,53,3,190,2,4,-6990.3525,143.91437,-1421.9677,39.68363,197182.38,414.44482,184.63643,205.59421,169.68193,169.68193,23.196556,1,414.8025,0,0,16.993784,16.99378,0,8,226,255,0,0,4,-127,23,136
True,2414078,7999.995,1269.8213,3768.1484,-11.329745,-1.0062172,-4.6832285,10.296095,0.5921605,37.35397,0.07902778,-0.33091742,0.055944126,-0.35042557,0.0055153677,0.017088352,0.3058923,0.7374625,0.24499343,0.6700127,-1.3096683,-0.64250237,-2.4685762,-1.5674305,95.38368,104.25454,86.77921,97.2649,0,0,0,0,0,0,0,0,0,0,0,0,-3.3785145,-2.9285908,-3.0482948,-2.6051273,3.6234777,2.9982417,3.9224954,3.0403168,-0.022904694,0.02802059,-0.026679188,0.021552593,53,3,190,2,4,-6990.6465,143.98378,-1417.6677,38.751503,-13278.535,-33.683975,190.1914,214.2164,174.0166,174.0166,-0.18555641,1,418.97076,0,0,17.103659,17.103655,0,8,43,255,0,0,4,-127,13,129
True,2414203,7999.995,1269.8213,3605.038,-12.83357,0.678597,-8.599679,10.208913,0.860485,36.162815,0.035888232,-0.3727694,0.05961701,-0.38977087,0.012241474,0.019796645,0.37417498,0.85194826,0.2095746,0.6126479,-1.4627259,-0.45464584,-2.8550413,-1.1086994,90.94514,103.19372,79.718666,99.41049,0,0,0,0,0,0,0,0,0,0,0,0,-3.565662,-2.8162227,-3.0859249,-2.5696747,3.8540254,2.8526852,4.2040687,2.79865,-0.014847338,0.04152991,-0.030698568,0.015042752,53,3,190,2,4,-6991.06,144.0468,-1413.4772,37.586052,-11923.806,-31.563898,196.49101,223.81769,179.40027,179.40027,-9.021036,1,422.88135,0,0,17.213957,17.213953,0,8,102,255,0,0,4,-127,3,129
True,2414312,7999.995,1269.8213,3656.1235,-13.837534,0.7062056,-6.0501647,10.255535,0.8838632,34.982002,-0.021828135,-0.42367765,0.054377705,-0.43431064,0.013874007,0.02500322,0.43255445,0.85692346,0.19792983,0.63201654,-1.4509962,-0.9571839,-3.1178133,-1.5946176,87.97432,94.36543,74.57578,88.583176,0,0,0,0,0,0,0,0,0,0,0,0,-3.6800709,-2.8191676,-3.212343,-2.6323206,3.9557946,2.9772315,4.4765954,3.077648,-0.007958561,0.042116985,-0.032020032,0.017240733,53,3,190,2,4,-6991.609,144.1175,-1409.3615,36.465015,96015.61,252.34438,202.37596,232.94135,184.73334,184.73334,-6.2818213,1,426.75647,0,0,17.326115,17.326109,0,8,133,255,0,0,3,-127,249,129
True,2414406,7999.995,1269.8213,4799.3013,-12.21542,-0.68859696,-5.463235,10.472517,0.7833744,33.880383,0.023181291,-0.4149603,0.0034336792,-0.47969556,0.015992614,0.02805051,0.41932273,0.7865597,0.20556705,0.5790548,-1.2492386,-0.2634253,-3.3984048,-0.40057865,87.89748,99.63655,69.956154,101.44049,0,0,0,0,0,0,0,0,0,0,0,0,-3.779973,-3.1914954,-3.4124968,-2.844468,3.9810543,3.2023485,4.8160453,2.8725357,-0.009519905,0.033814058,-0.031153351,0.011230558,53,3,190,2,4,-6992.2573,144.18376,-1405.4789,35.470657,171672.92,343.68826,207.3396,239.82912,189.74199,189.74199,7.884591,1,430.4436,0,0,17.435724,17.43572,0,8,255,0,0,0,3,-127,240,0
True,2414531,7999.995,1269.8213,5293.171,-13.513042,-0.50967985,-2.3060718,10.5289135,0.7478011,33.155834,0.0073380317,-0.42895946,0.012885576,-0.5265529,0.01811223,0.028833836,0.3916318,0.82336175,0.20430464,0.63112044,0.038266446,0.072632656,-0.076697074,-0.10215472,98.51183,101.123276,101.092766,102.42387,0,0,0,0,0,0,0,0,0,0,0,0,-3.828615,-3.2793872,-3.5181947,-2.7536933,3.8288062,3.2801914,3.5190306,2.7555876,-0.0127874315,0.038156703,-0.03129661,0.017139047,53,3,190,2,4,-6993.016,144.23744,-1401.7487,34.795498,61713.727,111.36513,211.63464,246.88858,194.15744,194.15744,15.150973,1,434.01865,0,0,17.544144,17.544142,0,8,255,0,0,0,3,-127,231,0
True,2414640,7999.995,1269.8213,5453.035,-13.693525,-0.44245672,-0.6751437,10.580917,0.6908147,32.691242,-0.018918043,-0.44397092,-0.016124085,-0.5661841,0.018467423,0.027207587,0.3895022,0.831011,0.25067466,0.6800073,0.554431,0.1866703,0.63759553,0.27710286,102.08556,101.20524,106.326546,105.614265,0,0,0,0,0,0,0,0,0,0,0,0,-4.043768,-3.1599762,-3.5001504,-2.7755396,4.081599,3.165485,3.5577495,2.789338,-0.013038725,0.03905931,-0.026034474,0.022686794,53,3,190,2,4,-6993.749,144.27414,-1398.7123,34.367867,129858.555,227.58836,215.4035,252.04665,197.05249,197.05249,16.464565,1,436.68845,0,0,17.63451,17.634506,0,8,255,0,0,0,3,-127,224,0
True,2414734,7999.995,1269.8213,5622.638,-12.616234,-0.95056635,0.7897725,10.641436,0.5900931,32.325764,0.011972999,-0.4091621,-0.016303271,-0.60771817,0.019189013,0.025351912,0.34812725,0.7141043,0.26424417,0.69926107,1.1639282,0.464656,1.1468194,0.67428523,106.671745,102.78616,110.0531,108.776855,0,0,0,0,0,0,0,0,0,0,0,0,-4.0991545,-3.5032656,-3.5536013,-2.945992,4.2611966,3.533946,3.7340698,3.022173,-0.01792097,0.025264323,-0.024494588,0.024871737,53,3,190,2,4,-6994.651,144.30563,-1395.4976,34.03738,209570.17,356.28876,218.67516,256.80603,200.60155,200.60155,20.409058,1,439.7835,0,0,17.732203,17.732199,0,8,255,0,0,0,3,-127,217,0
True,2414859,7999.995,1269.8213,5690.5566,-12.043978,-1.1742105,2.179268,10.725048,0.4590301,31.998177,-0.0037522856,-0.40379483,-0.018817708,-0.66204035,0.021060733,0.022374999,0.35995725,0.67735124,0.2698671,0.66549367,1.7717468,0.6009786,1.6644284,1.0456024,111.41492,103.258545,113.73513,111.96054,0,0,0,0,0,0,0,0,0,0,0,0,-4.0564685,-3.4929714,-3.6044827,-2.9940765,4.4265137,3.5442948,3.9702163,3.1714,-0.01652503,0.020927459,-0.02385649,0.021039769,53,3,190,2,4,-6996.0435,144.32213,-1391.2219,33.750862,227128.03,381.24252,222.8276,263.00653,205.62827,205.62827,22.831024,1,443.97803,0,0,17.864937,17.864935,0,8,255,0,0,0,3,-127,209,0
True,2414968,7999.995,1269.8213,5672.3457,-12.898983,-0.5553498,2.5760283,10.705019,0.40026158,31.80213,-0.01193843,-0.4016497,-0.03952645,-0.7059007,0.02028407,0.017000139,0.25095728,0.6050576,0.31910598,0.68208486,2.138937,0.51241684,1.6485417,0.9883617,113.74405,101.90009,113.231575,111.031395,0,0,0,0,0,0,0,0,0,0,0,0,-4.2291045,-3.3275025,-3.5358658,-2.8389196,4.739238,3.3667262,3.9012866,3.0060477,-0.029387027,0.012396812,-0.018268794,0.02292256,53,3,190,2,4,-6997.3154,144.31897,-1387.8431,33.557907,223801.31,376.69858,226.26569,267.9353,209.58864,209.58864,23.125748,1,447.362,0,0,17.972223,17.972221,0,8,255,0,0,0,3,-127,203,0
True,2415078,7999.995,1269.8213,5673.984,-12.508633,-0.8739349,2.9338498,10.691969,0.34101635,31.632147,-0.01877803,-0.39476463,-0.056816373,-0.74655384,0.020200979,0.0107997535,0.33988816,0.63499063,0.23567705,0.6184373,1.8596445,0.5575763,1.812542,1.1558936,110.76597,101.8038,113.87715,111.79487,0,0,0,0,0,0,0,0,0,0,0,0,-4.203428,-3.3608317,-3.6285553,-2.991776,4.596421,3.40677,4.056072,3.2073064,-0.018893182,0.01592891,-0.027736425,0.015699744,53,3,190,2,4,-6998.6816,144.306,-1384.6279,33.392025,222846.14,375.0714,229.45578,271.9652,213.13525,213.13525,23.182228,1,450.645,0,0,18.076593,18.076591,0,8,255,0,0,0,3,-127,199,0
True,2415187,7999.995,1269.8213,5643.3857,-12.146636,-1.1412115,2.6617026,10.628159,0.29814878,31.486425,0.015345294,-0.35872295,-0.0706491,-0.7869834,0.02074936,0.0037984005,0.30643278,0.556478,0.31641307,0.62174153,1.9960024,0.62275606,1.7285918,1.1625286,111.59958,101.65613,112.722916,110.946884,0,0,0,0,0,0,0,0,0,0,0,0,-4.120443,-3.5106246,-3.6083884,-3.0398908,4.578436,3.5654328,4.001062,3.2545981,-0.022840917,0.006664425,-0.018574387,0.016074717,53,3,190,2,4,-7000.214,144.27968,-1381.3896,33.23314,218877.34,370.4506,232.24698,276.07828,216.77638,216.77638,23.193829,1,454.01477,0,0,18.184162,18.18416,0,8,255,0,0,0,3,-127,195,0
True,2415296,7999.995,1269.8213,5605.3276,-12.7429495,-0.67571044,3.3242822,10.514703,0.26826057,31.343891,-0.0013266057,-0.36065874,-0.061266135,-0.8275627,0.019688934,-0.004362412,0.2523681,0.5470921,0.36274004,0.6914333,2.2078445,0.6030497,1.6392063,1.0054946,112.853165,101.061195,111.67879,109.58397,0,0,0,0,0,0,0,0,0,0,0,0,-4.195328,-3.5497773,-3.4673293,-2.7980697,4.740818,3.6006372,3.8352797,2.9732497,-0.029220551,0.0055568814,-0.013317138,0.023983434,53,3,190,2,4,-7001.8955,144.2398,-1378.1796,33.06161,218947.84,372.87567,235.16016,280.54785,220.1211,220.1211,23.19608,1,456.89047,0,0,18.293507,18.293505,0,8,255,0,0,0,3,-127,192,0
True,2415406,7999.995,1269.8213,5603.903,-12.176811,-0.98061436,3.0396152,10.387297,0.26478988,31.228802,-0.007582329,-0.35520843,-0.059429754,-0.8648994,0.020379407,-0.012354919,0.30249232,0.57136077,0.2730167,0.6154361,2.0091243,0.5077092,1.7712162,1.1318998,110.80111,99.98198,112.37774,110.14746,0,0,0,0,0,0,0,0,0,0,0,0,-4.163413,-3.2950637,-3.5202978,-2.8469477,4.6228333,3.3339486,3.9407744,3.0637083,-0.023305893,0.008420587,-0.023499072,0.015359163,53,3,190,2,4,-7003.6694,144.19109,-1375.1113,32.912067,218652.08,372.4721,237.91815,284.197,223.2573,223.2573,23.196491,1,460.2065,0,0,18.400957,18.400953,0,8,255,0,0,0,3,-127,190,0
True,2415531,7999.995,1269.8213,5564.7065,-12.284883,-0.7802911,2.9362555,10.183867,0.25322014,31.145214,-0.0009989627,-0.33418354,-0.063464455,-0.9005071,0.019679967,-0.0189085,0.28065932,0.5720869,0.3021563,0.623265,1.8702625,0.56682277,1.7022777,1.1117836,109.50884,100.16009,111.38095,109.433464,0,0,0,0,0,0,0,0,0,0,0,0,-4.0233006,-3.3547852,-3.4605258,-2.886805,4.436759,3.4023333,3.8565512,3.0934942,-0.025882185,0.008506268,-0.020192266,0.0162476,53,3,190,2,4,-7005.498,144.13657,-1372.2255,32.768883,220376.42,378.16528,240.35666,287.9072,226.24326,226.24326,23.196548,1,463.41397,0,0,18.505028,18.505026,0,8,255,0,0,0,3,-127,188,0
True,2415625,7999.995,1269.8213,5511.881,-12.973613,-0.31497455,3.0011292,9.890442,0.25138783,31.079546,0.015175393,-0.3118271,-0.044350535,-0.9354999,0.017708628,-0.024435498,0.22851083,0.5553663,0.3591771,0.70499873,2.1064713,0.61052525,1.5039408,0.9149917,111.167595,100.1994,109.613434,107.523994,0,0,0,0,0,0,0,0,0,0,0,0,-4.0725965,-3.4456031,-3.2787547,-2.6430585,4.5851135,3.4992745,3.6072247,2.796957,-0.03203571,0.0065332353,-0.013721466,0.025522858,53,3,190,2,4,-7007.436,144.08032,-1369.4309,32.616287,220769.7,382.39606,242.6923,291.8572,229.1215,229.1215,23.196548,1,466.6122,0,0,18.60909,18.609085,0,8,255,0,0,0,3,-127,188,0
True,2415734,7999.995,1269.8213,5544.7373,-10.592181,-1.2982228,2.1316633,9.654475,0.24931836,31.030266,0.021305319,-0.30143845,-0.040577445,-0.9678716,0.02061003,-0.0297595,0.23196587,0.52305853,0.26706284,0.62567717,2.0374618,0.48690677,1.7282145,1.0745378,110.55631,99.03092,111.15906,108.5755,0,0,0,0,0,0,0,0,0,0,0,0,-3.9862058,-3.1895547,-3.3177795,-2.7189424,4.4767275,3.2265055,3.7409072,2.923573,-0.031628013,0.0027209222,-0.02417472,0.016521335,53,3,190,2,4,-7009.576,144.01349,-1366.5983,32.498436,216048.12,372.04202,244.8664,294.8278,231.85648,231.85648,23.196552,1,469.9513,0,0,18.718164,18.718159,0,8,255,0,0,0,3,-127,189,0
True,2415859,7999.995,1269.8213,5518.496,-11.838947,-0.90556633,2.8513699,9.357894,0.23421293,31.012371,-0.017041989,-0.3083474,-0.06314382,-0.99973005,0.020383967,-0.036184773,0.21780068,0.52840555,0.2478489,0.5545306,1.7592896,0.4319075,1.6756723,1.098319,108.268616,98.6958,110.725235,108.668335,0,0,0,0,0,0,0,0,0,0,0,0,-3.873897,-2.973086,-3.214144,-2.691851,4.2546654,3.0042944,3.6247206,2.9072952,-0.033299506,0.0033518672,-0.026355147,0.008447528,53,3,190,2,4,-7011.767,143.93661,-1363.9244,32.394325,222625.48,385.21976,247.179,297.93533,234.21362,234.21362,23.196552,1,473.19757,0,0,18.824728,18.824724,0,8,255,0,0,0,3,-127,190,0
True,2415968,7999.995,1269.8213,5451.6177,-13.435177,0.10686582,3.0665503,8.910071,0.22680503,31.017654,-0.010401934,-0.28464913,-0.04702114,-1.0327488,0.016092027,-0.042440075,0.24471974,0.5842813,0.273913,0.65594447,1.7723528,0.50673383,1.4691259,0.8603608,108.47774,99.26556,108.78859,106.53743,0,0,0,0,0,0,0,0,0,0,0,0,-3.7558045,-3.09155,-3.0528464,-2.4897075,4.152987,3.132804,3.3879495,2.6341722,-0.030123055,0.009945214,-0.023397356,0.019956112,53,3,190,2,4,-7014.098,143.86174,-1361.3206,32.27283,228697.78,400.68256,249.33096,301.8262,236.39508,236.39508,23.196552,1,476.4679,0,0,18.932873,18.932869,0,8,255,0,0,0,3,-127,193,0
True,2416062,7999.995,1269.8213,5450.793,-13.668716,-0.18264815,2.4409313,8.502156,0.22368395,31.037186,0.0059516924,-0.2672192,-0.015368361,-1.0590656,0.014842738,-0.045503385,0.1865532,0.56443197,0.31170434,0.6882971,1.9830753,0.3899376,1.4002249,0.8455521,110.45459,98.302605,108.481636,106.36382,0,0,0,0,0,0,0,0,0,0,0,0,-3.6877482,-2.8596992,-2.8834054,-2.3221047,4.187132,2.8861618,3.2054105,2.4712605,-0.03698671,0.0076029897,-0.019108742,0.023627535,53,3,190,2,4,-7016.238,143.80049,-1359.124,32.181416,225930.77,395.73926,250.84586,304.67685,237.68274,237.68274,23.196552,1,478.85226,0,0,19.02805,19.028044,0,8,255,0,0,0,3,-127,196,0
True,2416171,7999.995,1269.8213,5469.4253,-13.94654,-1.1726749,4.2711134,8.025173,0.20108598,31.103403,0.025508884,-0.23837711,-0.0122555895,-1.0861915,0.016164104,-0.047330566,0.15533072,0.51004124,0.24147514,0.6082894,1.7697017,0.4090716,1.4472334,0.9584742,109.01116,98.6788,109.14457,107.19849,0,0,0,0,0,0,0,0,0,0,0,0,-3.5205557,-2.7970476,-2.7334468,-2.329859,3.9403245,2.826803,3.09293,2.5193086,-0.04067096,0.0011848807,-0.02707845,0.014548153,53,3,190,2,4,-7018.823,143.72913,-1356.6808,32.12266,225851.9,394.32776,252.64014,306.9211,238.5228,238.5228,23.196552,1,482.19855,0,0,19.138723,19.138716,0,8,255,0,0,0,3,-127,201,0
True,2416281,7999.995,1269.8213,5454.0586,-12.108444,-0.7355801,2.7092185,7.4768515,0.19103217,31.205296,-0.0029935893,-0.23567833,-0.043564066,-1.1117014,0.016494267,-0.050345145,0.15077424,0.46690312,0.20995381,0.55782753,1.4018807,0.4207958,1.4222399,0.9165561,106.55361,99.27913,109.12077,107.16032,0,0,0,0,0,0,0,0,0,0,0,0,-3.2219007,-2.6881967,-2.6079931,-2.1716468,3.5136752,2.720932,2.9705882,2.3571434,-0.041208625,-0.0039054155,-0.030655533,0.008821666,53,3,190,2,4,-7021.441,143.65411,-1354.4062,32.0891,236600.75,414.31894,254.47717,308.48492,238.85526,238.85526,23.196552,1,485.45663,0,0,19.246788,19.246778,0,8,255,0,0,0,3,-127,207,0
True,2416406,7999.995,1269.8213,5413.172,-13.675985,0.25635064,3.2362766,6.7616653,0.1575414,31.338387,-0.017885553,-0.22332843,-0.030849332,-1.1408346,0.011411072,-0.055727907,0.13526642,0.5492846,0.20378123,0.6170872,1.6798806,0.36940575,1.1707462,0.6454922,109.57349,99.336945,107.56785,105.11157,0,0,0,0,0,0,0,0,0,0,0,0,-3.1028888,-2.524153,-2.3007934,-1.8109225,3.528444,2.551041,2.58153,1.9225246,-0.043038547,0.0058155954,-0.031356007,0.0155465305,53,3,190,2,4,-7024.441,143.57707,-1352.0372,32.059933,244162.55,430.65366,256.19904,310.01617,238.6731,238.6731,23.196556,1,489.03543,0,0,19.36602,19.366013,0,8,255,0,0,0,3,-127,215,0
