IsRaceOn,TimestampMS,EngineMaxRpm,EngineIdleRpm,CurrentEngineRpm,AccelerationX,AccelerationY,AccelerationZ,VelocityX,VelocityY,VelocityZ,AngularVelocityX,AngularVelocityY,AngularVelocityZ,Yaw,Pitch,Roll,NormalizedSuspensionTravelFrontLeft,NormalizedSuspensionTravelFrontRight,NormalizedSuspensionTravelRearLeft,NormalizedSuspensionTravelRearRight,TireSlipRatioFrontLeft,TireSlipRatioFrontRight,TireSlipRatioRearLeft,TireSlipRatioRearRight,WheelRotationSpeedFrontLeft,WheelRotationSpeedFrontRight,WheelRotationSpeedRearLeft,WheelRotationSpeedRearRight,WheelOnRumbleStripFrontLeft,WheelOnRumbleStripFrontRight,WheelOnRumbleStripRearLeft,WheelOnRumbleStripRearRight,WheelInPuddleDepthFrontLeft,WheelInPuddleDepthFrontRight,WheelInPuddleDepthRearLeft,WheelInPuddleDepthRearRight,SurfaceRumbleFrontLeft,SurfaceRumbleFrontRight,SurfaceRumbleRearLeft,SurfaceRumbleRearRight,TireSlipAngleFrontLeft,TireSlipAngleFrontRight,TireSlipAngleRearLeft,TireSlipAngleRearRight,TireCombinedSlipFrontLeft,TireCombinedSlipFrontRight,TireCombinedSlipRearLeft,TireCombinedSlipRearRight,SuspensionTravelMetersFrontLeft,SuspensionTravelMetersFrontRight,SuspensionTravelMetersRearLeft,SuspensionTravelMetersRearRight,CarOrdinal,CarClass,CarPerformanceIndex,DrivetrainType,NumCylinders,PositionX,PositionY,PositionZ,Speed,Power,Torque,TireTempFl,TireTempFr,TireTempRl,TireTempRr,Boost,Fuel,Distance,BestLapTime,LastLapTime,CurrentLapTime,CurrentRaceTime,Lap,RacePosition,Accelerator,Brake,Clutch,Handbrake,Gear,Steer,NormalDrivingLine,NormalAiBrakeDifference
True,4173656,7999.995,1269.8213,4451.493,14.444193,1.0193342,0.03466463,-11.036049,0.45068032,27.831745,0.12994362,0.412502,-0.023037788,-0.6683016,0.0066267727,-0.025280712,0.70510703,0.21506013,0.80689406,0.48284733,0.0038986886,0.03922899,-0.0034822652,0.016202763,87.70291,86.692924,87.66474,86.11701,0,0,0,0,0,0,0,0,0.59999996,0.59999996,0.59999996,0.59999996,1.2064425,1.3995466,1.4103365,1.6015413,1.2064488,1.4000963,1.4103408,1.6016232,0.024202645,-0.03362289,0.037086084,0.00031280518,53,3,190,2,4,-922.80817,186.51729,-1145.0912,29.943336,-20047.947,-42.98775,192.80067,184.43138,178.65569,178.65569,-10.447383,1,166.83743,0,0,0.64044905,125.16104,0,6,0,0,0,0,3,0,127,0
True,4200218,7999.995,1269.8213,1694.3246,-0.04736996,-0.012472417,-0.112125486,0.0022361798,-0.00041324075,-0.008745195,0.0008381733,-4.1291434E-05,-0.00381175,2.085706,-0.0095062,-0.00014577154,0.4985686,0.49971524,0.48061034,0.48163953,0.00023954367,0.00023769839,0.0003305021,0.00032499759,-0.028667504,-0.028488245,-0.028848901,-0.028673723,0,0,0,0,0,0,0,0,0,0,0,0,0.0009294625,0.0009353726,0.00061223534,0.00061572,0.0009598342,0.0009651023,0.00069574686,0.0006962288,-0.00016888976,-3.3587217E-05,5.8948994E-05,0.0001757443,53,3,190,2,4,159.89961,162.05516,-1275.0599,0.009036022,39273.805,223.77193,90.56122,90.56405,91.078125,91.078125,-11.0250025,1,-51.663197,0,0,0.095437095,0.095437095,0,8,255,0,0,0,1,0,58,0
True,4200312,7999.995,1269.8213,2933.9402,0.08469911,-0.015656788,-0.042087164,0.0052102646,-0.0010866666,-0.017863827,0.0005657396,9.797291E-06,-0.008586011,2.0857058,-0.009433119,-0.0007993765,0.49688932,0.50392747,0.4772827,0.4843511,0.00022458476,0.00020932226,0.00033382885,0.00031862367,-0.056170993,-0.05628431,-0.05618459,-0.056309484,0,0,0,0,0,0,0,0,0,0,0,0,0.00042145757,0.00040862954,0.000342404,0.00032380587,0.00047756132,0.00045912297,0.00047820728,0.00045428105,-0.0003670454,0.00046345592,-0.00031867623,0.00048345327,53,3,190,2,4,159.89825,162.05507,-1275.0597,0.01863985,140906.38,464.77814,90.52203,90.52486,91.03827,91.03827,-9.191984,1,-51.66405,0,0,0.1959059,0.1959059,0,8,255,0,0,0,1,0,58,0
True,4200421,7999.995,1269.8213,4529.7227,-0.053596422,0.0033943316,0.020882234,0.004483926,-0.000749029,-0.0095402505,-0.0027439143,2.1022643E-06,-0.0073953113,2.0857072,-0.009422752,-0.0016795192,0.49339488,0.5094083,0.47322392,0.4894136,0.019087635,0.017663838,0.06821391,0.06338824,0.012279614,0.009326093,0.10925125,0.09956325,0,0,0,0,0,0,0,0,0,0,0,0,-0.0009800512,-0.0009992754,-0.00069579977,-0.00072496576,0.019112779,0.017692082,0.068217464,0.063392386,-0.00077939034,0.0011101961,-0.0007792711,0.0010579526,53,3,190,2,4,159.89613,162.05495,-1275.0591,0.010568018,223513.02,474.94983,90.482666,90.48548,90.99869,90.99869,-0.2562933,1,-51.66543,0,0,0.2970952,0.2970952,0,8,255,0,0,0,1,0,58,0
True,4200531,7999.995,1269.8213,4789.5225,-0.05798292,-0.07367043,5.9635367,0.0018878281,-0.007869404,0.6294676,-0.07172765,-0.0012493087,-0.0012740251,2.0856812,-0.012818884,-0.0021458918,0.4731283,0.49434274,0.50509924,0.5270576,-0.056756746,-0.049838584,1.0097874,0.83574104,3.7762985,3.7715073,4.2214584,3.8764572,0,0,0,0,0,0,0,0,0,0,0,0,-2.2266593E-05,4.8109464E-06,-0.0040102433,-0.004044686,0.05675675,0.049838584,1.0097954,0.8357508,-0.003170848,-0.0006675422,0.0028379858,0.0053298473,53,3,190,2,4,159.9164,162.05495,-1275.0709,0.6295196,185358.42,368.54526,90.497406,90.501305,91.094864,91.094864,11.87337,1,-51.65026,0,0,0.39498836,0.39498833,0,7,255,0,0,0,1,0,58,0
True,4200640,7999.995,1269.8213,4204.767,-0.00912714,-0.0028733276,10.767572,0.0048989058,-0.020286726,1.9825449,-0.07181851,0.005072062,-0.011054775,2.0859582,-0.022830823,-0.0030985475,0.4014019,0.4383967,0.64945126,0.6738754,0.40030798,0.16611533,3.0221577,3.4984894,6.9579844,7.1541867,13.039883,13.226671,0,0,0,0,0,0,0,0,0,0,0,0,-0.015849626,-0.013976519,0.04146937,0.0584474,0.40062162,0.16670227,3.022442,3.4989774,-0.011634558,-0.007269174,0.01921925,0.02199094,53,3,190,2,4,160.05247,162.05595,-1275.1483,1.9826547,197952.77,448.62256,90.61972,90.64264,96.93254,96.93254,21.062206,1,-51.549,0,0,0.5139938,0.5139938,0,7,255,0,0,0,1,0,58,0
True,4200750,7999.995,1269.8213,4026.6812,-0.13398695,0.07359664,10.992588,-0.009934664,-0.025105326,3.0878692,-0.020171527,-0.0019446367,0.013639763,2.0856795,-0.027729029,-0.002199913,0.3519101,0.39851084,0.71486205,0.76006144,0.5580447,0.020522619,0.52816606,0.33083048,9.679044,10.825248,10.389921,10.696135,0,0,0,0,0,0,0,0,0,0,0,0,0.019348007,0.020636493,-0.028053137,0.009433085,0.55838,0.029104,0.5289106,0.33096495,-0.017474592,-0.011975706,0.026642159,0.03177145,53,3,190,2,4,160.27568,162.05994,-1275.2743,3.0879872,196243,465.13196,90.7128,90.74608,103.74866,103.74866,22.737595,1,-51.38327,0,0,0.61450416,0.6145041,0,7,255,0,0,0,1,0,58,0
True,4200859,7999.995,1269.8213,3934.482,-0.03813839,-0.15997416,10.207506,-0.0037260056,-0.04519538,4.129394,0.008205415,-9.8955206E-05,0.0064263726,2.0855317,-0.027773233,-0.0012872091,0.32751465,0.36438036,0.7035781,0.73916173,0.6999593,0.025061237,0.58742756,0.51950824,12.947543,14.015754,13.946719,13.849038,0,0,0,0,0,0,0,0,0,0,0,0,0.003857782,0.004933093,-0.021148551,0.012707732,0.6999699,0.025542142,0.58780813,0.51966363,-0.020353258,-0.016003102,0.025361642,0.029399723,53,3,190,2,4,160.59924,162.06694,-1275.4567,4.1296425,193455.16,469.1753,90.80415,90.85023,103.29393,103.29393,23.10094,1,-51.14304,0,0,0.7171272,0.71712714,0,7,255,0,0,0,1,0,58,0
True,4200968,7999.995,1269.8213,3777.7312,0.09158087,-0.27577838,10.566565,-0.0027852058,-0.07414156,5.2287455,0.0034110243,-0.00014420017,0.00498663,2.085422,-0.02713169,-0.00072120794,0.31935233,0.35168508,0.6824577,0.71151024,0.62633675,0.06556922,0.6517593,0.59067595,16.340582,17.22441,17.48743,17.385176,0,0,0,0,0,0,0,0,0,0,0,0,0.002401131,0.0033420546,-0.01664607,0.010410257,0.62634134,0.06565434,0.6519719,0.5907677,-0.02131641,-0.017501146,0.022964865,0.026261792,53,3,190,2,4,161.02417,162.07404,-1275.6967,5.229272,186790.39,471.64035,90.90242,90.97269,102.933334,102.933334,23.177109,1,-50.827435,0,0,0.8211928,0.82119274,0,7,255,0,0,0,1,0,58,0
True,4201093,7999.995,1269.8213,3564.6396,-0.034157276,-0.24598101,10.564275,-0.0028467178,-0.10400061,6.5717897,-0.000658541,-0.0017028677,0.0050703455,2.0852983,-0.027043967,-9.908619E-05,0.31529266,0.3446227,0.6762151,0.6990336,0.08845077,0.59991413,0.6066794,0.5742551,21.355255,20.431244,21.683338,21.610346,0,0,0,0,0,0,0,0,0,0,0,0,-0.00051220396,0.0004026636,-0.011833035,0.013132358,0.08845225,0.59991425,0.6067948,0.57440525,-0.021795452,-0.018334508,0.022256449,0.024845928,53,3,190,2,4,161.6701,162.08282,-1276.0614,6.572613,177002.53,473.63834,91.0344,91.1216,102.57182,102.57182,23.193733,1,-50.34769,0,0,0.9466188,0.9466187,0,7,255,0,0,0,1,0,58,0
True,4201203,7999.995,1269.8213,3220.9146,-0.021800041,-0.20419714,10.189747,-0.0039713383,-0.12418428,7.6255064,0.008833837,-0.0010294844,0.0072768144,2.0852165,-0.027001802,0.0005160998,0.31492797,0.34194958,0.67776716,0.6953369,0.54203206,0.54330057,1.0936006,1.0875024,23.972553,23.842163,26.525854,26.46924,0,0,0,0,0,0,0,0,0,0,0,0,0.00032496333,0.0012230146,-0.013460148,0.011401559,0.5420322,0.54330194,1.0936835,1.0875621,-0.021838486,-0.018649936,0.02243258,0.024426416,53,3,190,2,4,162.31364,162.09091,-1276.4248,7.626518,124545.33,367.65375,91.1248,91.22468,102.3064,102.3064,23.196007,1,-49.869743,0,0,1.0502143,1.0502142,0,7,255,0,0,0,1,0,58,0
True,4201312,7999.995,1269.8213,3339.4866,0.24883866,-0.19313988,9.426152,-0.0043284893,-0.13109933,8.36721,0.024693364,-0.0001338906,0.006469871,2.0851324,-0.025569154,0.0011532924,0.32534438,0.34892255,0.66876894,0.68176645,0.46527305,-0.02715417,0.34158856,0.33441043,25.753769,27.004673,26.788065,26.793583,0,0,0,0,0,0,0,0,0,0,0,0,0.0028172997,0.0037124467,-0.013548947,0.008660963,0.4652816,0.027406773,0.34185717,0.33452258,-0.020609349,-0.017827123,0.021411449,0.022886425,53,3,190,2,4,162.94518,162.09843,-1276.7812,8.368238,165670.73,474.76443,91.19031,91.29385,102.046234,102.046234,23.19645,1,-49.400787,0,0,1.1405011,1.140501,0,7,255,0,0,0,1,0,58,0
True,4201406,7999.995,1269.8213,3673.6655,0.008191824,-0.1102809,7.632393,-0.0041368008,-0.12276204,9.213403,0.019891942,1.7278682E-05,0.0061356127,2.0850217,-0.023032703,0.0018360681,0.35270467,0.37111974,0.6471997,0.65682256,0.35803062,-0.020655993,0.34219876,0.33377647,28.381172,29.550108,29.49014,29.499065,0,0,0,0,0,0,0,0,0,0,0,0,0.0019897136,0.002951445,-0.009968751,0.006496961,0.35803616,0.020865789,0.34234393,0.33383968,-0.017380834,-0.015207857,0.01896374,0.020055756,53,3,190,2,4,163.78636,162.10779,-1277.256,9.214221,181559.48,472.90244,91.26954,91.37527,101.70198,101.70198,23.196552,1,-48.776127,0,0,1.250214,1.2502137,0,7,255,0,0,0,1,0,58,0
True,4201515,7999.995,1269.8213,3996.8953,-0.048888445,-0.0489309,7.421512,-0.003994465,-0.113004446,10.023516,0.009731959,0.00032819714,0.005603008,2.0849514,-0.02147355,0.0024737252,0.37324253,0.38436282,0.633619,0.64176047,0.29782918,-0.018226627,0.34366858,0.3383329,30.9781,32.021458,32.093513,32.09825,0,0,0,0,0,0,0,0,0,0,0,0,0.001354206,0.0023179112,-0.007187647,0.0058206236,0.29783225,0.018373422,0.34374374,0.33838296,-0.014957368,-0.013645172,0.017422587,0.018346488,53,3,190,2,4,164.68723,162.11809,-1277.7644,10.024153,196023.44,469.18912,91.33605,91.44223,101.4023,101.4023,23.196552,1,-48.107174,0,0,1.3576288,1.3576285,0,7,255,0,0,0,1,0,58,0
True,4201625,7999.995,1269.8213,4321.7754,-0.010459185,-0.026196573,6.963376,-0.0026144981,-0.11216447,10.838778,0.0013382699,0.00046825878,0.002263315,2.0849135,-0.020897815,0.0029424995,0.385462,0.3872231,0.6253652,0.6324892,0.31753695,0.0053006043,0.33095658,0.32337752,33.44549,34.56249,34.727974,34.72967,0,0,0,0,0,0,0,0,0,0,0,0,0.0017338073,0.0026710313,-0.005654001,0.005405296,0.3175417,0.005935555,0.3310049,0.32342267,-0.013515472,-0.013307661,0.01648593,0.017294377,53,3,190,2,4,165.69258,162.1301,-1278.3318,10.839358,209483.17,463.66907,91.39672,91.50248,101.12934,101.12934,23.196552,1,-47.360603,0,0,1.468192,1.4681916,0,7,255,0,0,0,1,0,58,0
True,4201750,7999.995,1269.8213,4624.8403,0.104818344,-0.032279033,7.242452,-0.00012731552,-0.117973894,11.609974,-0.002919208,-0.0004951545,-0.001744186,2.0848563,-0.021014556,0.0029556665,0.39210108,0.3864808,0.6219918,0.6285339,0.13132155,0.13461384,0.3246998,0.31928286,36.39165,36.415443,37.164513,37.150978,0,0,0,0,0,0,0,0,0,0,0,0,0.00094915315,0.0018732455,-0.0045172973,0.005766347,0.13132498,0.13462688,0.3247312,0.31933492,-0.012732059,-0.01339525,0.016103119,0.016845524,53,3,190,2,4,166.73326,162.14288,-1278.9194,11.610573,221016.05,457.06525,91.443794,91.54758,100.89792,100.89792,23.196552,1,-46.58805,0,0,1.5745695,1.5745691,0,7,255,0,0,0,1,0,58,0
True,4201859,7999.995,1269.8213,4930.2466,-0.0032541752,-0.06462827,7.9694066,0.0019593239,-0.12591133,12.383601,-0.0037809485,-0.00042730448,-0.004717571,2.0848048,-0.021411,0.0025908903,0.39595744,0.3857191,0.6215769,0.6272266,0.12848586,0.13295975,0.31761342,0.3121377,38.813328,38.831215,39.61285,39.59748,0,0,0,0,0,0,0,0,0,0,0,0,0.00056551304,0.0015010317,-0.0046572317,0.005449925,0.12848711,0.13296823,0.31764755,0.31218526,-0.012277007,-0.013485134,0.016056031,0.016697168,53,3,190,2,4,167.86967,162.1573,-1279.5613,12.384242,231593,449.18594,91.48791,91.592354,100.688866,100.688866,23.196552,1,-45.744026,0,0,1.6832677,1.6832674,0,7,255,0,0,0,1,0,58,0
True,4201968,7999.995,1269.8213,5230.829,-0.022320509,-0.031897597,6.824096,0.0030431747,-0.13314986,13.147558,-0.0018486953,-0.00029591014,-0.005535028,2.0847638,-0.021730416,0.0020072556,0.39826208,0.38737538,0.6227014,0.6259994,0.12693575,0.12916313,0.3097904,0.3067056,41.196884,41.20636,42.019184,42.009666,0,0,0,0,0,0,0,0,0,0,0,0,-3.6017234E-05,0.00092138903,-0.0049714637,0.005022062,0.12693577,0.12916642,0.30983028,0.3067467,-0.012005061,-0.01328969,0.016183645,0.016557902,53,3,190,2,4,169.08685,162.1733,-1280.2488,13.148232,240969.66,440.4718,91.53306,91.63797,100.505226,100.505226,23.196552,1,-44.839962,0,0,1.7926918,1.7926915,0,7,255,0,0,0,1,0,58,0
True,4202046,7999.995,1269.8213,5467.7944,0.04669285,-0.032205485,6.8174114,0.0029406548,-0.13714235,13.750258,-0.00034692162,-0.00014049113,-0.0048397523,2.0847442,-0.021818722,0.001546707,0.39939734,0.39050388,0.62327737,0.6239489,0.12533678,0.12536311,0.30365264,0.30346298,43.07452,43.076252,43.913933,43.915344,0,0,0,0,0,0,0,0,0,0,0,0,-0.00040204162,0.00056066166,-0.005038612,0.0047534415,0.12533742,0.12536436,0.30369443,0.3035002,-0.0118710995,-0.012920529,0.016249001,0.016325206,53,3,190,2,4,170.11848,162.1872,-1280.8315,13.750944,247794.05,433.32816,91.569824,91.67482,100.375465,100.375465,23.196552,1,-44.07371,0,0,1.8807291,1.8807288,0,7,255,0,0,0,1,0,58,0
True,4202187,7999.995,1269.8213,5800.5522,-0.0023095608,-0.039634507,6.4427195,0.0017766953,-0.1418095,14.5973215,0.0003678461,3.3790857E-05,-0.0025710135,2.0847392,-0.021802455,0.0010756535,0.40082607,0.39731824,0.62380284,0.62143195,0.12209829,0.12088964,0.2955636,0.29741687,45.71165,45.70656,46.578575,46.58529,0,0,0,0,0,0,0,0,0,0,0,0,-0.00066603726,0.00030687155,-0.004999524,0.0045747566,0.12210011,0.12089003,0.2956059,0.29745206,-0.011702508,-0.012116432,0.016308635,0.01603958,53,3,190,2,4,171.68143,162.2087,-1281.7144,14.598011,256182.86,422.21814,91.623184,91.72789,100.21509,100.21509,23.196552,1,-42.912846,0,0,2.007279,2.0072787,0,8,255,0,0,0,1,0,58,0
True,4202296,7999.995,1269.8213,6084.915,0.061604023,-0.039092463,6.125713,0.0007982254,-0.14544183,15.324507,0.001127936,6.822377E-06,-0.0013501979,2.0847435,-0.02173205,0.0008769651,0.4038538,0.40315065,0.62224865,0.62012434,0.11816699,0.118264385,0.28854308,0.28847677,47.967655,47.968636,48.858173,48.857285,0,0,0,0,0,0,0,0,0,0,0,0,-0.00049892644,0.0005045474,-0.0046967915,0.0045901244,0.11816804,0.11826546,0.2885813,0.28851327,-0.0113452375,-0.011428207,0.016132265,0.015891194,53,3,190,2,4,173.1347,162.22903,-1282.5349,15.325196,260922.3,409.8993,91.67047,91.77486,100.09762,100.09762,23.196552,1,-41.833492,0,0,2.1187613,2.118761,0,8,255,0,0,0,1,0,58,0
True,4202406,7999.995,1269.8213,6345.2324,-0.009814739,-0.083955556,6.187495,0.0008559227,-0.15029082,16.001186,0.006259393,-0.0001327429,-0.0021468548,2.084737,-0.021382272,0.0007167467,0.40714216,0.4054126,0.6194762,0.6203197,0.11277249,0.11506677,0.27692205,0.2741276,50.047764,50.06028,50.93925,50.92761,0,0,0,0,0,0,0,0,0,0,0,0,-0.0002006231,0.00088652695,-0.0044102906,0.004628834,0.112772666,0.11507018,0.27695718,0.27416667,-0.010957211,-0.011161298,0.015817642,0.015913367,53,3,190,2,4,174.6052,162.24957,-1283.3652,16.00189,260042.78,391.74133,91.71567,91.819916,100.00177,100.00177,23.196552,1,-40.741394,0,0,2.2265067,2.2265065,0,8,255,0,0,0,1,0,58,0
True,4202515,7999.995,1269.8213,6586.524,0.041264057,-0.18453164,6.068812,0.0024385452,-0.15219396,16.630997,0.015574371,-0.00029272508,-0.005041321,2.0847144,-0.02023216,0.00033664145,0.41027772,0.40378562,0.615699,0.61956894,0.1075846,0.11126792,0.26783332,0.26239666,51.97163,51.990845,52.87182,52.848362,0,0,0,0,0,0,0,0,0,0,0,0,-3.9199123E-05,0.0011089331,-0.0042091375,0.004433048,0.10758461,0.111273445,0.2678664,0.2624341,-0.010587215,-0.011353284,0.015388995,0.015828162,53,3,190,2,4,176.09686,162.26941,-1284.2075,16.631693,258177.12,374.61978,91.75859,91.862915,99.92255,99.92255,23.196552,1,-39.63355,0,0,2.3314369,2.3314366,0,8,255,0,0,0,1,0,58,0
True,4202609,7999.995,1269.8213,6820.5845,0.03661132,-0.2520587,5.759963,0.0039396286,-0.14736575,17.239748,0.019842498,-0.00022139291,-0.0060290596,2.084684,-0.018249445,-0.00028756118,0.41484883,0.40503123,0.6095369,0.6139578,0.102136485,0.10313274,0.25796774,0.25549927,53.83568,53.840443,54.73921,54.72965,0,0,0,0,0,0,0,0,0,0,0,0,-0.0005704938,0.00050999044,-0.004264516,0.0037378916,0.10213807,0.103134,0.258003,0.2555266,-0.010047823,-0.011206299,0.014689714,0.015191406,53,3,190,2,4,177.66527,162.2881,-1285.0933,17.240377,255376.22,357.83133,91.80107,91.90542,99.855606,99.855606,23.196552,1,-38.46869,0,0,2.4377375,2.4377372,0,8,255,0,0,0,1,0,58,0
True,4202718,7999.995,1269.8213,6635.051,0.0036391318,-0.26680338,1.1175013,0.0035581589,-0.102257326,17.242262,0.06134902,0.00011450911,-0.0035229493,2.0846772,-0.01424869,-0.00075184467,0.43891394,0.4328969,0.5847394,0.5850102,-0.013528688,-0.013727663,-0.04372113,-0.04449678,53.109577,53.112877,52.93151,52.927284,0,0,0,0,0,0,0,0,0,0,0,0,-0.0011889188,-0.0006056166,-0.0032931624,0.0020008422,0.013580829,0.013741015,0.043844976,0.044541743,-0.0072081387,-0.007918149,0.011875659,0.011906385,53,3,190,2,4,179.01903,162.30211,-1285.8578,17.242565,-44386.535,-63.8704,91.81125,91.91556,99.742065,99.742065,-2.3869314,1,-37.463257,0,0,2.527733,2.5277328,0,8,255,0,0,0,1,0,58,0
True,4202828,7999.995,1269.8213,6446.2075,0.07082506,0.0830114,-0.2631729,0.00081157684,-0.0038265958,17.174488,0.024993457,0.00059714617,0.0018089926,2.084711,-0.009071546,-0.0008168193,0.50585955,0.50565016,0.5327588,0.5277758,8.046915E-05,8.763916E-05,8.879442E-05,0.000101199796,53.037766,53.034664,53.03793,53.035126,0,0,0,0,0,0,0,0,0,0,0,0,-0.001241009,-0.00170781,-0.00033971758,-0.00088211463,0.0012436152,0.0017100571,0.0003511303,0.0008879007,0.0006914437,0.00066673756,0.005976826,0.0054113567,53,3,190,2,4,180.64531,162.31755,-1286.7761,17.17449,-43153.38,-63.8704,91.81387,91.91881,99.58357,99.58357,-9.384598,1,-36.255474,0,0,2.6363192,2.6363187,0,8,255,0,0,0,1,0,58,0
True,4202953,7999.995,1269.8213,6188.803,-0.15272902,0.4818782,-0.47606164,-0.0011143684,0.055717334,17.132504,-0.01590809,0.0011654004,0.005120549,2.0848157,-0.008985099,-0.00032197335,0.53960615,0.5353303,0.5097744,0.503329,0.00023024355,0.00023956646,0.00039294787,0.00040648243,52.984886,52.97941,52.98563,52.980244,0,0,0,0,0,0,0,0,0,0,0,0,-0.0012612035,-0.0021782133,0.0002698745,-0.00037785823,0.0012820477,0.002191348,0.00047669726,0.0005549818,0.0046735406,0.0041689873,0.0033685267,0.0026370883,53,3,190,2,4,182.41911,162.33899,-1287.7775,17.132593,-41415.86,-63.8704,91.81553,91.92084,99.420235,99.420235,-10.758502,1,-34.938183,0,0,2.755077,2.7550766,0,8,255,0,0,0,2,0,58,0
True,4203046,7999.995,1269.8213,5641.703,0.1413601,0.16885547,1.2618082,0.001262188,0.04196011,17.226746,-0.024245378,0.0011807829,-0.0025604572,2.0849717,-0.01125313,0.00012983844,0.52280444,0.5114384,0.5072283,0.49849704,0.05340991,0.056980435,0.15730813,0.15742427,53.611732,53.624428,54.210228,54.205154,0,0,0,0,0,0,0,0,0,0,0,0,-0.00025619386,-0.0004911448,0.0014339336,0.0006445663,0.053410526,0.05698255,0.15731467,0.15742558,0.002690941,0.0013497472,0.0030795932,0.0020887554,53,3,190,2,4,184.22401,162.36652,-1288.7968,17.226795,12220.904,20.632118,91.821884,91.92674,99.29176,99.29176,-3.1625872,1,-33.597652,0,0,2.8760128,2.8760123,0,8,255,0,0,0,2,0,58,0
True,4203156,7999.995,1269.8213,4508.401,0.13248527,0.08282122,4.414602,0.015303135,-0.012721069,17.69822,-0.05257921,0.0044085663,0.005017793,2.085091,-0.014660928,-0.00029518915,0.47909582,0.47278857,0.5315762,0.52334756,0.13501555,0.13651815,0.35230157,0.3564696,55.538895,55.538654,56.791653,56.809227,0,0,0,0,0,0,0,0,0,0,0,0,0.04595121,0.04630595,-0.005107607,-0.0059977784,0.14262086,0.14415771,0.35233858,0.35652006,-0.0024666786,-0.003210932,0.005842626,0.00490883,53,3,190,2,4,185.58395,162.38823,-1289.5656,17.698229,69041.91,145.10214,91.85217,91.95679,99.28187,99.28187,-0.17516613,1,-32.58732,0,0,2.9656062,2.965606,0,8,255,0,0,0,2,26,58,0
True,4203281,7999.995,1269.8213,4362.7866,3.5963943,-0.35151762,2.9101245,0.27530336,-0.096258886,18.073242,0.02349605,0.17784208,0.043903463,2.0953922,-0.016656304,0.0048336755,0.43403596,0.39821208,0.58109874,0.5280884,0.049527295,0.09233612,0.11568763,0.20886335,56.613705,55.912075,56.995407,56.61845,0,0,0,0,0,0,0,0,0,0,0,0,0.109106526,0.12247588,-0.018144254,-0.017193085,0.11982148,0.15338285,0.11710185,0.2095698,-0.0077837408,-0.012010962,0.01146251,0.0054468215,53,3,190,2,4,187.55737,162.41733,-1290.7112,18.075594,146677.5,321.2263,91.998344,92.08343,99.252525,99.252525,4.465049,1,-31.111036,0,0,3.0930119,3.0930119,0,8,255,0,0,0,2,0,58,0
True,4203390,7999.995,1269.8213,4387.1924,0.4667492,-0.3865799,3.6116705,-0.0038824081,-0.0796915,18.473202,0.022781666,0.05740034,-0.007851565,2.107483,-0.013479411,0.002889509,0.44145548,0.4137886,0.55045533,0.5139254,0.06915418,0.07016947,0.18459229,0.20812617,57.626656,57.35272,58.335064,58.18883,0,0,0,0,0,0,0,0,0,0,0,0,-0.028651418,-0.028320739,0.050217826,0.05112448,0.07485455,0.07566914,0.1913012,0.21431336,-0.006908238,-0.010172933,0.007985055,0.0038395822,53,3,190,2,4,189.26128,162.43765,-1291.7244,18.473375,174284.69,379.5991,92.064125,92.149376,99.236465,99.236465,11.887851,1,-29.829338,0,0,3.2014961,3.201496,0,8,255,0,0,0,2,0,57,0
True,4203484,7999.995,1269.8213,4489.426,0.5903821,-0.22334197,4.7253065,-0.013421059,-0.084900185,18.856253,-0.0067667076,0.018279837,-0.0054129562,2.1105351,-0.012846211,0.0024822236,0.4548812,0.43242487,0.55019087,0.5262511,0.07624166,0.079803824,0.20594034,0.2199676,58.826595,58.75656,59.642307,59.629295,0,0,0,0,0,0,0,0,0,0,0,0,-0.0020475616,-0.0015711157,0.022040926,0.022953084,0.07626914,0.07981929,0.20711645,0.22116192,-0.005324006,-0.00797385,0.0079550445,0.0052383244,53,3,190,2,4,190.70566,162.45212,-1292.5859,18.85645,201492.84,428.87274,92.094124,92.17849,99.244774,99.244774,18.997227,1,-28.742031,0,0,3.2916007,3.291601,0,8,255,0,0,0,2,0,56,0
True,4203593,7999.995,1269.8213,4617.082,0.2795714,0.10703051,4.55725,-0.0016002655,-0.102008864,19.379452,-0.021075772,0.004115817,-0.0066279005,2.1115613,-0.014639616,0.001768007,0.4610803,0.4381315,0.57805026,0.5637063,0.08312353,0.08366766,0.20944098,0.21542169,60.489964,60.473343,61.31664,61.330734,0,0,0,0,0,0,0,0,0,0,0,0,0.00024457084,0.00075498864,0.0037132734,0.00743225,0.083123885,0.08367106,0.2094739,0.21554986,-0.004592508,-0.0073004663,0.011116564,0.009488791,53,3,190,2,4,192.51604,162.47055,-1293.6711,19.37972,218126.86,451.42398,92.134735,92.2187,99.27341,99.27341,22.421299,1,-27.377491,0,0,3.4019911,3.4019914,0,8,255,0,0,0,2,0,55,0
True,4203718,7999.995,1269.8213,4760.872,0.12137532,0.20724411,4.8369503,0.00308609,-0.12139602,19.987589,-0.016076246,0.0012560731,-0.005512865,2.1118312,-0.017164566,0.0009831103,0.46228403,0.4394067,0.60063463,0.58612394,0.0858305,0.08654565,0.20933756,0.21063161,62.387596,62.38626,63.223545,63.224827,0,0,0,0,0,0,0,0,0,0,0,0,-0.0008771094,-0.00015979147,-0.0023064092,0.003605856,0.08583499,0.0865458,0.20935027,0.21066247,-0.00445047,-0.0071499944,0.013679475,0.012032777,53,3,190,2,4,194.63266,162.49597,-1294.9429,19.987957,225585.02,452.74792,92.18347,92.267296,99.3188,99.3188,23.082745,1,-25.781149,0,0,3.527405,3.5274048,0,8,255,0,0,0,2,0,53,0
True,4203828,7999.995,1269.8213,4884.5723,0.014813185,0.06922531,4.792675,0.004553795,-0.13267598,20.512955,0.00038156775,0.00090256723,-0.0067335954,2.1119442,-0.018043214,0.00037428358,0.46114928,0.43596932,0.61005163,0.5942864,0.08716742,0.0905953,0.21260113,0.21114789,64.00313,64.02018,64.8713,64.859314,0,0,0,0,0,0,0,0,0,0,0,0,-0.0011219779,-0.0001613684,-0.0033423086,0.0033220851,0.08717464,0.09059545,0.2126274,0.21117403,-0.004584372,-0.007555604,0.014748126,0.012959063,53,3,190,2,4,196.52145,162.52126,-1296.0784,20.513384,230127.27,450.1738,92.226715,92.31034,99.365654,99.365654,23.175053,1,-24.356403,0,0,3.636205,3.6362047,0,8,255,0,0,0,2,0,52,0
True,4203937,7999.995,1269.8213,4999.042,0.020772219,-0.21229655,4.7584352,0.0071783066,-0.14003912,20.996525,0.017064855,0.0009828293,-0.00825846,2.112034,-0.017135961,-0.00039820655,0.47132576,0.44258747,0.6110483,0.59587705,0.09005725,0.09383879,0.21727106,0.21471569,65.49772,65.51603,66.39657,66.378494,0,0,0,0,0,0,0,0,0,0,0,0,-0.001905391,-0.00068883196,-0.0039982693,0.0026723417,0.0900774,0.093841314,0.21730785,0.21473232,-0.003383547,-0.006774664,0.014861226,0.013139576,53,3,190,2,4,198.31444,162.54454,-1297.1567,20.996994,233940.5,447.1302,92.26744,92.35078,99.414474,99.414474,23.191998,1,-23.003815,0,0,3.7369883,3.7369883,0,8,255,0,0,0,2,0,50,0
True,4204031,7999.995,1269.8213,5103.792,-0.120514154,-0.12173111,5.237538,0.010642052,-0.12510492,21.431824,0.007228358,0.0010280651,-0.00874849,2.1121178,-0.01580329,-0.0014742801,0.48371693,0.46676195,0.61094844,0.59685296,0.08228398,0.08374698,0.2190271,0.21976762,66.82316,66.82815,67.80391,67.79947,0,0,0,0,0,0,0,0,0,0,0,0,-0.0032477598,-0.0022184183,-0.0053286995,0.0015275294,0.082348056,0.083776355,0.2190919,0.21977292,-0.0019213855,-0.003922075,0.014849901,0.013250321,53,3,190,2,4,199.97684,162.56413,-1298.1571,21.432192,237240.94,444.14978,92.305405,92.38827,99.46284,99.46284,23.195469,1,-21.749563,0,0,3.8284192,3.8284194,0,8,255,0,0,0,2,0,49,0
True,4204140,7999.995,1269.8213,5209.354,-0.043524027,0.061441176,4.404662,0.013122559,-0.12548497,21.880802,-0.009362185,0.0007471876,-0.009633631,2.1122158,-0.016177423,-0.002643368,0.5252639,0.49161556,0.62279123,0.6297808,0.08082714,0.08214849,0.21070525,0.20773864,68.246704,68.25127,69.1951,69.177666,0,0,0,0,0,0,0,0,0,0,0,0,-0.0038446733,-0.0027567658,-0.0069271424,0.0027443743,0.08091853,0.08219474,0.21081908,0.20775677,0.002981156,-0.0009893477,0.016193837,0.016987026,53,3,190,2,4,201.73793,162.58476,-1299.2173,21.881165,240442.75,441.01468,92.34575,92.4284,99.51642,99.51642,23.196335,1,-20.420732,0,0,3.9233146,3.9233146,0,8,255,0,0,0,2,0,48,0
True,4204265,7999.995,1269.8213,5355.71,-0.0024763346,0.075087324,4.3989763,0.008861542,-0.13424659,22.50536,-0.00060944457,0.0012537456,-0.0015429233,2.11233,-0.017316096,-0.0036003727,0.5286513,0.52987367,0.67398834,0.65115434,0.08845595,0.08349925,0.20134743,0.20759289,70.22838,70.19017,71.09458,71.12905,0,0,0,0,0,0,0,0,0,0,0,0,-0.0045412173,-0.0027986774,-0.011866932,0.004939384,0.08857244,0.08354614,0.20169683,0.20765164,0.0033808649,0.003525108,0.022003755,0.019412518,53,3,190,2,4,204.27556,162.61754,-1300.7452,22.50576,244683.5,436.50632,92.402664,92.48564,99.59509,99.59509,23.196552,1,-18.505812,0,0,4.0567513,4.056751,0,8,255,0,0,0,2,0,46,0
True,4204359,7999.995,1269.8213,5462.3677,-0.13884485,-0.10182107,4.6700797,0.0014562607,-0.12718669,22.951332,0.008533863,0.001515849,0.010715999,2.1124687,-0.016684404,-0.0031154642,0.5067905,0.5341791,0.67998666,0.6717155,0.085376576,0.08037533,0.20701836,0.2157469,71.58145,71.5418,72.52356,72.57171,0,0,0,0,0,0,0,0,0,0,0,0,-0.0045075887,-0.0029198264,-0.012367012,0.0076868865,0.08549549,0.08042835,0.20738742,0.21588379,0.00080129504,0.0040331483,0.022684455,0.02174583,53,3,190,2,4,206.15318,162.64224,-1301.8754,22.951683,247695.27,433.15964,92.44414,92.52777,99.654785,99.654785,23.196552,1,-17.089077,0,0,4.1531487,4.153148,0,8,255,0,0,0,2,0,45,0
True,4204468,7999.995,1269.8213,5585.9326,-0.08388233,0.09015095,4.7452207,-0.0029659271,-0.120077565,23.469784,-0.010043686,0.00028387213,0.012755687,2.1125822,-0.016695242,-0.0016432496,0.50321525,0.52548337,0.65642166,0.6699326,0.07744988,0.079427585,0.20742413,0.20666143,73.17625,73.187935,74.19085,74.18522,0,0,0,0,0,0,0,0,0,0,0,0,-0.0024008593,-0.0012936087,-0.009548728,0.007945576,0.07748708,0.07943812,0.20764379,0.20681413,0.00037941337,0.0030070543,0.020010263,0.021543503,53,3,190,2,4,208.40688,162.67174,-1303.2314,23.470093,250971.56,429.1936,92.494774,92.578384,99.72824,99.72824,23.196552,1,-14.66779,0,0,4.2664413,4.266441,0,8,255,0,0,0,2,0,43,0
True,4204578,7999.995,1269.8213,5699.3716,0.044264674,0.25191104,4.421066,0.00043678284,-0.12634346,23.957737,-0.013764985,-0.0007801337,0.002462069,2.1125474,-0.018273717,-0.0008090487,0.50691426,0.51277953,0.6462921,0.6590707,0.07880487,0.08209697,0.19864641,0.19679023,74.711334,74.73783,75.67368,75.66731,0,0,0,0,0,0,0,0,0,0,0,0,-0.0008872176,0.0002591441,-0.007935715,0.0070017013,0.078809865,0.08209738,0.19880487,0.19691476,0.0008158982,0.0015079975,0.018860742,0.020310879,53,3,190,2,4,210.59961,162.70325,-1304.5509,23.958067,253799.03,425.4415,92.54419,92.62703,99.80005,99.80005,23.196552,1,-11.818355,0,0,4.3743362,4.3743362,0,8,255,0,0,0,2,0,41,0
True,4204687,7999.995,1269.8213,5792.61,0.06858826,0.057292588,4.512479,0.004470825,-0.13583052,24.355452,0.003732681,-0.0009573884,-0.0033321516,2.1124654,-0.018784786,-0.00089984824,0.49462232,0.49025983,0.64437586,0.6521193,0.0839845,0.08565258,0.19934508,0.19834816,75.954956,75.97053,76.90197,76.90143,0,0,0,0,0,0,0,0,0,0,0,0,-0.0011191862,0.00018781776,-0.007966404,0.005913749,0.08399196,0.08565279,0.1995042,0.1984363,-0.00063455105,-0.0011493266,0.01864329,0.019522026,53,3,190,2,4,212.44206,162.73172,-1305.6599,24.35583,256085.02,422.35226,92.584595,92.66698,99.86025,99.86025,23.196552,1,-10.428103,0,0,4.4633417,4.4633417,0,8,255,0,0,0,2,0,40,0
True,4204812,7999.995,1269.8213,5928.3003,-0.021183968,-0.34446537,4.2731056,0.005411148,-0.13740224,24.920967,0.01919806,-0.00042679615,-0.0033377013,2.1123729,-0.016812718,-0.0013796999,0.46012285,0.45522466,0.6243202,0.62268937,0.08274805,0.082261756,0.20921762,0.20927502,77.677315,77.676506,78.73044,78.7317,0,0,0,0,0,0,0,0,0,0,0,0,-0.001605102,-0.0006019388,-0.006003793,0.002850002,0.08276361,0.082263954,0.20930375,0.20929442,-0.0047054887,-0.005283475,0.016367346,0.016182274,53,3,190,2,4,215.14384,162.7706,-1307.2861,24.921347,259280,417.8329,92.642624,92.72492,99.94908,99.94908,23.196552,1,-8.389488,0,0,4.591307,4.591307,0,8,255,0,0,0,2,0,38,0
True,4204906,7999.995,1269.8213,6040.094,-0.06284106,-0.120731816,4.3195753,0.004424095,-0.13122478,25.391064,-0.0071606934,-0.0003464517,-0.00429834,2.1123338,-0.016032882,-0.0017581122,0.45716786,0.4504722,0.5962841,0.5951021,0.07500688,0.07606738,0.20465758,0.20207988,79.13621,79.14578,80.22373,80.20839,0,0,0,0,0,0,0,0,0,0,0,0,-0.0008378244,-0.0002561532,-0.0040341904,0.0021386389,0.07501156,0.07606781,0.20469734,0.2020912,-0.005054176,-0.005844265,0.013185769,0.013051629,53,3,190,2,4,217.46384,162.80002,-1308.6823,25.3914,260959.12,412.745,92.69362,92.775566,100.02603,100.02603,23.196552,1,-6.639059,0,0,4.6989226,4.698922,0,8,255,0,0,0,2,0,36,0
True,4205015,7999.995,1269.8213,6125.255,0.04796791,0.2585879,4.351322,0.0045757294,-0.13371944,25.766912,-0.0193651,-0.00031182336,-0.0057529244,2.1123064,-0.01737599,-0.0022199003,0.4652716,0.45805183,0.590652,0.58978325,0.07430149,0.07415197,0.18975273,0.18869652,80.32467,80.32442,81.320526,81.31548,0,0,0,0,0,0,0,0,0,0,0,0,-0.0005723606,6.1114933E-06,-0.0033362692,0.0021352996,0.074303694,0.07415197,0.18978205,0.1887086,-0.0040979385,-0.0049498677,0.012546629,0.012448043,53,3,190,2,4,219.37973,162.82565,-1309.8352,25.76726,260851.78,406.82864,92.736084,92.81769,100.088745,100.088745,23.196552,1,-5.1935,0,0,4.786322,4.7863216,0,9,255,0,0,0,2,0,35,0
True,4205125,7999.995,1269.8213,6243.465,0.019015193,0.27638054,4.222291,0.0017204285,-0.14123353,26.277555,-0.0057680225,0.00037619364,0.0013427301,2.1123085,-0.01917628,-0.0025101595,0.46959922,0.47371095,0.59911907,0.5958453,0.07903184,0.07627659,0.1842629,0.18616514,81.92738,81.905045,82.86476,82.87437,0,0,0,0,0,0,0,0,0,0,0,0,-0.00153256,-0.00059865456,-0.0037569401,0.002239952,0.0790467,0.07627895,0.1843012,0.18617862,-0.0035872757,-0.003102094,0.013507485,0.01313597,53,3,190,2,4,222.09778,162.86748,-1311.4705,26.277935,260506.3,398.5936,92.794304,92.87629,100.1752,100.1752,23.196552,1,-3.1427991,0,0,4.9081993,4.908199,0,9,255,0,0,0,2,0,33,0
True,4205234,7999.995,1269.8213,6328.262,-0.07110691,-0.116701975,4.08305,-0.00092601776,-0.14750308,26.638153,0.015201495,0.0005331739,0.0028765374,2.1123528,-0.018728321,-0.002259518,0.46495715,0.47273126,0.6044639,0.60524964,0.079935186,0.08080059,0.1903825,0.18878257,83.01705,83.022606,84.00632,83.99152,0,0,0,0,0,0,0,0,0,0,0,0,-0.0010883074,7.577674E-05,-0.00335808,0.003292342,0.07994259,0.08080062,0.1904121,0.18881129,-0.0041350424,-0.0032176971,0.014114022,0.014203191,53,3,190,2,4,224.08974,162.89912,-1312.6686,26.638561,260115.14,392.6645,92.835434,92.917366,100.23735,100.23735,23.196552,1,-1.6400324,0,0,4.9960465,4.996046,0,9,255,0,0,0,2,0,32,0
True,4205343,7999.995,1269.8213,6418.5293,-0.019628882,-0.54851055,4.511621,0.0015926361,-0.14812213,27.014772,0.02536383,0.00020910858,-0.0062537473,2.1123834,-0.016699778,-0.0023778866,0.46979445,0.46888575,0.599357,0.6072395,0.077250905,0.08252033,0.19883898,0.19275242,84.151054,84.18958,85.233925,85.18915,0,0,0,0,0,0,0,0,0,0,0,0,0.00011714122,0.0014685878,-0.002319588,0.004286969,0.077250995,0.0825334,0.1988525,0.19280009,-0.0035642385,-0.0036714673,0.013534486,0.014429003,53,3,190,2,4,226.2328,162.92976,-1313.9578,27.015177,259628.78,386.35962,92.879364,92.96039,100.3033,100.3033,23.196552,1,-0.023208007,0,0,5.0892577,5.0892572,0,9,255,0,0,0,2,0,30,0
True,4205453,7999.995,1269.8213,6520.614,0.234429,-0.5700735,4.2338796,0.0076389313,-0.14053324,27.449501,0.018593263,0.0011470605,-0.006568549,2.1124368,-0.014057226,-0.0032008244,0.4993225,0.5062551,0.60173815,0.60834956,0.0743164,0.07196233,0.19259179,0.1960568,85.49395,85.46904,86.566956,86.59024,0,0,0,0,0,0,0,0,0,0,0,0,-0.0020685515,-0.00082007237,-0.003757358,0.0031718123,0.07434518,0.071967,0.19262844,0.19608246,-7.992983E-05,0.0007381141,0.013804704,0.014554977,53,3,190,2,4,228.77539,162.95923,-1315.488,27.449862,258872.22,379.24603,92.931114,93.011856,100.38126,100.38126,23.196552,1,1.8951004,0,0,5.19821,5.19821,0,9,255,0,0,0,2,0,28,0
True,4205562,7999.995,1269.8213,6618.9424,-0.10846293,0.24744216,3.9113047,0.004650116,-0.11741524,27.87567,-0.022382542,-0.0009565959,0.006364898,2.1124823,-0.014098836,-0.0031597987,0.5671223,0.592161,0.63793725,0.6491068,0.06439482,0.06174661,0.17844306,0.18044259,86.810356,86.7939,87.85969,87.88155,0,0,0,0,0,0,0,0,0,0,0,0,-0.002912247,-0.0018825585,-0.008865642,0.0037729326,0.064460635,0.0617753,0.17866316,0.18048202,0.007920444,0.010875016,0.017912626,0.019180164,53,3,190,2,4,231.35918,162.98647,-1317.0435,27.875916,257924,372.23856,92.985405,93.06735,100.45874,100.45874,23.196552,1,3.8447382,0,0,5.3072133,5.3072133,0,9,255,0,0,0,2,0,26,0
True,4205671,7999.995,1269.8213,6724.708,-0.050578713,0.9089502,3.941719,-0.0034456253,-0.114598654,28.352253,-0.026986478,-0.00048203938,0.0129424855,2.1123867,-0.018264646,-0.0017901452,0.5804762,0.6083434,0.70406866,0.7222611,0.06703245,0.06575539,0.15944414,0.16035508,88.32247,88.31395,89.21573,89.223114,0,0,0,0,0,0,0,0,0,0,0,0,-0.0019342,-0.000544847,-0.014087816,0.013030995,0.06706035,0.06575765,0.1600653,0.16088368,0.009496212,0.012784541,0.025417313,0.02748181,53,3,190,2,4,234.37675,163.02924,-1318.859,28.352482,256678.48,364.5816,93.04949,93.13249,100.54677,100.54677,23.196552,1,6.121463,0,0,5.432456,5.432456,0,9,255,0,0,0,2,0,24,0
True,4205781,7999.995,1269.8213,6809.0674,-0.015237093,0.42606357,3.4591832,-0.004378319,-0.111857906,28.70556,-0.0031380602,-0.00071217254,0.0086389715,2.1123307,-0.019566247,-0.00067311985,0.55773026,0.5741412,0.6964735,0.7131022,0.06824399,0.070032544,0.16909152,0.16701804,89.38835,89.406845,90.357124,90.34464,0,0,0,0,0,0,0,0,0,0,0,0,-0.000745583,0.00073704857,-0.0125662405,0.012924293,0.06824806,0.070036426,0.16955781,0.16751735,0.006812185,0.00874868,0.0245554,0.026442453,53,3,190,2,4,236.72691,163.07089,-1320.2723,28.705778,255493.66,358.43387,93.09718,93.17973,100.61281,100.61281,23.196552,1,7.8944936,0,0,5.5285735,5.528573,0,9,255,0,0,0,2,0,23,0
True,4205906,7999.995,1269.8213,6661.426,0.07039369,-0.3604522,0.2062026,0.00068950653,-0.065546066,28.730553,0.05307325,-0.0007587015,-0.00441421,2.1122417,-0.016560622,-0.0004714108,0.5265482,0.52459055,0.64134026,0.65212834,-0.0066658817,-0.006979623,-0.023585087,-0.022820178,88.6358,88.63696,88.47955,88.489365,0,0,0,0,0,0,0,0,0,0,0,0,0.0003798452,0.001477582,-0.0059075877,0.007424375,0.0066766953,0.0071343104,0.024313698,0.02399754,0.003132701,0.0029017031,0.018298805,0.019523054,53,3,190,2,4,239.5328,163.12067,-1321.9596,28.730629,-44566.355,-63.8704,93.131714,93.212494,100.637375,100.637375,-3.0891562,1,10.012479,0,0,5.6424055,5.6424046,0,9,255,0,0,0,2,0,21,0
True,4206015,7999.995,1269.8213,6455.5093,0.262227,-0.5013993,-0.3450325,0.004752159,0.031175934,28.64862,0.026108714,-0.00022099813,-0.0047670826,2.112176,-0.010963995,-0.0012142237,0.5298492,0.5236566,0.55517566,0.5555824,0.00020752774,0.00021156887,0.0003794752,0.00039153412,88.49887,88.49991,88.50048,88.50146,0,0,0,0,0,0,0,0,0,0,0,0,-0.0005164779,-0.00055371044,-0.0013978602,2.1767342E-05,0.0005566122,0.00059275347,0.0014484525,0.00039213873,0.0035222173,0.0027914941,0.008520722,0.008566886,53,3,190,2,4,242.51006,163.16571,-1323.7505,28.648634,-43216.54,-63.8704,93.158585,93.238754,100.62593,100.62593,-9.782341,1,12.258591,0,0,5.7635493,5.763549,0,9,255,0,0,0,2,0,18,0
True,4206125,7999.995,1269.8213,6201.467,0.09377244,0.18331376,-0.37834802,0.0007944107,0.06921663,28.589746,-0.009291839,0.00012060639,0.0073669506,2.1121733,-0.010488593,-0.0011240382,0.5458159,0.5555794,0.52447265,0.5199971,0.0003949632,0.00038247285,0.0006655476,0.0006775322,88.383865,88.38325,88.38623,88.38583,0,0,0,0,0,0,0,0,0,0,0,0,-0.001433828,-0.0019275328,-0.0009774073,-0.0022401456,0.0014872318,0.0019651128,0.0011824883,0.0023403636,0.0054062903,0.0065583885,0.005036503,0.004528612,53,3,190,2,4,245.38426,163.20688,-1325.4791,28.589828,-41502.477,-63.8704,93.18647,93.26822,100.61238,100.61238,-10.818269,1,14.426846,0,0,5.8807554,5.8807554,0,9,255,0,0,0,3,0,16,0
True,4206234,7999.995,1269.8213,5617.1616,0.41715053,0.6397086,1.1727748,-0.0049905777,0.07466706,28.663593,-0.035714693,4.3728505E-05,0.013112811,2.1121838,-0.01233671,-8.13366E-05,0.5504683,0.5690612,0.52810913,0.5281083,0.03987518,0.039072145,0.11499629,0.1166061,89.0618,89.05562,89.78613,89.79545,0,0,0,0,0,0,0,0,0,0,0,0,-0.00059280405,-0.0012760469,-0.00029143106,-0.0016262012,0.039879587,0.039092977,0.114996664,0.11661744,0.005955279,0.008149236,0.005449176,0.0054490864,53,3,190,2,4,247.66956,163.24397,-1326.8531,28.663692,21363.809,36.155033,93.21504,93.297966,100.62012,100.62012,-1.8991194,1,16.150707,0,0,5.973982,5.9739814,0,9,255,0,0,0,3,0,15,0
True,4206343,7999.995,1269.8213,4688.655,0.040892184,0.3447498,2.1292195,-0.0056972504,-0.0214082,28.954945,-0.023247944,-0.0003223451,0.0036586327,2.1121705,-0.017267205,0.0010022714,0.5344703,0.5446844,0.5636317,0.5739534,0.028829666,0.030493116,0.067213126,0.06586185,89.815674,89.83135,90.187485,90.17865,0,0,0,0,0,0,0,0,0,0,0,0,0.00097442826,0.001514725,-2.8094717E-05,0.0022699714,0.028846128,0.030530713,0.06721313,0.06590096,0.0040675104,0.005272776,0.009480327,0.010651648,53,3,190,2,4,250.44464,163.29576,-1328.521,28.954954,94998.12,193.46127,93.26506,93.34718,100.679474,100.679474,1.4706411,1,18.243944,0,0,6.0862985,6.0862985,0,9,255,0,0,0,3,0,13,0
True,4206453,7999.995,1269.8213,4660.086,-0.13585937,-0.58963513,1.9264567,0.0022916794,-0.042086482,29.154816,0.03185091,-0.0006759306,-0.011201277,2.112104,-0.015364881,0.00045162346,0.49234876,0.4794171,0.5644634,0.572972,0.04680883,0.04875815,0.12897108,0.12742147,90.509346,90.52839,91.29446,91.28629,0,0,0,0,0,0,0,0,0,0,0,0,0.0013434412,0.0020086272,-0.0001128064,0.0026785354,0.046828106,0.048799504,0.12897113,0.12744962,-0.00090283155,-0.00242877,0.009574711,0.010540277,53,3,190,2,4,253.39716,163.3492,-1330.2959,29.154846,167004.95,342.31506,93.30398,93.38376,100.71599,100.71599,7.315696,1,20.471113,0,0,6.2049193,6.20492,0,9,255,0,0,0,3,0,10,0
True,4206562,7999.995,1269.8213,4706.4805,-0.38516796,-0.36275047,2.260638,0.0076589584,-0.041919872,29.38582,-0.009353694,-0.00034042113,-0.012333887,2.1120532,-0.014077946,-0.0007802099,0.49324283,0.47833383,0.5428901,0.54087,0.0476459,0.047414932,0.14406814,0.14397629,91.32185,91.32145,92.240654,92.24216,0,0,0,0,0,0,0,0,0,0,0,0,1.646034E-05,1.5553509E-05,-0.00059480907,5.392303E-05,0.047645904,0.047414936,0.14406936,0.1439763,-0.00079733133,-0.0025565922,0.00712654,0.0068973005,53,3,190,2,4,255.74294,163.38464,-1331.7067,29.385849,193732.36,393.1427,93.34332,93.42243,100.75935,100.75935,14.723983,1,22.240704,0,0,6.298447,6.2984476,0,9,255,0,0,0,3,0,9,0
True,4206656,7999.995,1269.8213,4764.8794,-0.00036215782,0.76985955,3.0070662,0.004340172,-0.067782864,29.726448,-0.04746849,0.00038934368,0.0037156343,2.1120644,-0.018292854,-0.001483311,0.5305652,0.53455895,0.5735421,0.56341344,0.057111643,0.053239312,0.13697015,0.1395481,92.54303,92.506905,93.34623,93.36556,0,0,0,0,0,0,0,0,0,0,0,0,-0.002284339,-0.0020045056,-0.0033657325,-0.00069505774,0.057157308,0.053277034,0.1370115,0.13954982,0.0036067069,0.004077971,0.010604978,0.009455562,53,3,190,2,4,258.70602,163.43352,-1333.4889,29.726526,220478.42,441.94067,93.400314,93.4807,100.82648,100.82648,21.651875,1,24.475637,0,0,6.415448,6.4154487,0,9,255,0,0,0,3,0,7,0
True,4206765,7999.995,1269.8213,4811.8315,0.057441235,0.19331078,2.8721037,-0.0028028488,-0.1094355,30.025593,0.012866674,0.0006598013,0.010010081,2.112127,-0.02033541,-0.00073458074,0.5051208,0.51746,0.61483943,0.6147472,0.06919038,0.06889298,0.14674303,0.14543211,93.46806,93.46383,94.270294,94.256226,0,0,0,0,0,0,0,0,0,0,0,0,-0.0018926739,-0.0006063499,-0.0041575334,0.0026952766,0.069216266,0.068895645,0.14680192,0.14545709,0.0006042719,0.0020602942,0.015291452,0.015280992,53,3,190,2,4,261.16055,163.48163,-1334.9646,30.025797,226494.72,449.62787,93.44398,93.52525,100.88663,100.88663,22.840393,1,26.327293,0,0,6.511312,6.511313,0,9,255,0,0,0,3,0,5,0
True,4206875,7999.995,1269.8213,4873.392,0.053686023,-0.724015,3.144729,-0.0051984787,-0.109818146,30.37175,0.022602193,0.00018449238,0.0053310483,2.112178,-0.017381325,0.00024725124,0.47108203,0.4797396,0.5906344,0.59593743,0.063195236,0.06506099,0.17245334,0.17018817,94.47271,94.48896,95.5574,95.5361,0,0,0,0,0,0,0,0,0,0,0,0,0.0001398466,0.00096410234,-0.001983358,0.0035812315,0.06319539,0.06506813,0.17246476,0.17022584,-0.0034123063,-0.0023907125,0.012544632,0.01314643,53,3,190,2,4,264.00467,163.5325,-1336.6741,30.371948,229644.39,450.10013,93.49449,93.575264,100.95537,100.95537,23.130302,1,28.472647,0,0,6.621194,6.621195,0,9,255,0,0,0,3,0,3,0
True,4206984,7999.995,1269.8213,4928.669,-0.22300172,-0.5212452,3.0865996,-0.0035734177,-0.11072281,30.735268,0.010233613,-8.833139E-05,0.005218396,2.1121721,-0.015561544,0.0007518763,0.4616064,0.47011194,0.57378507,0.5761744,0.062145,0.06008467,0.15689641,0.16055566,95.61203,95.59398,96.595055,96.622635,0,0,0,0,0,0,0,0,0,0,0,0,-0.00012834423,0.0004893181,-0.0016797871,0.0021043152,0.062145133,0.060086664,0.1569054,0.16056944,-0.00453043,-0.003526777,0.010632545,0.010903686,53,3,190,2,4,266.98807,163.57658,-1338.4674,30.735466,231663.14,449.00565,93.549576,93.63014,101.02936,101.02936,23.18502,1,30.723051,0,0,6.735115,6.735116,0,9,255,0,0,0,3,0,1,0
True,4207078,7999.995,1269.8213,4974.4507,0.05593741,-0.2401492,3.1314921,-0.004453659,-0.11759482,31.024143,0.0034419352,-0.00010920399,0.00634595,2.1121662,-0.015156903,0.0013388143,0.46836522,0.4767053,0.56483763,0.56810224,0.061576273,0.06255313,0.15579419,0.15449291,96.52496,96.53643,97.49489,97.48358,0,0,0,0,0,0,0,0,0,0,0,0,-0.00013132043,0.00055535405,-0.0013223524,0.0016680008,0.061576415,0.062555596,0.1557998,0.15450193,-0.00373289,-0.0027487576,0.00961718,0.009987652,53,3,190,2,4,269.40137,163.60927,-1339.9182,31.024366,233198.66,447.78568,93.59451,93.67519,101.08765,101.08765,23.19373,1,32.543434,0,0,6.8262944,6.826295,0,9,255,0,0,0,3,0,255,0
True,4207218,7999.995,1269.8213,5040.6636,0.4200878,-0.24360685,3.5274882,0.0016031265,-0.12129879,31.438034,0.0054717353,-0.00066545705,-0.013071616,2.1121168,-0.014455473,0.0009957004,0.4733162,0.45910427,0.5643135,0.57112026,0.05977919,0.064744614,0.15732376,0.15330374,97.794815,97.84337,98.79954,98.771164,0,0,0,0,0,0,0,0,0,0,0,0,0.0016948706,0.0024304816,9.89339E-05,0.003198263,0.059803214,0.06479022,0.1573238,0.1533371,-0.003148675,-0.0048256814,0.009557694,0.010330141,53,3,190,2,4,272.91205,163.65436,-1342.0287,31.438267,235327.78,445.9179,93.6606,93.738785,101.17137,101.17137,23.196217,1,35.191544,0,0,6.9574413,6.9574413,0,9,255,0,0,0,3,0,252,0
True,4207328,7999.995,1269.8213,5098.9453,0.019918203,-0.82521874,2.956726,0.011371613,-0.13760166,31.800072,0.042344667,-0.0006385499,-0.018406866,2.1120243,-0.011882249,-0.0011696849,0.45138344,0.42780477,0.56951094,0.56639236,0.07134156,0.06901336,0.16211031,0.16381417,98.953514,98.93273,99.92148,99.93964,0,0,0,0,0,0,0,0,0,0,0,0,-0.00027602317,0.0006532198,-0.0018883839,0.0011568486,0.071342096,0.06901645,0.16212131,0.16381826,-0.0057367384,-0.008519024,0.010147512,0.009793609,53,3,190,2,4,276.01617,163.68826,-1343.8958,31.800371,237147.34,444.24878,93.71521,93.79211,101.24486,101.24486,23.19654,1,37.53079,0,0,7.071993,7.0719934,0,9,255,0,0,0,3,0,250,0
True,4207437,7999.995,1269.8213,5157.601,-0.0071843863,-0.54982555,3.0078719,0.008761406,-0.116151996,32.149242,-0.005491668,0.00029644312,-0.0021366985,2.1120129,-0.008983065,-0.0023504253,0.4581069,0.4575533,0.54616755,0.534808,0.055797175,0.053673264,0.16514105,0.1651719,99.988884,99.96852,101.125824,101.1223,0,0,0,0,0,0,0,0,0,0,0,0,-0.002306532,-0.0020789583,-0.0027503918,-0.0018474843,0.05584483,0.05371351,0.16516395,0.16518223,-0.004943371,-0.0050086975,0.007498473,0.0062093735,53,3,190,2,4,279.04736,163.70947,-1345.7191,32.149456,238946.06,442.49963,93.770744,93.84905,101.31651,101.31651,23.196552,1,39.81748,0,0,7.1826105,7.182611,0,9,255,0,0,0,3,0,248,0
True,4207546,7999.995,1269.8213,5199.2036,0.15715837,0.41323486,3.4081957,0.0009937286,-0.12363724,32.451717,-0.016311506,0.00058453594,0.007755225,2.1120615,-0.010907748,-0.0020246902,0.49023962,0.5006252,0.57131696,0.5721799,0.060802516,0.059194013,0.13845047,0.1386661,100.99761,100.97984,101.85304,101.85201,0,0,0,0,0,0,0,0,0,0,0,0,-0.0021501847,-0.0014632331,-0.0028656728,0.00016587481,0.060840525,0.059212096,0.13848013,0.1386662,-0.0011517107,7.379055E-05,0.0103524625,0.010450393,53,3,190,2,4,281.70483,163.72887,-1347.317,32.451958,240220.73,441.28513,93.82255,93.9018,101.37988,101.37988,23.196552,1,41.822014,0,0,7.2785993,7.2785997,0,9,255,0,0,0,3,0,246,0
True,4207640,7999.995,1269.8213,5247.2354,-0.007687211,-0.26866427,3.0286667,-0.0044021606,-0.125339,32.73842,0.029191853,0.0006948477,0.012432866,2.1121223,-0.009987864,-0.0010939038,0.4635774,0.47763196,0.5916728,0.5945004,0.06658337,0.06386948,0.15387598,0.15593903,101.8579,101.82798,102.81932,102.835106,0,0,0,0,0,0,0,0,0,0,0,0,-0.0015586657,-0.0006395416,-0.0030726653,0.002123178,0.06660161,0.06387268,0.15390666,0.15595348,-0.0042978525,-0.0026394129,0.01266247,0.012983352,53,3,190,2,4,284.2777,163.74954,-1348.8636,32.73866,241603.2,439.8134,93.86745,93.94707,101.439285,101.439285,23.196556,1,43.762646,0,0,7.3706865,7.370687,0,9,255,0,0,0,3,0,244,0
True,4207765,7999.995,1269.8213,5307.24,-0.07553506,-0.5154787,2.9983246,-0.009712219,-0.121644385,33.09999,0.0086549,0.0005486695,0.016103942,2.1121962,-0.0075902455,0.000669634,0.45643318,0.47606483,0.5650362,0.56932235,0.06022753,0.05935245,0.15645488,0.16012767,102.96168,102.952,104.010025,104.03965,0,0,0,0,0,0,0,0,0,0,0,0,-0.0005112426,0.00010329262,-0.0012142123,0.0018624302,0.0602297,0.05935254,0.15645958,0.1601385,-0.005140871,-0.0028243363,0.00963971,0.010126114,53,3,190,2,4,287.54578,163.76793,-1350.8276,33.100216,243355.81,437.9687,93.9263,94.006714,101.51447,101.51447,23.196556,1,46.227432,0,0,7.4864993,7.4864993,0,9,255,0,0,0,3,0,242,0
True,4207859,7999.995,1269.8213,5354.043,0.23675644,-0.18382192,3.500533,-0.009466171,-0.11935465,33.405296,-0.000993764,-0.00020521473,0.007634306,2.1122127,-0.0072329342,0.0019363184,0.47060746,0.4809908,0.5648702,0.5740398,0.05583169,0.058342315,0.15137321,0.14986241,103.88415,103.90899,104.93325,104.92387,0,0,0,0,0,0,0,0,0,0,0,0,0.0011430151,0.0016609163,-0.00016056452,0.0030403596,0.055843387,0.058365952,0.1513733,0.14989325,-0.0034683049,-0.0022430718,0.009620875,0.010661453,53,3,190,2,4,290.33606,163.7799,-1352.5045,33.40551,244683.81,436.50595,93.97885,94.0582,101.578156,101.578156,23.196556,1,48.33187,0,0,7.584384,7.584384,0,10,255,0,0,0,3,0,240,0
True,4207968,7999.995,1269.8213,5410.8335,0.04146433,0.41016895,3.0846863,-0.0004644394,-0.11020531,33.770798,-0.016537946,-0.0007112989,-0.00794502,2.1121442,-0.008385606,0.0017274739,0.50839376,0.4959978,0.5815263,0.5846346,0.054004103,0.054756843,0.14223607,0.14291763,105.030334,105.04133,106.0209,106.0303,0,0,0,0,0,0,0,0,0,0,0,0,0.0013909516,0.0018461859,-0.0009129611,0.0033906724,0.054022014,0.054787956,0.142239,0.14295785,0.0009904802,-0.0004722476,0.011511028,0.011863768,53,3,190,2,4,293.75052,163.79684,-1354.5569,33.770973,246295.06,434.74368,94.04583,94.122955,101.65521,101.65521,23.196556,1,50.906227,0,0,7.7029786,7.7029786,0,10,255,0,0,0,3,0,238,0
True,4208078,7999.995,1269.8213,5458.864,0.20666575,0.17666191,3.214418,0.0019626617,-0.12048759,34.076656,0.0041420795,-0.00012754867,-0.00020602136,2.1120975,-0.009467211,0.0012103439,0.506028,0.5034741,0.60523784,0.5960782,0.06391,0.06114018,0.14072509,0.14266028,106.04293,106.015144,106.9317,106.94966,0,0,0,0,0,0,0,0,0,0,0,0,-0.0009389533,2.9353329E-05,-0.0035566888,0.0021441467,0.06391689,0.061140187,0.14077003,0.14267638,0.00071132183,0.00040996075,0.01420185,0.013162404,53,3,190,2,4,296.66638,163.81645,-1356.3103,34.07687,247607.77,433.21686,94.099945,94.17778,101.72105,101.72105,23.196556,1,53.105724,0,0,7.8032637,7.803264,0,10,255,0,0,0,3,0,236,0
True,4208187,7999.995,1269.8213,5519.439,-0.14204657,-0.5728826,2.7519777,-0.002327919,-0.12298624,34.426388,0.023666034,7.894423E-05,0.0030970909,2.1121135,-0.0071845907,0.0016926076,0.47420773,0.47845405,0.59110343,0.58983314,0.06136324,0.06394854,0.16085608,0.15865709,107.06785,107.09528,108.190575,108.17049,0,0,0,0,0,0,0,0,0,0,0,0,-0.0003596679,0.00049676065,-0.0025477777,0.0026451757,0.061364293,0.06395047,0.16087626,0.15867913,-0.0030434728,-0.0025424063,0.012597859,0.012453705,53,3,190,2,4,300.04727,163.83582,-1358.3428,34.42661,249207.62,431.26172,94.159,94.237,101.79522,101.79522,23.196556,1,55.655853,0,0,7.9184237,7.9184237,0,10,255,0,0,0,3,0,233,0
True,4208328,7999.995,1269.8213,5593.6055,-2.3595037,-0.3901053,2.9056687,-0.16449451,-0.121417955,34.876045,0.007358508,-0.10652215,-0.06787708,2.108179,-0.0048450907,-0.0022043188,0.4663897,0.47491944,0.5544209,0.58005005,0.091863275,0.051807985,0.18773694,0.13049382,108.50619,108.6116,109.65478,109.580635,0,0,0,0,0,0,0,0,0,0,0,0,-0.34606773,-0.3075566,0.010100706,0.0125820665,0.35805267,0.3118896,0.18800847,0.13109899,-0.0039660037,-0.0029594898,0.0084350705,0.011343509,53,3,190,2,4,304.52597,163.84746,-1361.0225,34.876644,251149.39,428.86285,94.28048,94.37013,101.89221,101.89221,23.196556,1,59.029884,0,0,8.06901,8.06901,0,10,255,0,0,0,3,-127,230,0
True,4208437,7999.995,1269.8213,5641.8535,-6.3131795,0.038037516,2.6653323,-0.1774044,-0.11455257,35.11394,-0.009628717,-0.2949345,-0.09196397,2.0895293,-0.0051342384,-0.009771921,0.4563478,0.5451918,0.530011,0.6173661,0.15746202,0.056945723,0.23935996,0.105025895,109.35168,109.76991,110.518364,110.55193,0,0,0,0,0,0,0,0,0,0,0,0,-0.68936986,-0.56418383,-0.061440416,-0.051452246,0.70712453,0.56705046,0.24711964,0.11695201,-0.005150944,0.0053326488,0.0056650043,0.015578181,53,3,190,2,4,307.32968,163.85222,-1362.6414,35.114574,252382.64,427.2855,94.46982,94.62069,101.95619,101.95619,23.196556,1,61.12342,0,0,8.161505,8.161505,0,10,255,0,0,0,3,-127,230,0
True,4208562,7999.995,1269.8213,5684.5806,-7.9876804,0.4543491,2.8049238,0.34130096,-0.09051265,35.38756,-0.0044213515,-0.38407096,-0.007855663,2.0486023,-0.006769602,-0.017886464,0.43685707,0.6142746,0.5137163,0.6913065,0.07937115,0.047052886,0.2562947,0.10613381,109.343346,110.91293,111.32109,111.648315,0,0,0,0,0,0,0,0,0,0,0,0,0.03065244,0.028283108,-0.25390854,-0.21681178,0.08508438,0.054899074,0.3607721,0.24139538,-0.007450849,0.013484418,0.0038158596,0.02396904,53,3,190,2,4,310.6778,163.86368,-1364.4661,35.389324,253487.42,425.84958,94.7512,95.014336,102.059296,102.059296,23.196556,1,63.588287,0,0,8.269693,8.269693,0,10,255,0,0,0,3,0,231,0
True,4208656,7999.995,1269.8213,5729.055,-6.1037226,0.043928917,2.8030581,0.67503166,-0.07971941,35.661674,0.009077816,-0.18780074,-0.011451011,2.0217383,-0.006942426,-0.018286234,0.4151254,0.59820056,0.51025707,0.68496,0.09162597,0.04704031,0.23961617,0.12423173,110.79523,111.257614,112.46515,112.21728,0,0,0,0,0,0,0,0,0,0,0,0,-0.12670909,-0.11247611,-0.26761466,-0.23163143,0.15636659,0.12191664,0.35921237,0.26284337,-0.01001519,0.011587679,0.0034233034,0.023248836,53,3,190,2,4,313.74054,163.87881,-1366.056,35.668148,254570.73,424.409,94.808304,95.09517,102.18722,102.18722,23.196556,1,65.818375,0,0,8.36681,8.366811,0,10,255,0,0,0,3,0,234,0
True,4208781,7999.995,1269.8213,5787.526,-5.178479,-0.7103119,3.1914635,0.39369392,-0.107563555,36.082447,0.024125898,-0.039551407,0.027010202,2.0072038,-0.005247876,-0.017320752,0.39160934,0.57904977,0.4897857,0.66792476,0.08424818,0.052651327,0.19057216,0.13738509,112.35723,112.22829,113.59133,113.27005,0,0,0,0,0,0,0,0,0,0,0,0,-0.09965911,-0.092210814,-0.12904239,-0.11278835,0.13049787,0.10618379,0.23015144,0.17775229,-0.012790084,0.0093278885,0.0011001825,0.02131565,53,3,190,2,4,318.3513,163.89664,-1368.3248,36.084755,256022.12,422.48416,94.911705,95.23991,102.33597,102.33597,23.196556,1,69.13593,0,0,8.510039,8.510039,0,10,255,0,0,0,3,0,241,0
True,4208890,7999.995,1269.8213,5831.4033,-0.1636138,-0.36818993,2.9930172,0.38521194,-0.11142199,36.360996,-0.0117466785,0.08010732,0.124996066,2.0072873,-0.0042733676,-0.010896446,0.42256057,0.56791735,0.5046586,0.63783693,0.050516028,0.07789465,0.13937066,0.17377894,113.19922,113.09962,114.29483,114.28188,0,0,0,0,0,0,0,0,0,0,0,0,0.28797835,0.32103732,-0.08572018,-0.08272003,0.29237545,0.33035213,0.16362192,0.19246225,-0.009137839,0.008014262,0.0027879775,0.017901242,53,3,190,2,4,321.5247,163.90138,-1369.837,36.363205,257072,421.01828,95.005516,95.33819,102.41013,102.41013,23.196556,1,71.40358,0,0,8.607066,8.607065,0,10,255,0,0,0,3,127,246,0
True,4209000,7999.995,1269.8213,5883.959,5.039793,-0.2650781,2.514495,0.2147398,-0.15058035,36.633797,0.02583061,0.30433798,0.09342569,2.029143,-0.0047968393,0.0016854326,0.49504536,0.49437937,0.60662866,0.60983735,0.06868449,0.2411228,0.10203982,0.20758252,114.58271,114.91794,115.217384,114.921265,0,0,0,0,0,0,0,0,0,0,0,0,0.5786976,0.7014716,0.04332202,0.053818643,0.5827594,0.7417565,0.110855415,0.21444568,-0.00058463216,-0.0006632209,0.014359683,0.014723808,53,3,190,2,4,325.06384,163.90617,-1371.5695,36.63474,258276.53,419.2766,95.290535,95.55329,102.48783,102.48783,23.196556,1,73.94718,0,0,8.715007,8.715007,0,10,255,0,0,0,3,35,252,0
True,4209109,7999.995,1269.8213,5936.7896,3.6159172,-1.1198058,2.8839402,-0.48680973,-0.13460717,36.951565,0.024525706,0.19463815,0.033840895,2.05861,-0.0005734241,0.0051236246,0.4828759,0.44580814,0.6056483,0.5553287,0.05511355,0.07149011,0.13815007,0.24485756,115.33496,114.55716,116.36847,116.55188,0,0,0,0,0,0,0,0,0,0,0,0,0.060039986,0.06379819,0.1878914,0.20810059,0.08150033,0.09581777,0.23321368,0.32134262,-0.0020206273,-0.0063946247,0.014248431,0.008538097,53,3,190,2,4,328.68655,163.90074,-1373.408,36.955013,259508.34,417.50067,95.43816,95.67151,102.58235,102.58235,23.196556,1,76.56539,0,0,8.825406,8.825406,0,10,255,0,0,0,3,0,0,0
True,4209218,7999.995,1269.8213,5982.3345,4.6972556,-1.2373973,3.1780984,-0.48052025,-0.1382162,37.281498,0.036324054,0.07271032,0.05261562,2.0729287,0.0025328638,0.01080464,0.49730352,0.43895411,0.56511074,0.49105206,0.054937795,0.084125556,0.13771226,0.20844765,116.037476,115.98899,117.093895,117.45449,0,0,0,0,0,0,0,0,0,0,0,0,0.09038287,0.09707906,0.13832162,0.1502801,0.10576967,0.12845798,0.1951859,0.25697187,-0.0003181696,-0.0072034,0.009648174,0.0012438893,53,3,190,2,4,332.39554,163.88113,-1375.35,37.284847,260550.34,415.9728,95.52694,95.74142,102.7096,102.7096,23.196556,1,79.271255,0,0,8.938182,8.938181,0,10,255,0,0,0,3,0,3,0
True,4209328,7999.995,1269.8213,6033.097,3.2181978,-1.917436,3.1510448,-0.29140568,-0.15276182,37.60739,0.05393894,0.015243268,0.019451132,2.0773149,0.007351969,0.014712615,0.40886563,0.33358672,0.57267153,0.48355824,0.062888086,0.0839488,0.15386197,0.1902758,116.965195,117.10993,118.10579,118.39864,0,0,0,0,0,0,0,0,0,0,0,0,0.06621833,0.069164984,0.07538854,0.08084562,0.091322385,0.1087713,0.17133866,0.20673871,-0.01075384,-0.01963675,0.010506183,0.00039348006,53,3,190,2,4,336.0104,163.84468,-1377.2997,37.608826,260962.45,413.15936,95.60922,95.806816,102.80644,102.80644,23.196556,1,81.92677,0,0,9.047855,9.047854,0,10,255,0,0,0,3,0,5,0
True,4209437,7999.995,1269.8213,6089.2915,1.6787007,-2.902507,2.995462,-0.14092445,-0.18177283,37.934624,0.09689663,-0.006925945,0.008671485,2.0776842,0.015323807,0.016195059,0.32871506,0.30244988,0.49003625,0.4307945,0.080597766,0.096795015,0.18389167,0.18749702,118.028854,118.23993,119.320724,119.38082,0,0,0,0,0,0,0,0,0,0,0,0,0.037085194,0.038287792,0.032562256,0.03417316,0.08872041,0.10409241,0.18675236,0.19058578,-0.020211607,-0.0233109,0.001128614,-0.0055942237,53,3,190,2,4,339.62442,163.78018,-1379.2808,37.935318,260910.86,409.27008,95.6681,95.862015,102.88559,102.88559,23.196556,1,84.59206,0,0,9.156973,9.156972,0,10,255,0,0,0,3,0,6,0
True,4209546,7999.995,1269.8213,6144.275,0.34382224,-3.1432562,3.0707948,-0.074064255,-0.20022483,38.264294,0.065690644,-0.019353382,-0.014847904,2.0767155,0.024178166,0.016023004,0.28233886,0.23434576,0.40858117,0.3797895,0.07707366,0.07307371,0.1912625,0.18972276,119.055664,119.09012,120.45294,120.5139,0,0,0,0,0,0,0,0,0,0,0,0,-0.066330425,-0.06516018,0.010594662,0.01850858,0.10168616,0.09790616,0.19155571,0.19062343,-0.025683999,-0.031347185,-0.008115023,-0.011382341,53,3,190,2,4,343.21863,163.6768,-1381.2632,38.26489,260808.03,405.40582,95.72217,95.91422,102.95781,102.95781,23.196556,1,87.24696,0,0,9.264738,9.264736,0,10,255,0,0,0,3,-111,7,0
True,4209640,7999.995,1269.8213,6186.453,-2.5538788,-2.5930333,2.9542432,-0.14862442,-0.22274399,38.53353,0.053837933,-0.115243115,-0.037105225,2.071306,0.029491711,0.012708505,0.26488152,0.3343472,0.40559888,0.3866105,0.15694071,0.056625456,0.19587743,0.15072036,120.52678,119.94289,121.14643,121.1792,0,0,0,0,0,0,0,0,0,0,0,0,-0.42123392,-0.3613314,-0.004333591,0.003841317,0.4495202,0.3657415,0.19592535,0.15076931,-0.027743965,-0.019547015,-0.008453459,-0.010608286,53,3,190,2,4,346.25595,163.56398,-1382.9265,38.534462,260699.92,402.5026,95.80559,96.01863,103.017105,103.017105,23.196556,1,89.47669,0,0,9.354954,9.354953,0,10,255,0,0,0,3,-127,8,0
True,4209765,7999.995,1269.8213,6243.6597,-1.7110267,-2.1195922,3.0946856,0.16913986,-0.21817067,38.929256,0.041515645,-0.072861105,0.045335807,2.0580542,0.03686467,0.016400866,0.27464354,0.3857595,0.3683186,0.45522958,0.06405366,0.054803725,0.1909936,0.1552224,120.89385,121.14076,122.4423,122.40644,0,0,0,0,0,0,0,0,0,0,0,0,-0.027741898,-0.026587708,-0.0838738,-0.07473107,0.069803186,0.06091268,0.2085986,0.17227514,-0.026592046,-0.013480365,-0.012684077,-0.0028212965,53,3,190,2,4,350.58215,163.37134,-1385.2571,38.930233,260500.53,398.49112,95.89652,96.1272,103.10495,103.10495,23.196556,1,92.65627,0,0,9.481909,9.481907,0,10,255,0,0,0,3,0,11,0
True,4209875,7999.995,1269.8213,6288.127,-2.042951,-0.98714054,3.1258037,0.13518906,-0.2014998,39.272182,0.021889934,-0.02696568,0.052857354,2.0528831,0.039922692,0.021174146,0.35274813,0.4750821,0.40845117,0.51108223,0.06147904,0.050453417,0.15467966,0.13327765,122.07463,122.08685,123.26035,123.15943,0,0,0,0,0,0,0,0,0,0,0,0,-0.03347482,-0.03179226,-0.054650728,-0.050186396,0.070001684,0.05963468,0.1640503,0.14241351,-0.017375708,-0.0029402971,-0.0081297755,0.0035169423,53,3,190,2,4,354.36694,163.18285,-1387.2688,39.27293,260311.45,395.39398,95.95558,96.197464,103.18187,103.18187,23.196556,1,95.42978,0,0,9.591619,9.591617,0,10,255,0,0,0,3,0,13,0
True,4209984,7999.995,1269.8213,6330.0977,-1.5950961,-1.030933,3.1227767,0.05532646,-0.19103776,39.547237,0.044422645,-0.008109625,0.053454988,2.0515127,0.042548835,0.02609133,0.30007908,0.42362157,0.48255083,0.56298983,0.06763563,0.05904353,0.14321683,0.13818578,123.00164,122.9448,124.00743,123.99057,0,0,0,0,0,0,0,0,0,0,0,0,-0.019697309,-0.01878403,-0.025004504,-0.023072213,0.070445456,0.06195949,0.14538324,0.14009868,-0.023590654,-0.0090126395,0.00027915835,0.0094074905,53,3,190,2,4,357.46512,163.02164,-1388.8965,39.54774,260100.31,392.4728,96.00243,96.248825,103.238266,103.238266,23.196556,1,97.694305,0,0,9.680505,9.680504,0,10,255,0,0,0,3,0,16,0
True,4210093,7999.995,1269.8213,6389.738,-0.88077927,-1.8499873,3.0969336,-0.014474869,-0.19629532,39.882618,0.052102596,-0.0011534742,0.0492785,2.051262,0.047803286,0.03182881,0.33369812,0.39750642,0.44141766,0.499433,0.068415664,0.066760994,0.15555073,0.15573017,124.05822,124.04872,125.19754,125.20417,0,0,0,0,0,0,0,0,0,0,0,0,-0.0040406664,-0.003443948,-0.0055595487,-0.004218224,0.06853488,0.06684977,0.15565005,0.15578729,-0.019623607,-0.012094229,-0.00438869,0.0021949708,53,3,190,2,4,361.29767,162.80542,-1390.897,39.883102,259747.17,388.26306,96.05615,96.30443,103.30345,103.30345,23.196556,1,100.491905,0,0,9.78949,9.789489,0,10,255,0,0,0,3,0,19,0
True,4210203,7999.995,1269.8213,6447.77,-0.7434949,-2.0150454,3.2607093,-0.05703926,-0.19182824,40.235527,0.03972761,-9.7075186E-05,0.07021823,2.0514266,0.05385743,0.038190708,0.24405323,0.39105597,0.43451107,0.5185595,0.061517585,0.05450178,0.15880854,0.16353115,125.102135,125.02195,126.35713,126.420006,0,0,0,0,0,0,0,0,0,0,0,0,0.0033833464,0.0036484962,0.002208165,0.0035063822,0.061610553,0.054623764,0.15882389,0.16356874,-0.030201703,-0.012855381,-0.0051724613,0.004365474,53,3,190,2,4,365.31503,162.5516,-1392.9873,40.236023,259339.55,384.147,96.11209,96.362625,103.37201,103.37201,23.196556,1,103.41648,0,0,9.902704,9.902703,0,10,255,0,0,0,3,0,23,0
True,4210312,7999.995,1269.8213,6488.12,-0.07810211,-0.88487285,3.2276263,-0.083847046,-0.18476784,40.54455,0.005207954,-0.0003810415,0.075493455,2.0514963,0.05586042,0.04578699,0.3250681,0.42442396,0.4191387,0.49395373,0.051056582,0.05119552,0.13213876,0.13693337,126.00636,126.00697,127.08255,127.1376,0,0,0,0,0,0,0,0,0,0,0,0,0.008637004,0.00897105,0.006332517,0.009138052,0.05178197,0.05197558,0.13229041,0.13723794,-0.020641953,-0.008917958,-0.00691694,0.0015731752,53,3,190,2,4,368.84488,162.31314,-1394.8209,40.54506,259066.28,381.3483,96.168274,96.41943,103.43287,103.43287,23.196556,1,105.99141,0,0,10.001349,10.001349,0,10,255,0,0,0,3,0,27,0
True,4210437,7999.995,1269.8213,6546.656,0.07484913,0.43369678,3.1917808,-0.0876503,-0.15237457,40.938427,-0.022169903,-0.002768602,0.06070433,2.0512598,0.055410888,0.05491368,0.42360818,0.46771663,0.46888363,0.5190837,0.042794615,0.045828342,0.11918187,0.12306412,127.17576,127.22333,128.20631,128.25938,0,0,0,0,0,0,0,0,0,0,0,0,0.01172351,0.011985141,0.009925792,0.010491621,0.04437138,0.047369618,0.11959448,0.12351053,-0.009014219,-0.0038094223,-0.0012718141,0.0044249594,53,3,190,2,4,373.50647,161.99661,-1397.2399,40.9388,258559.8,377.20483,96.24922,96.49857,103.51338,103.51338,23.196556,1,109.3912,0,0,10.130471,10.130471,0,10,255,0,0,0,3,0,32,0
True,4210562,7999.995,1269.8213,6619.8735,-3.42895,0.029860798,2.9362898,-0.2369461,-0.12847087,41.364193,0.015450691,-0.115104884,-0.030895593,2.0467288,0.054993488,0.05798102,0.37231815,0.42398348,0.51367795,0.54467535,0.08525804,0.045822635,0.1594433,0.11033013,128.59091,128.67485,129.68399,129.64078,0,0,0,0,0,0,0,0,0,0,0,0,-0.38552028,-0.34047228,0.018145341,0.017538933,0.39483517,0.34354198,0.1604725,0.111715496,-0.015066445,-0.008969933,0.0038115084,0.007329136,53,3,190,2,4,378.86694,161.64577,-1400.007,41.365067,257839.03,371.99158,96.38527,96.64879,103.604126,103.604126,23.196556,1,113.29556,0,0,10.27728,10.27728,0,10,255,0,0,0,3,-127,37,0
True,4210671,7999.995,1269.8213,6667.1953,-7.531703,0.12341352,2.8576975,-0.15050125,-0.11603513,41.598557,-0.013045868,-0.30909976,-0.05990924,2.0268598,0.05643157,0.05227785,0.3675341,0.49952707,0.42234132,0.53757966,0.10704,0.040340677,0.2099944,0.09032685,129.09033,129.80083,130.62149,130.6486,0,0,0,0,0,0,0,0,0,0,0,0,-0.5312317,-0.438139,-0.06921274,-0.059997786,0.5419084,0.43999222,0.22110642,0.10843743,-0.01563096,-5.5789948E-05,-0.006553501,0.006523907,53,3,190,2,4,382.31577,161.41745,-1401.724,41.59899,257271.78,368.5427,96.58389,96.92237,103.65953,103.65953,23.196556,1,115.814316,0,0,10.370307,10.370307,0,10,255,0,0,0,3,-81,42,0
True,4210765,7999.995,1269.8213,6693.9814,-5.336878,1.4714836,2.8017507,0.45107841,-0.0838553,41.862957,-0.047195435,-0.19970275,0.0330036,2.0012643,0.054528695,0.05267659,0.37577748,0.5420855,0.459198,0.6041579,0.04548264,0.03460244,0.1467106,0.085387446,129.64061,130.48476,131.01872,131.21793,0,0,0,0,0,0,0,0,0,0,0,0,-0.052361537,-0.04913871,-0.17755976,-0.16181694,0.06935705,0.060099434,0.23032905,0.18296376,-0.014658242,0.00496611,-0.0023709536,0.014079303,53,3,190,2,4,385.79044,161.19402,-1403.3885,41.865467,256962.86,366.62888,96.68917,97.07007,103.74015,103.74015,23.196556,1,118.30638,0,0,10.462776,10.462776,0,10,255,0,0,0,3,0,47,0
True,4210875,7999.995,1269.8213,6736.964,-6.039002,4.881631,3.1012812,0.34329128,-0.0015128255,42.170074,-0.13232246,-0.06755499,0.025814023,1.9863329,0.044558488,0.054932654,0.651487,0.82047296,0.5508984,0.75077814,0.033606354,0.028553044,0.10313355,0.07418804,130.9238,131.19223,131.90976,131.87337,0,0,0,0,0,0,0,0,0,0,0,0,-0.056598216,-0.055693638,-0.101024725,-0.07863079,0.06582359,0.0625864,0.14436941,0.108104885,0.017875478,0.037815824,0.008035332,0.030717969,53,3,190,2,4,390.16867,160.94879,-1405.408,42.17147,256432.16,363.53204,96.79715,97.21476,103.8477,103.8477,23.196556,1,121.421425,0,0,10.577661,10.577661,0,10,255,0,0,0,3,0,55,0
True,4211000,7999.995,1269.8213,6781.443,-6.1464243,5.208926,2.4690452,0.010878563,0.06406963,42.460125,-0.07649806,-0.09094531,0.0135931205,1.9794717,0.031815156,0.05930366,0.6945167,0.83397835,0.7409532,0.8538832,0.047992125,0.035663042,0.111598834,0.07465713,131.80429,132.08716,132.76627,132.73924,0,0,0,0,0,0,0,0,0,0,0,0,-0.25137836,-0.23476535,-0.052643288,0.0016271124,0.2559186,0.23745868,0.12339213,0.07467485,0.022952989,0.03940946,0.02960302,0.04241848,53,3,190,2,4,394.56592,160.77434,-1407.3531,42.46018,255856.16,360.3502,96.92595,97.37322,103.94109,103.94109,23.196556,1,124.522575,0,0,10.691352,10.691353,0,10,255,0,0,0,3,-127,64,0
True,4211109,7999.995,1269.8213,6735.2817,-8.671483,2.6534092,1.3203435,-0.027132034,0.08220923,42.609524,-0.036187634,-0.3172264,-0.082440525,1.9570439,0.027165543,0.054602753,0.6165194,0.7531642,0.63749444,0.7995397,-0.0003028878,-0.0037825003,-0.0027954474,-0.006999486,130.75026,132.26064,130.90958,132.39613,0,0,0,0,0,0,0,0,0,0,0,0,-0.55231124,-0.46594027,-0.0997488,-0.0581233,0.55231136,0.46595562,0.099787965,0.05854324,0.013749301,0.029873386,0.01786238,0.0362515,53,3,190,2,4,398.85217,160.64723,-1409.1538,42.60961,-45061.477,-63.8704,97.166145,97.674126,104.00284,104.00284,8.808791,1,127.64566,0,0,10.800604,10.800605,0,10,255,0,0,0,3,-49,72,0
True,4211218,7999.995,1269.8213,6632.049,-6.5329595,1.3062756,-0.46577215,0.6413603,0.13954395,42.509846,-0.0065146647,-0.19195907,-0.024165016,1.9261651,0.027101258,0.05095936,0.56787014,0.71091217,0.5864501,0.7450511,-0.0019757317,-0.00015311482,-0.00795817,-0.0034852435,130.91089,131.8658,130.85085,131.82585,0,0,0,0,0,0,0,0,0,0,0,0,-0.09039217,-0.083470285,-0.21634446,-0.18066539,0.09041376,0.08347043,0.21649079,0.180699,0.008008689,0.024887651,0.012069792,0.030068055,53,3,190,2,4,403.34357,160.53178,-1410.9357,42.514908,-44387.754,-63.8704,97.28272,97.83927,104.06549,104.06549,-7.540562,1,130.76646,0,0,10.914172,10.914174,0,10,255,0,0,0,3,0,82,0
True,4211328,7999.995,1269.8213,6417.8726,-6.428399,1.07367,-0.27000058,0.5734968,0.16813564,42.459114,-0.028017247,-0.09345287,-0.016630406,1.9124918,0.026261367,0.04814139,0.5307008,0.69749594,0.51592046,0.6711418,-0.0002082982,0.00052992784,0.0004267007,0.0005004858,131.05145,131.51399,131.0624,131.51172,0,0,0,0,0,0,0,0,0,0,0,0,-0.10000679,-0.09253816,-0.16430873,-0.14462662,0.100007005,0.09253968,0.16430928,0.14462748,0.0036227107,0.023304537,0.0040659904,0.021680728,53,3,190,2,4,407.27115,160.43735,-1412.4247,42.46332,-42957.02,-63.8704,97.358116,97.95154,104.1266,104.1266,-10.257942,1,133.47652,0,0,11.013057,11.013059,0,10,255,0,0,0,3,0,90,0
True,4211437,7999.995,1269.8213,6175.8936,-4.9856567,2.4608557,-0.51192,0.27178574,0.19136661,42.39805,-0.083631925,-0.03141945,0.036496796,1.9056938,0.020409778,0.049008954,0.57174414,0.7682936,0.4881357,0.6634346,9.277089E-05,0.00040700962,0.00039671047,0.00050502137,131.11732,131.2702,131.12341,131.27187,0,0,0,0,0,0,0,0,0,0,0,0,-0.052907832,-0.052429985,-0.0768142,-0.066825375,0.052907914,0.052431565,0.07681522,0.06682728,0.0084658265,0.031658664,0.00091293454,0.020806104,53,3,190,2,4,411.73846,160.34659,-1414.0424,42.39935,-40736.35,-62.931335,97.45161,98.08465,104.17631,104.17631,-10.886727,1,136.53804,0,0,11.125052,11.125053,0,10,255,0,0,0,4,0,99,0
True,4211562,7999.995,1269.8213,5454.987,-2.7189143,2.519945,0.6681164,0.057042122,0.15152335,42.46406,-0.054985248,-0.0071067386,0.061872162,1.903529,0.012429486,0.054719016,0.58686024,0.7638552,0.5617337,0.7191061,0.029234516,0.026073918,0.07154606,0.06588644,131.73137,131.72597,132.29982,132.2734,0,0,0,0,0,0,0,0,0,0,0,0,-0.018567622,-0.019031515,-0.023414537,-0.0110948505,0.03463255,0.032280765,0.07528001,0.06681406,0.010249525,0.031134933,0.009264946,0.027123779,53,3,190,2,4,416.15152,160.29211,-1415.5878,42.464367,37337.883,65.1603,97.52809,98.176636,104.21922,104.21922,-1.7676191,1,139.54768,0,0,11.235314,11.235315,0,10,255,0,0,0,4,0,107,0
True,4211656,7999.995,1269.8213,5341.4224,-1.3518937,1.5202467,0.4892652,-0.02427578,0.109166145,42.51356,-0.044219054,-0.005334874,0.071114026,1.9027663,0.008496926,0.060952127,0.55910194,0.70580614,0.5436333,0.66828454,0.015469836,0.014393927,0.045266155,0.04492274,131.69812,131.71002,132.12169,132.13847,0,0,0,0,0,0,0,0,0,0,0,0,-0.0022882929,-0.0030411195,-0.0060516866,0.0021055557,0.015638161,0.01471168,0.045668893,0.04497206,0.0069740415,0.024285138,0.0072108805,0.021356478,53,3,190,2,4,419.92477,160.26279,-1416.8903,42.51371,102437.2,183.16609,97.57727,98.22987,104.248085,104.248085,0.9710293,1,142.39717,0,0,11.329253,11.329253,0,10,255,0,0,0,4,0,112,0
True,4211765,7999.995,1269.8213,5384.844,-0.88369006,2.1629834,0.79609084,-0.056756973,0.08994663,42.620274,-0.07259304,-0.0067213587,0.03680845,1.9016869,0.0020664309,0.067684904,0.60051906,0.6819967,0.5672921,0.63582975,0.0248054,0.025902115,0.06932478,0.07280251,132.22435,132.2676,132.86143,132.93393,0,0,0,0,0,0,0,0,0,0,0,0,0.009263253,0.007892516,0.0047232173,0.009807936,0.02647859,0.027077876,0.06948549,0.0734602,0.011861265,0.021475628,0.009895712,0.017673463,53,3,190,2,4,424.44345,160.24687,-1418.4391,42.620403,183392.42,325.28467,97.64928,98.29647,104.28711,104.28711,7.1138277,1,145.48659,0,0,11.441489,11.44149,0,10,255,0,0,0,4,0,116,0
True,4211890,7999.995,1269.8213,5329.323,-0.41163236,3.2663376,1.5200313,-0.04546261,0.04997474,42.800102,-0.07807365,-0.009542825,0.0030825753,1.9001019,-0.0075408076,0.06996865,0.6506582,0.68773735,0.639362,0.67117465,0.033683453,0.035915904,0.08553976,0.083130196,132.91188,132.98259,133.66861,133.67886,0,0,0,0,0,0,0,0,0,0,0,0,0.011450557,0.011222585,0.0014366988,0.013853186,0.03557654,0.037628427,0.08555182,0.08427657,0.017777681,0.02215302,0.018074304,0.021684453,53,3,190,2,4,429.09268,160.26883,-1420.0253,42.80016,221464.06,396.86447,97.73688,98.37604,104.3508,104.3508,17.517319,1,148.66374,0,0,11.556511,11.556512,0,10,255,0,0,0,4,0,117,0
True,4211984,7999.995,1269.8213,5358.921,-3.1426916,1.4823154,1.6834891,-0.18385983,0.004672289,42.973057,-0.019093271,-0.12072698,-0.05954413,1.8946168,-0.011118176,0.06665285,0.55705464,0.61949456,0.6431978,0.69010985,0.066943094,0.036500808,0.13222672,0.09248949,133.4351,133.63795,134.45103,134.50899,0,0,0,0,0,0,0,0,0,0,0,0,-0.3286506,-0.2889941,0.0011911683,0.017511858,0.33539915,0.29129004,0.13223208,0.09413273,0.006732464,0.014100373,0.018509597,0.023833245,53,3,190,2,4,432.9488,160.3103,-1421.3229,42.97345,239554.66,426.9584,97.83444,98.485176,104.40495,104.40495,21.867336,1,151.29498,0,0,11.651378,11.651379,0,10,255,0,0,0,4,-127,117,0
True,4212093,7999.995,1269.8213,5384.5303,-4.8555174,1.820053,1.8240219,0.18364811,-0.00022238493,43.17063,-0.07023141,-0.23548466,0.036653414,1.8694878,-0.013991978,0.061836176,0.49832085,0.67558974,0.50992304,0.6540297,0.037849087,0.033010267,0.13952361,0.08020249,133.55934,134.64737,134.97142,135.33504,0,0,0,0,0,0,0,0,0,0,0,0,0.015613881,0.013852378,-0.121857606,-0.108749874,0.040943213,0.035798967,0.1852461,0.13512577,-0.00019812584,0.020719603,0.0033853948,0.019738823,53,3,190,2,4,437.55112,160.36798,-1422.7953,43.171024,244617.92,433.8506,98.04207,98.77202,104.47093,104.47093,22.95776,1,154.70023,0,0,11.76358,11.763582,0,10,255,0,0,0,4,0,117,0
True,4212203,7999.995,1269.8213,5403.5293,-4.883642,2.1443956,1.9148034,0.35910416,0.016240597,43.389336,-0.026529357,-0.08176906,0.049464326,1.8520786,-0.019187506,0.06711777,0.32689157,0.74184483,0.64444846,0.70742035,0.03431638,0.028754236,0.10387287,0.090150304,134.48083,134.81926,135.50504,135.6921,0,0,0,0,0,0,0,0,0.120000005,0,0,0,-0.059860017,-0.05719916,-0.11448456,-0.09773417,0.068998806,0.06401992,0.15458424,0.13296257,-0.02042678,0.028537706,0.01865153,0.025797665,53,3,190,2,4,442.2218,160.4529,-1424.222,43.39082,245916.28,434.64328,98.115456,98.8768,104.57841,104.57841,23.154121,1,157.85797,0,0,11.876433,11.876434,0,10,255,0,0,0,4,0,116,0
True,4212312,7999.995,1269.8213,5427.6606,-5.902125,4.7363644,1.9537718,0.115255356,0.22225231,43.559822,-0.09089754,-0.08427148,-0.059529584,1.8456854,-0.024434876,0.06704097,0.7952401,0.84038013,0.68681633,0.7702798,0.040578958,0.029500486,0.10687424,0.076413505,135.17831,135.4413,136.16971,136.18857,0,0,0,0,0,0,0,0,0,0,0,0,-0.21609965,-0.1989616,-0.054184522,-0.024161281,0.21987659,0.20113677,0.11982515,0.08014232,0.03483835,0.040164873,0.023459494,0.032931045,53,3,190,2,4,446.20694,160.55565,-1425.3833,43.560543,246721.22,434.1116,98.211,99.0051,104.65425,104.65425,23.186749,1,160.54333,0,0,11.971932,11.971933,0,10,255,0,0,0,4,-127,114,0
True,4212406,7999.995,1269.8213,5454.2554,-7.4503493,2.708598,1.6160344,0.004778862,0.1718815,43.698418,-0.051889334,-0.24281016,-0.066234894,1.8303745,-0.030205881,0.060955573,0.6591005,0.8034373,0.71198887,0.81451815,0.09771323,0.038888905,0.15507205,0.076090515,135.72195,136.16788,136.79677,136.9199,0,0,0,0,0,0,0,0,0,0,0,0,-0.5490449,-0.4580985,-0.08752422,-0.040977728,0.55767214,0.4597462,0.17806692,0.08642303,0.018773869,0.035805613,0.026316106,0.037951276,53,3,190,2,4,450.09692,160.68704,-1426.4537,43.698753,247460.75,433.313,98.37535,99.235466,104.71355,104.71355,23.19421,1,163.15443,0,0,12.064445,12.0644455,0,10,255,0,0,0,4,-127,112,0
True,4212515,7999.995,1269.8213,5476.937,-12.75051,2.46571,1.5095644,0.44499683,0.10973102,43.81404,-0.046367403,-0.45845604,-0.07859676,1.7867825,-0.03553505,0.05275679,0.6197988,0.83059967,0.5703216,0.834505,0.11886042,0.036769424,0.2031723,0.061959114,135.8356,137.07423,137.27786,137.62447,0,0,0,0,0,0,0,0,0,0,0,0,-0.457589,-0.37843642,-0.24514791,-0.17559434,0.47277427,0.3802185,0.31839675,0.18620501,0.01413627,0.039010778,0.010239512,0.04021941,53,3,190,2,4,455.06528,160.87277,-1427.6846,43.816433,248102.78,432.58203,98.76225,99.78496,104.8062,104.8062,23.196205,1,166.72968,0,0,12.1814995,12.1815,0,10,255,0,0,0,4,0,110,0
True,4212640,7999.995,1269.8213,5496.885,-9.96317,2.1550524,1.9131162,1.0987539,0.10981256,43.95966,-0.06721703,-0.26602283,-0.025985356,1.7513832,-0.038241204,0.05158589,0.57145625,0.81275326,0.5938575,0.82572144,0.055817753,0.030960912,0.20143373,0.08468015,136.16156,137.14754,138.16475,137.99371,0,0,0,0,0,0,0,0,0,0,0,0,-0.16711825,-0.1460742,-0.33835045,-0.26264313,0.17619345,0.14931929,0.3937722,0.27595678,0.008431852,0.0369049,0.012910396,0.039222643,53,3,190,2,4,459.25668,161.04567,-1428.6049,43.973526,248639.89,431.96167,98.8643,99.94741,104.935455,104.935455,23.19651,1,169.50583,0,0,12.279332,12.279333,0,10,255,0,0,0,4,0,110,0
True,4212750,7999.995,1269.8213,5509.1035,-10.722698,2.990569,1.7375698,0.7532153,0.09802896,44.132664,-0.06708962,-0.16951416,-0.041019697,1.7294925,-0.045854762,0.04940358,0.57897854,0.79083645,0.5776571,0.83346426,0.060493547,0.03359488,0.16530964,0.07245287,136.90985,137.38596,138.47372,138.1361,0,0,0,0,0,0,0,0,0,0,0,0,-0.37976462,-0.3345024,-0.22450288,-0.1589999,0.3845525,0.3361852,0.2787989,0.17472947,0.009319484,0.034318715,0.01107195,0.040101305,53,3,190,2,4,464.2167,161.27518,-1429.5605,44.1392,248948.75,431.57806,99.012054,100.1814,105.07922,105.07922,23.196552,1,172.77654,0,0,12.394097,12.394097,0,10,255,0,0,0,4,-127,109,0
True,4212859,7999.995,1269.8213,5524.787,-15.0447235,4.5944996,1.4772675,0.4979005,0.10098523,44.24659,-0.08362156,-0.32609692,-0.011030238,1.7004989,-0.055255674,0.046215855,0.5843942,0.84690547,0.5665168,0.8529759,0.09636927,0.038104616,0.16720909,0.059165046,137.28879,138.13943,138.53854,138.70811,0,0,0,0,0,0,0,0,0,0,0,0,-0.5211321,-0.44070786,-0.21667165,-0.1473628,0.52996767,0.44235212,0.27368867,0.1587964,0.009958535,0.04093486,0.009807736,0.042315513,53,3,190,2,4,469.13068,161.54163,-1430.3436,44.249504,249379.34,431.0514,99.29866,100.63814,105.18785,105.18785,23.196552,1,175.99922,0,0,12.50685,12.50685,0,10,255,0,0,0,4,-25,111,0
True,4212953,7999.995,1269.8213,5552.915,-9.816038,1.7062545,1.6926607,0.83417225,0.08474791,44.365753,-0.021538597,-0.19808164,0.0055378666,1.6763035,-0.056609493,0.049471788,0.37722844,0.7437421,0.5824935,0.8229817,0.07233565,0.033469893,0.2256934,0.096826024,138.00757,138.18898,139.66011,139.26973,0,0,0,0,0,0,0,0,0.120000005,0,0,0,-0.14805207,-0.1162927,-0.25972217,-0.19883989,0.16477822,0.12101333,0.344083,0.22116189,-0.014487028,0.02876158,0.01162079,0.03891173,53,3,190,2,4,473.13504,161.78055,-1430.8744,44.373676,250068.16,430.2042,99.40784,100.7845,105.29062,105.29062,23.196552,1,178.61366,0,0,12.598161,12.598161,0,10,255,0,0,0,4,0,112,0
True,4213062,7999.995,1269.8213,5556.5347,-7.715378,1.3898685,1.5200957,0.65811443,-0.06103787,44.525696,-0.06339061,-0.08125074,0.13836752,1.6604291,-0.061860472,0.05994203,0.43033442,0.80552,0.3687485,0.77951926,0.28526342,0.032199863,0.07772475,0.08745899,139.45561,138.62373,138.89005,139.49182,0,0,0,0,0,0,0,0,0.120000005,0,0.120000005,0,-0.12854873,-0.12548134,-0.15081638,-0.15626203,0.31288975,0.12954688,0.1696665,0.17907232,-0.008220524,0.036051378,-0.012635291,0.03397955,53,3,190,2,4,478.0345,162.07466,-1431.4374,44.530598,250492.06,429.68005,99.49223,100.95018,105.3891,105.3891,23.196552,1,182.07736,0,0,12.709311,12.70931,0,10,255,0,0,0,4,0,114,0
True,4213187,7999.995,1269.8213,5559.113,-5.3428583,3.7044728,1.5957477,0.20665789,-0.016609251,44.69934,-0.044417,-0.020600956,0.10241746,1.6537309,-0.073237576,0.08034287,0.5220296,0.8206774,0.62275845,0.85301596,0.027249228,0.032107532,0.07232947,0.07333449,138.63412,138.79086,139.39876,139.44803,0,0,0,0,0,0,0,0,0.120000005,0,0.120000005,0,-0.051576454,-0.04749616,-0.0617375,-0.024526527,0.058332246,0.057330437,0.09509507,0.077327214,0.0025995076,0.03783995,0.016190112,0.042320058,53,3,190,2,4,483.74243,162.46346,-1431.9802,44.69982,250263.42,429.96307,99.62804,101.11392,105.49104,105.49104,23.196552,1,185.79483,0,0,12.838138,12.838138,0,10,255,0,0,0,4,0,115,0
True,4213296,7999.995,1269.8213,5587.2896,-2.7552204,4.5941854,1.3627837,0.047732115,0.020515144,44.827396,-0.04133846,-0.010730026,0.1444698,1.6509589,-0.08276648,0.09170455,0.67730296,0.83635783,0.83532923,0.8488666,0.114034034,0.03377758,0.087504685,0.083642885,140.21928,139.17786,140.08543,139.93207,0,0,0,0,0,0,0,0,0.120000005,0,0.120000005,0,-0.021212725,-0.021030497,-0.062321324,0.007874442,0.11599026,0.03978953,0.107429124,0.08401273,0.020921767,0.03969024,0.040312946,0.04184918,53,3,190,2,4,488.48602,162.83958,-1432.3799,44.827427,250943.83,429.11896,99.73547,101.21559,105.571075,105.571075,23.196552,1,188.8836,0,0,12.944821,12.944821,0,10,255,0,0,0,4,0,115,0
True,4213406,7999.995,1269.8213,5592.1323,-1.1627275,4.782796,1.2679888,0.02060175,0.06776598,44.9379,-0.11129276,-0.021270476,-0.07950866,1.6486593,-0.092491634,0.09918311,0.8037152,0.7574773,0.7339847,0.84458774,0.026162535,0.039905205,0.06138698,0.07857474,139.47588,139.76541,140.05345,140.37738,0,0,0,0,0,0,0,0,0.120000005,0,0.120000005,0,0.004701561,0.007364105,-0.022431206,0.0296851,0.026581628,0.040579002,0.065356866,0.08399521,0.03583841,0.030382335,0.02881223,0.04136361,53,3,190,2,4,492.8847,163.228,-1432.7302,44.937954,251136.98,428.7826,99.894714,101.277435,105.62952,105.62952,23.196552,1,191.74846,0,0,13.04352,13.043519,0,10,255,0,0,0,4,0,113,0
True,4213531,7999.995,1269.8213,5620.4214,-0.67024046,4.3511977,1.1907712,0.11183572,0.008645117,45.063225,-0.066360176,-0.01938826,-0.18092076,1.6443372,-0.106035605,0.07905712,0.8273054,0.6579138,0.89886034,0.8180529,0.15028447,0.046422765,0.075568184,0.084763266,141.60298,140.13823,140.59871,140.78476,0,0,0,0,0,0,0,0,0,0,0,0,0.0031714435,0.0045888233,-0.052708607,0.022685565,0.15031794,0.04664901,0.0921344,0.087746486,0.03862205,0.018633842,0.047522545,0.0383524,53,3,190,2,4,498.3812,163.7886,-1433.1554,45.063366,251828.72,427.9991,100.030304,101.36099,105.728195,105.728195,23.196552,1,195.60281,0,0,13.166677,13.166676,0,10,255,0,0,0,4,0,111,0
True,4213640,7999.995,1269.8213,5635.6055,-0.93000996,0.81160045,1.1550537,0.059273243,-0.11554277,45.167213,-0.038638894,-0.005868689,-0.040996518,1.6431805,-0.10866943,0.07025491,0.6223005,0.5546159,0.7629856,0.71281004,0.039896347,0.04196484,0.12678424,0.114771046,140.27913,140.34352,141.5355,141.41377,0,0,0,0,0,0,0,0,0,0,0,0,-0.0061906017,-0.0058716675,-0.032501474,0.0038700507,0.04037378,0.042373627,0.13088387,0.114836276,0.014431477,0.0064446926,0.032103285,0.026409298,53,3,190,2,4,502.35754,164.21408,-1433.454,45.167397,252257.56,427.44702,100.064575,101.409485,105.783195,105.783195,23.196552,1,198.19064,0,0,13.25556,13.255558,0,10,255,0,0,0,4,0,107,0
True,4213734,7999.995,1269.8213,5639.603,-0.53022236,2.5025082,1.2913179,0.012461424,-0.11560325,45.27294,-0.059650317,-0.0020722481,-0.068907104,1.6424358,-0.114096016,0.06512035,0.69790596,0.6030412,0.7407143,0.67786485,0.03700928,0.037931204,0.09183222,0.09251491,140.62231,140.64601,141.46959,141.48895,0,0,0,0,0,0,0,0,0,0,0,0,0.0053921817,0.0058463393,-0.011198918,0.013480649,0.037400033,0.038379107,0.092512555,0.093491904,0.023352921,0.012158871,0.029575914,0.022443667,53,3,190,2,4,506.67636,164.6863,-1433.7692,45.27309,252361.16,427.32364,100.136154,101.46864,105.83971,105.83971,23.196552,1,201.00198,0,0,13.351881,13.351879,0,10,255,0,0,0,4,0,101,0
True,4213859,7999.995,1269.8213,5657.7593,0.022878334,3.1336062,0.9506514,-0.02477932,-0.020888478,45.39252,-0.08009362,0.0013014483,-0.031735606,1.6420748,-0.11951557,0.05890685,0.7095521,0.67315847,0.75883985,0.7028559,0.030043522,0.03000114,0.1003656,0.101531036,140.9489,140.94241,141.99036,142.00026,0,0,0,0,0,0,0,0,0,0,0,0,0.008245986,0.0066284225,-0.010783431,0.02085174,0.031154606,0.030724654,0.10094323,0.103650115,0.024727166,0.02043271,0.031632826,0.025279686,53,3,190,2,4,512.20905,165.32713,-1434.1648,45.39253,252819.34,426.73254,100.223404,101.551956,105.91585,105.91585,23.196552,1,204.60587,0,0,13.475045,13.475042,0,10,255,0,0,0,4,0,92,0
True,4213953,7999.995,1269.8213,5663.22,-0.09974863,4.5587344,0.8080944,-0.036066294,3.3468008E-05,45.481087,-0.07237177,-0.0007788283,-0.02828248,1.641584,-0.13009597,0.056554146,0.80622214,0.7367993,0.8238767,0.81555027,0.035236824,0.03906892,0.08411695,0.08283522,141.26813,141.32172,142.04582,142.03612,0,0,0,0,0,0,0,0,0,0,0,0,0.010095656,0.010487247,-0.019012399,0.037251424,0.03665455,0.04045198,0.08623881,0.09082589,0.036134228,0.02794233,0.039013296,0.0380684,53,3,190,2,4,516.8134,165.90614,-1434.4889,45.481102,252957.84,426.5502,100.312256,101.63198,105.9883,105.9883,23.196552,1,207.71039,0,0,13.577425,13.577423,0,10,255,0,0,0,4,0,81,0
True,4214078,7999.995,1269.8213,5678.824,-0.14898434,2.2802198,0.808584,-0.04602146,-0.017456725,45.576805,-0.028455706,0.00027472235,-0.0024385562,1.6411812,-0.13668264,0.053937938,0.70298827,0.68420815,0.8103931,0.7497173,0.05004457,0.04702397,0.09647219,0.09726903,141.69112,141.65128,142.43365,142.4422,0,0,0,0,0,0,0,0,0,0,0,0,0.009128215,0.010171993,-0.018079164,0.027760647,0.05087026,0.048111573,0.09815162,0.10115294,0.023952633,0.021736577,0.037483156,0.030597582,53,3,190,2,4,522.1321,166.62364,-1434.8601,45.576836,253344.5,426.03632,100.39107,101.705246,106.06514,106.06514,23.196552,1,211.16869,0,0,13.695582,13.6955805,0,10,255,0,0,0,4,0,66,0
True,4214171,7999.995,1269.8213,5698.216,-0.10191813,-0.18696506,0.7579593,-0.056466103,-0.036255136,45.651577,0.014726648,-0.0015901665,-0.008902957,1.6411905,-0.13593563,0.05393697,0.6066818,0.57059175,0.6994904,0.6884078,0.043064512,0.052900262,0.13554142,0.13113743,141.74681,141.86818,143.09512,143.0513,0,0,0,0,0,0,0,0,0,0,0,0,0.012200294,0.013239623,0.00023435931,0.023277864,0.04475935,0.054531876,0.13554162,0.1331874,0.012588471,0.0083298385,0.02489777,0.023640096,53,3,190,2,4,526.3442,167.20094,-1435.1522,45.651623,253824.19,425.40842,100.436874,101.74484,106.116905,106.116905,23.196552,1,213.90828,0,0,13.789005,13.789003,0,10,255,0,0,0,4,0,54,0
True,4214281,7999.995,1269.8213,5702.9087,0.32965988,0.55750525,0.83504826,-0.037695885,-0.061391726,45.752823,-0.018405307,-0.0032270623,-0.03776187,1.6408079,-0.13763452,0.050696332,0.61809534,0.5489406,0.68415785,0.63954103,0.043374114,0.04586093,0.10644092,0.10756419,142.1176,142.16718,143.08415,143.11105,0,0,0,0,0,0,0,0,0,0,0,0,0.012319797,0.01292386,0.0014781082,0.016535155,0.04508981,0.047647152,0.106451176,0.10882769,0.013935268,0.0057750046,0.023157805,0.018094629,53,3,190,2,4,531.6917,167.931,-1435.5231,45.752876,253952.27,425.24695,100.51158,101.80539,106.181915,106.181915,23.196552,1,217.38608,0,0,13.907373,13.90737,0,10,255,0,0,0,4,0,38,0
True,4214406,7999.995,1269.8213,5714.177,0.078724794,0.8165025,0.7384047,-0.026782274,-0.07124458,45.842712,-0.01521456,-0.0028651534,-0.025365654,1.6403596,-0.13995646,0.046926945,0.6174435,0.555559,0.647976,0.5941632,0.046218008,0.046496067,0.10617584,0.107871704,142.43034,142.44858,143.3553,143.39146,0,0,0,0,0,0,0,0,0,0,0,0,0.008634507,0.00925753,0.0015123219,0.00993766,0.047017645,0.047408715,0.106186606,0.10832849,0.013858348,0.0065559745,0.019051835,0.012945086,53,3,190,2,4,536.8549,168.64667,-1435.8807,45.842773,254231.67,424.87454,100.579895,101.86713,106.24604,106.24604,23.196552,1,220.75021,0,0,14.021456,14.021451,0,10,255,0,0,0,4,0,23,0
True,4214500,7999.995,1269.8213,5727.891,0.13679254,-0.45727786,0.7430592,-0.029622555,-0.09004314,45.91609,0.023804711,-0.0025152285,-0.015929485,1.64013,-0.1394368,0.04506685,0.59476316,0.5672607,0.67561173,0.63577116,0.053805403,0.05592709,0.12283411,0.12282887,142.68839,142.72923,143.74258,143.75456,0,0,0,0,0,0,0,0,0,0,0,0,0.007957185,0.009247579,-0.0019967186,0.012287707,0.05439061,0.05668648,0.122850336,0.123441964,0.01118207,0.007936776,0.022187978,0.017666817,53,3,190,2,4,541.1446,169.2447,-1436.1768,45.916187,254557.38,424.42697,100.62657,101.909546,106.297676,106.297676,23.196552,1,223.53902,0,0,14.116076,14.116072,0,10,255,0,0,0,4,0,11,0
True,4214609,7999.995,1269.8213,5740.634,0.0064757243,-0.68642193,0.786585,-0.025958061,-0.09563643,46.00955,0.008341719,-0.0028020097,-0.028319793,1.6399206,-0.13727194,0.042465635,0.5275675,0.4718652,0.6246458,0.5863818,0.049903437,0.05069825,0.12340829,0.12728688,142.96266,142.98352,144.06223,144.12007,0,0,0,0,0,0,0,0,0,0,0,0,0.008998121,0.009557718,0.0036926845,0.010376756,0.05070818,0.051591303,0.12346352,0.12770915,0.003252983,-0.0033198893,0.0164043,0.012062043,53,3,190,2,4,546.3194,169.95512,-1436.5327,46.009655,254880.61,423.99103,100.68588,101.95946,106.355896,106.355896,23.196552,1,226.90245,0,0,14.229982,14.229978,0,10,255,0,0,0,4,0,251,0
True,4214718,7999.995,1269.8213,5757.8794,-0.51419985,-1.6501813,0.9004493,-0.024891853,-0.121488184,46.104637,0.04147387,-0.0031844783,-0.010431275,1.6396961,-0.13393648,0.040572662,0.48418924,0.44550785,0.5729455,0.5363769,0.05533476,0.060478237,0.14383686,0.14182444,143.26213,143.34311,144.5731,144.5607,0,0,0,0,0,0,0,0,0,0,0,0,0.006692921,0.0075036217,0.003746349,0.005595378,0.055738058,0.06094195,0.14388563,0.14193477,-0.0018656552,-0.0064300597,0.010537267,0.0063874125,53,3,190,2,4,551.58704,170.66429,-1436.8945,46.104797,255304.47,423.43744,100.736465,102.0061,106.416565,106.416565,23.196552,1,230.32506,0,0,14.345648,14.345645,0,10,255,0,0,0,4,0,236,0
True,4214828,7999.995,1269.8213,5766.1,-0.060577452,-1.7761602,0.8954242,-0.022311926,-0.14509717,46.186337,0.039402477,-0.0038239867,-0.028631888,1.639513,-0.13064235,0.03908998,0.44457462,0.39751473,0.53056484,0.4930217,0.05657807,0.06604913,0.13676044,0.13437584,143.53404,143.68227,144.73662,144.72339,0,0,0,0,0,0,0,0,0,0,0,0,0.008567089,0.00942023,0.006937544,0.0070657977,0.05722301,0.06671752,0.13693629,0.13456148,-0.0065401793,-0.012093246,0.0057278574,0.0014674067,53,3,190,2,4,555.7876,171.21193,-1437.1823,46.186565,255497.58,423.15445,100.77971,102.04094,106.46341,106.46341,23.196552,1,233.0493,0,0,14.437656,14.437654,0,10,255,0,0,0,4,0,223,0
True,4214953,7999.995,1269.8213,5778.705,0.3446386,-1.6178577,0.79348475,-0.0016827583,-0.15218462,46.29014,0.014102823,-0.004561647,-0.053587433,1.6391463,-0.12674266,0.033980623,0.45337212,0.37112907,0.49605757,0.45467046,0.04714202,0.049784426,0.1362465,0.13552059,143.77673,143.83138,145.09404,145.09991,0,0,0,0,0,0,0,0,0,0,0,0,0.007512456,0.007864404,0.0053612315,0.006488202,0.047736853,0.050401766,0.13635194,0.13567582,-0.005502075,-0.015206754,0.0018119216,-0.0028847456,53,3,190,2,4,561.0124,171.87067,-1437.5402,46.290386,255810.3,422.72806,100.83615,102.08601,106.52028,106.52028,23.196552,1,236.44075,0,0,14.551809,14.551806,0,10,255,0,0,0,4,0,208,0
True,4215031,7999.995,1269.8213,5784.2188,0.2813657,-1.2047757,1.2364835,0.007740259,-0.1810873,46.382103,0.04318752,-0.0039409446,-0.027728155,1.6387528,-0.1255244,0.029858444,0.4611551,0.40722096,0.56239265,0.52711487,0.07045748,0.0659001,0.116850115,0.11606305,144.32089,144.2791,145.07928,145.08408,0,0,0,0,0,0,0,0,0,0,0,0,0.002399659,0.0032875224,-0.000601566,0.00026172888,0.07049833,0.06598205,0.116851665,0.11606335,-0.0045836866,-0.010947913,0.00933972,0.0053363442,53,3,190,2,4,565.5759,172.43524,-1437.8527,46.382454,255943.67,422.567,100.883835,102.130745,106.573975,106.573975,23.196552,1,239.40211,0,0,14.651272,14.651268,0,10,255,0,0,0,4,0,195,0
True,4215171,7999.995,1269.8213,5823.815,-2.5749528,-3.309823,0.8388655,-0.09839249,-0.1834301,46.47845,0.06843277,-0.07999401,-0.050164025,1.6357083,-0.116642945,0.026393957,0.3567295,0.33144248,0.4645315,0.45150328,0.11010255,0.059090517,0.2213583,0.15946274,144.8383,144.5437,146.52254,146.13869,0,0,0,0,0,0,0,0,0,0,0,0,-0.38944143,-0.35271293,0.00017703112,0.0019084248,0.40470633,0.35762843,0.22135836,0.15947415,-0.016905904,-0.019889772,-0.0017656982,-0.0032441616,53,3,190,2,4,570.9222,173.06622,-1438.2085,46.478916,256892.33,421.25473,100.9592,102.21765,106.627754,106.627754,23.196552,1,242.8694,0,0,14.7674675,14.767465,0,10,255,0,0,0,4,-127,180,0
True,4215265,7999.995,1269.8213,5829.798,-6.7762327,-2.0631912,0.68228096,0.0884223,-0.20012707,46.552456,0.026179034,-0.2859238,-0.10881834,1.6142846,-0.11150146,0.019226246,0.35661206,0.40664688,0.40787736,0.47535536,0.19666284,0.066578045,0.22535561,0.10145703,145.45277,145.13531,146.42249,146.14998,0,0,0,0,0,0,0,0,0,0,0,0,-0.8776665,-0.73023504,-0.10293755,-0.088511914,0.8994302,0.73326385,0.24775247,0.13463984,-0.016919762,-0.011015654,-0.008194894,-0.0005373955,53,3,190,2,4,576.2882,173.65681,-1438.5029,46.552963,257034.73,421.04706,101.21442,102.55429,106.69081,106.69081,23.196552,1,246.34007,0,0,14.883682,14.88368,0,10,255,0,0,0,4,-127,166,0
True,4215390,7999.995,1269.8213,5847.8525,-7.987324,-2.7706769,1.0513369,0.9787464,-0.19694123,46.613647,0.06830901,-0.30730385,-0.08222452,1.5774661,-0.10555476,0.011248775,0.3113504,0.39121282,0.4201608,0.5461429,0.12123886,0.049708765,0.27199998,0.13487747,144.93523,145.47728,147.14467,146.79478,0,0,0,0,0,0,0,0,0,0,0,0,-0.12413877,-0.110760204,-0.30627567,-0.27756217,0.1735203,0.121403396,0.40962029,0.30859795,-0.022260636,-0.0128368735,-0.0068009496,0.0074956715,53,3,190,2,4,581.40826,174.19519,-1438.6849,46.624336,257448.3,420.45044,101.50606,102.930374,106.780334,106.780334,23.196552,1,249.66061,0,0,14.994281,14.99428,0,10,255,0,0,0,4,0,156,0
True,4215500,7999.995,1269.8213,5861.9077,-7.462175,-2.352237,1.2117865,1.3649285,-0.16656764,46.706326,0.04964842,-0.1740888,-0.064653404,1.5514932,-0.099169426,0.0062058275,0.2842596,0.42155612,0.3882726,0.5223236,0.11967197,0.045906797,0.27937564,0.13475375,145.55827,145.428,147.83395,146.86522,0,0,0,0,0,0,0,0,0,0,0,0,-0.28621763,-0.25106832,-0.35764912,-0.30985108,0.3102288,0.25523075,0.45383218,0.337885,-0.025457352,-0.009256363,-0.010419667,0.0047926307,53,3,190,2,4,586.4703,174.69475,-1438.7827,46.726562,257786.12,419.97314,101.58432,103.058914,106.91107,106.91107,23.196552,1,252.94377,0,0,15.103277,15.103275,0,10,255,0,0,0,4,-10,147,0
True,4215609,7999.995,1269.8213,5892.57,-8.031374,-2.9726999,0.9987153,1.2931511,-0.17337841,46.782825,0.08943929,-0.15596382,-0.051139385,1.5342969,-0.092921846,0.0012311732,0.2528876,0.3879904,0.3620084,0.51632965,0.39382502,0.08695679,0.2732717,0.14587909,149.25136,145.8252,148.00305,147.13696,0,0,0,0,0,0,0,0,0,0,0,0,-0.78954047,-0.68063176,-0.3375981,-0.29731455,0.88231075,0.686164,0.43433845,0.33117467,-0.029159248,-0.013217121,-0.013400167,0.0041124225,53,3,190,2,4,591.398,175.1537,-1438.7831,46.801014,258467.06,419.00497,101.74637,103.30205,107.032524,107.032524,23.196552,1,256.14093,0,0,15.2091,15.209098,0,10,255,0,0,0,4,-127,142,0
True,4215703,7999.995,1269.8213,5925.1816,-9.831012,-3.654304,1.1470706,1.2939901,-0.11106909,46.836502,0.09122368,-0.19660668,-0.01322918,1.5184288,-0.08426192,-0.0010343144,0.22108246,0.35428193,0.32353714,0.3967124,0.4059924,0.09891755,0.39552054,0.17612498,149.02144,145.65936,149.48566,148.15729,0,0,0,0,0,0,0,0,0,0.120000005,0,0.120000005,-1.0978984,-0.76541495,-0.37095815,-0.31440115,1.17056,0.77178025,0.5422605,0.36037216,-0.032912254,-0.017194718,-0.01776594,-0.0094619095,53,3,190,2,4,595.70166,175.5197,-1438.713,46.8545,259277.16,417.83694,102.03517,103.663795,107.138855,107.138855,23.196552,1,258.92252,0,0,15.301355,15.301353,0,10,255,0,0,0,4,-124,139,0
True,4215812,7999.995,1269.8213,5918.0786,-7.0056744,-3.4374669,1.2661426,1.6599411,-0.28550234,46.93199,0.058635503,-0.18286994,-0.23589957,1.4934194,-0.07890556,-0.015858268,0.24506576,0.26103148,0.30776453,0.30993375,0.1692892,0.23478517,0.32080975,0.13957377,146.9144,148.4524,149.09407,147.74664,0,0,0,0,0,0,0,0,0,0.120000005,0,0.120000005,-0.2862042,-0.28236324,-0.41028202,-0.33006898,0.3325232,0.36722344,0.52081686,0.35836622,-0.030082226,-0.028198272,-0.019555837,-0.01930967,53,3,190,2,4,600.9132,175.91902,-1438.5387,46.962204,259127.66,418.0537,102.331894,103.84895,107.31023,107.31023,23.196552,1,262.30423,0,0,15.412887,15.412885,0,10,255,0,0,0,4,0,137,0
True,4215953,7999.995,1269.8213,5921.0293,-7.502041,-2.493496,1.3504373,1.3178372,-0.18823269,47.09808,0.042154603,-0.058402598,-0.08151736,1.4785191,-0.071368106,-0.04011878,0.29812047,0.7908034,0.3675344,0.5395225,0.21360129,0.029305575,0.2479737,0.1823557,148.44356,146.18579,148.86732,148.50061,0,0,0,0,0,0,0,0,0,0,0,0.120000005,-0.2705066,-0.2009854,-0.29752743,-0.28053695,0.3446728,0.20311068,0.3873158,0.33459616,-0.023821771,0.03431481,-0.012773067,0.0067443848,53,3,190,2,4,607.04584,176.34335,-1438.2084,47.116882,259157.62,418.0103,102.45607,104.00993,107.467865,107.467865,23.196552,1,266.2851,0,0,15.54375,15.543747,0,10,255,0,0,0,4,0,138,0
True,4216062,7999.995,1269.8213,5910.23,-6.227405,-2.021821,1.4363484,0.6727712,-0.21810934,47.265453,0.07286642,0.034223996,0.13376802,1.4772052,-0.06778154,-0.035941735,0.25778833,0.7074761,0.4157417,0.8660493,0.1455717,0.05427412,0.1946046,0.10289197,148.04091,146.74739,148.8732,147.65388,0,0,0,0,0,0,0,0,0,0,0,0,-0.17100559,-0.1582121,-0.15464278,-0.093585275,0.22457522,0.16726251,0.24856657,0.13908617,-0.028580964,0.02448219,-0.0073024333,0.043799102,53,3,190,2,4,612.18713,176.67737,-1437.8333,47.270744,258931.42,418.33765,102.549164,104.19211,107.57505,107.57505,23.196552,1,269.62427,0,0,15.65321,15.653206,0,10,255,0,0,0,4,0,142,0
True,4216171,7999.995,1269.8213,5928.42,-2.8639748,-2.7537985,1.4513121,0.19773912,-0.19237694,47.433422,0.05867168,0.034655485,0.09905706,1.4810098,-0.059761878,-0.021867527,0.24293388,0.56511366,0.3571468,0.7034964,0.062478255,0.058582205,0.16544291,0.14936596,147.54659,147.32483,149.05933,148.73357,0,0,0,0,0,0,0,0,0,0,0,0,-0.060852796,-0.060356546,-0.05072804,-0.030429212,0.087215796,0.08411176,0.17304535,0.152434,-0.030333787,0.007683426,-0.013951868,0.025352374,53,3,190,2,4,617.3907,176.98572,-1437.3995,47.434223,259335.16,417.7527,102.61742,104.26459,107.63175,107.63175,23.196552,1,272.99295,0,0,15.763672,15.763669,0,10,255,0,0,0,4,0,147,0
True,4216265,7999.995,1269.8213,5944.4487,-0.93405974,-3.259656,1.558782,-0.015058994,-0.21220624,47.574703,0.077071905,0.030890552,0.07817354,1.483973,-0.054214805,-0.014318824,0.26366645,0.45718706,0.39611754,0.5943864,0.08749805,0.08028128,0.14435159,0.14746216,148.30405,148.05167,149.18333,149.12029,0,0,0,0,0,0,0,0,0,0,0,0,-0.015160629,-0.01433086,-0.0012665223,0.005296681,0.088801764,0.08155034,0.14435714,0.14755726,-0.027887344,-0.005051911,-0.009529412,0.012970418,53,3,190,2,4,621.7899,177.21927,-1437.0171,47.575172,259693.72,417.23047,102.652824,104.29774,107.67409,107.67409,23.196552,1,275.85016,0,0,15.856752,15.8567505,0,10,255,0,0,0,4,0,152,0
True,4216375,7999.995,1269.8213,5982.411,-0.117932305,-4.771616,1.6902583,-0.12527204,-0.23415095,47.72231,0.10421902,0.023583619,0.063886195,1.486566,-0.044654295,-0.0072862874,0.21709098,0.3393525,0.36042717,0.48767716,0.082837135,0.10197378,0.19900626,0.19942029,148.58875,148.73125,150.35847,150.24796,0,0,0,0,0,0,0,0,0,0,0,0,0.011917432,0.012320771,0.018790577,0.025613666,0.08369,0.102715395,0.19989142,0.20105848,-0.03338325,-0.018956393,-0.013579607,0.0008608997,53,3,190,2,4,626.42316,177.42789,-1436.6124,47.72305,260575.27,415.93842,102.67737,104.31731,107.71662,107.71662,23.196552,1,278.85822,0,0,15.954457,15.954454,0,10,255,0,0,0,4,0,156,0
True,4216484,7999.995,1269.8213,5981.1934,0.8260417,-3.1380837,1.9985777,-0.15742397,-0.25813153,47.90499,0.035814762,0.015334491,0.04482634,1.4886189,-0.038479324,-0.0017881513,0.2771035,0.32137588,0.3304939,0.39154223,0.05976918,0.06816934,0.12970075,0.14103545,148.99889,149.05644,150.06604,150.13818,0,0,0,0,0,0,0,0,0,0,0,0,0.02264106,0.023464877,0.021628477,0.03518307,0.06391379,0.07209479,0.13149172,0.14535765,-0.026301771,-0.021077633,-0.016976476,-0.010048628,53,3,190,2,4,631.3739,177.60603,-1436.1843,47.90594,260544.53,416.00256,102.722244,104.35277,107.77102,107.77102,23.196552,1,282.071,0,0,16.05845,16.058447,0,10,255,0,0,0,4,0,162,0
True,4216593,7999.995,1269.8213,6044.481,0.69253993,-4.888223,1.6460238,-0.12737775,-0.27497497,48.103863,0.084217355,0.0037542281,0.01236442,1.4894621,-0.025683662,0.0016118371,0.25848463,0.27294305,0.37299767,0.39122838,0.065973915,0.07490452,0.23612465,0.24722013,149.56569,149.66516,152.05295,152.17557,0,0,0,0,0,0,0,0,0,0,0,0,0.022940237,0.023360614,0.020496026,0.03085088,0.06984849,0.078462765,0.23701252,0.24913765,-0.028498799,-0.026792705,-0.012153089,-0.010084242,53,3,190,2,4,637.3362,177.7645,-1435.6783,48.104816,260933.89,412.1972,102.760376,104.384224,107.8321,107.8321,23.196552,1,285.927,0,0,16.183151,16.183147,0,10,255,0,0,0,4,0,168,0
True,4216703,7999.995,1269.8213,6024.2964,0.54235023,-2.5054715,1.9775115,-0.07494283,-0.26787338,48.30366,0.03946805,-0.00038930398,-0.0043401374,1.4896945,-0.020992234,0.0019285064,0.33894914,0.32636297,0.41070208,0.4108888,0.052503895,0.057530172,0.12128481,0.12561853,150.06525,150.13571,151.15636,151.21223,0,0,0,0,0,0,0,0,0,0,0,0,0.015145732,0.01567873,0.012434319,0.018186785,0.054644782,0.059628375,0.12192054,0.12692823,-0.019003987,-0.020489156,-0.00787434,-0.00785315,53,3,190,2,4,642.15656,177.84802,-1435.276,48.30446,260980.83,413.7135,102.80701,104.42036,107.88767,107.88767,23.196552,1,289.05328,0,0,16.283499,16.283497,0,10,255,0,0,0,4,0,172,0
True,4216812,7999.995,1269.8213,6052.234,0.39957148,-2.3376758,1.7621713,-0.02761197,-0.23123431,48.484276,0.053511184,-0.00309334,-0.009918202,1.4894761,-0.01564721,0.0011114046,0.38305557,0.36455792,0.4965731,0.48469484,0.05516534,0.056718595,0.13923964,0.13984913,150.62851,150.66527,151.9409,151.95822,0,0,0,0,0,0,0,0,0,0,0,0,0.007082122,0.0076256692,0.0055497917,0.0063887485,0.05561808,0.057228927,0.1393502,0.13999498,-0.013799429,-0.015982151,0.0018704236,0.0005224645,53,3,190,2,4,647.0371,177.9126,-1434.8739,48.484833,260969.92,411.79453,102.846695,104.45155,107.93356,107.93356,23.196552,1,292.21826,0,0,16.384693,16.38469,0,10,255,0,0,0,4,0,177,0
True,4216921,7999.995,1269.8213,6075.289,-0.007191375,-2.4360886,1.8685551,-0.00057291985,-0.21557604,48.686348,0.058764078,-0.002649679,-5.8067963E-06,1.4891512,-0.010149716,0.0005101447,0.41033176,0.39742282,0.4957151,0.48015943,0.06487595,0.061220303,0.13113682,0.13248801,151.38474,151.34552,152.45064,152.48239,0,0,0,0,0,0,0,0,0,0,0,0,0.00042397197,0.0011546323,-0.000860641,-7.962103E-05,0.06487734,0.061231192,0.13113965,0.13248804,-0.010580838,-0.012104094,0.0017730594,7.778406E-06,53,3,190,2,4,652.3272,177.95692,-1434.4406,48.686825,260960.42,410.22913,102.88766,104.48685,107.98298,107.98298,23.196552,1,295.64847,0,0,16.493938,16.493935,0,10,255,0,0,0,4,0,182,0
True,4217031,7999.995,1269.8213,6102.798,-0.16899393,-1.7358125,2.0902207,0.0032668114,-0.18212071,48.93339,0.014439811,-0.0013487753,0.0073902397,1.4889055,-0.0038225665,0.0015894355,0.39877856,0.4085492,0.47470826,0.4795478,0.04373541,0.045495495,0.12464335,0.123221576,151.94003,151.97168,153.208,153.18692,0,0,0,0,0,0,0,0,0,0,0,0,-0.0013156758,-0.0010874199,-0.0025370738,-0.0014796861,0.043755196,0.04550849,0.124669164,0.12323046,-0.011944115,-0.0107911825,-0.0006108284,-6.16312E-05,53,3,190,2,4,658.68274,177.97119,-1433.92,48.93373,260889.94,408.23306,102.94016,104.53343,108.04016,108.04016,23.196552,1,299.7616,0,0,16.62458,16.624577,0,10,255,0,0,0,4,0,188,0
True,4217156,7999.995,1269.8213,6129.421,0.15691006,-1.3118498,1.7358577,0.0108709335,-0.16609378,49.15799,0.051745303,-0.00090955367,-0.027516562,1.4887816,-0.0012998576,-6.588581E-05,0.41731966,0.396751,0.55113816,0.5377464,0.05705961,0.055002145,0.12030129,0.123854265,152.754,152.72856,153.78535,153.84117,0,0,0,0,0,0,0,0,0,0,0,0,0.0010317727,0.0016328132,5.828736E-05,0.00110947,0.057068937,0.05502638,0.120301306,0.123859234,-0.009756267,-0.012183368,0.0080625415,0.0065428317,53,3,190,2,4,664.57544,177.9681,-1433.4368,49.15827,260872.7,406.47244,102.99571,104.57706,108.096924,108.096924,23.196552,1,303.58252,0,0,16.745123,16.745115,0,10,255,0,0,0,4,0,193,0
True,4217265,7999.995,1269.8213,6156.188,0.2396808,-1.9333498,1.9321389,0.0115532875,-0.16419224,49.342056,0.031042764,-0.00014477562,0.008133369,1.4887277,0.0029886498,-0.0010757577,0.40080917,0.3990488,0.47692424,0.46993884,0.05336436,0.04950917,0.13072203,0.12887956,153.31824,153.2645,154.54059,154.52951,0,0,0,0,0,0,0,0,0,0,0,0,-0.0033062205,-0.0028696617,-0.0037128301,-0.0025927683,0.05346668,0.049592268,0.13077475,0.12890564,-0.0117045045,-0.011912227,-0.0003593564,-0.0011520684,53,3,190,2,4,669.3658,177.94688,-1433.0441,49.34233,260784.28,404.53052,103.03224,104.61272,108.13837,108.13837,23.196552,1,306.68866,0,0,16.842712,16.842705,0,10,255,0,0,0,4,0,197,0
True,4217359,7999.995,1269.8213,6175.582,-0.5187999,-1.3755858,1.8089902,0.00071048737,-0.16113698,49.53347,0.019597536,0.00033532092,0.0129627185,1.4887487,0.0056515797,0.000304697,0.3798114,0.3925428,0.48806846,0.48558015,0.046528727,0.04721787,0.11895296,0.11834634,153.83759,153.84503,154.9967,154.98965,0,0,0,0,0,0,0,0,0,0,0,0,-0.0018103134,-0.0015783149,-0.0018975076,-0.0012466783,0.04656393,0.04724424,0.11896809,0.118352905,-0.01418224,-0.0126799345,0.00090530515,0.00062292814,53,3,190,2,4,674.2669,177.90878,-1432.6415,49.533733,260739.62,403.2006,103.07536,104.65156,108.18264,108.18264,23.196552,1,309.863,0,0,16.94218,16.942175,0,10,255,0,0,0,4,0,202,0
True,4217468,7999.995,1269.8213,6201.7407,-0.22522885,-1.7642434,2.0139327,-0.0032978058,-0.18194412,49.733704,0.049735516,0.00022570376,0.0011463207,1.4887865,0.00860592,0.00088864396,0.3687434,0.36898988,0.4582258,0.46895638,0.06202587,0.0611861,0.1207272,0.12081823,154.59846,154.6073,155.60225,155.60294,0,0,0,0,0,0,0,0,0,0,0,0,0.00017776105,0.00064506667,-0.00023794547,0.0010839339,0.06202613,0.061189502,0.120727435,0.12082309,-0.015488267,-0.01545918,-0.0024812818,-0.0012635589,53,3,190,2,4,679.4835,177.85493,-1432.2124,49.73404,260676.44,401.41754,103.11856,104.6879,108.22945,108.22945,23.196552,1,313.2457,0,0,17.047636,17.047628,0,10,255,0,0,0,4,0,207,0
True,4217593,7999.995,1269.8213,6229.551,0.10550981,-1.8246589,1.9446027,-0.00028944016,-0.17439634,49.95051,0.018743914,1.1209293E-05,-0.004510908,1.4888059,0.013295455,0.0003251928,0.35349065,0.351158,0.44237125,0.43961033,0.045075398,0.044129387,0.12439555,0.125237,155.10963,155.09642,156.37775,156.38849,0,0,0,0,0,0,0,0,0,0,0,0,0.00048273554,0.00064408977,-0.0004270811,0.001698346,0.045077983,0.044134088,0.12439628,0.12524852,-0.017288089,-0.017563343,-0.0042804778,-0.0045937896,53,3,190,2,4,685.02527,177.77202,-1431.7568,49.950813,260551.38,399.41467,103.16494,104.72683,108.276535,108.276535,23.196552,1,316.83945,0,0,17.159206,17.1592,0,10,255,0,0,0,4,0,212,0
True,4217703,7999.995,1269.8213,6253.3765,0.32058355,-0.51011646,1.8784337,0.00079250336,-0.1695139,50.202976,0.018696489,-2.2695012E-05,0.0013807514,1.4888052,0.0141341295,0.00020050067,0.42128083,0.42248252,0.50124615,0.49872157,0.049115203,0.047990665,0.10319023,0.10416525,155.95511,155.93805,156.86662,156.88126,0,0,0,0,0,0,0,0,0,0,0,0,-0.00052976335,-4.511424E-05,-0.00033406125,-0.00022631843,0.049118057,0.047990687,0.10319077,0.104165494,-0.009288847,-0.009147048,0.002400726,0.0021142364,53,3,190,2,4,691.5326,177.65996,-1431.2222,50.203255,260490.84,397.8282,103.229866,104.784645,108.33746,108.33746,23.196552,1,321.0595,0,0,17.2896,17.289593,0,10,255,0,0,0,4,0,218,0
True,4217812,7999.995,1269.8213,6283.401,-0.15382048,-1.3772299,2.0856,-0.0014662743,-0.15744227,50.397854,0.028554633,1.2960205E-05,0.006100575,1.4888091,0.017340593,0.00072646094,0.39767587,0.3945254,0.50255764,0.50537056,0.046857573,0.047987778,0.12056606,0.12050366,156.50336,156.52292,157.70369,157.70677,0,0,0,0,0,0,0,0,0,0,0,0,-0.00062577386,-0.00030546362,-0.00057405134,-0.0004121234,0.04686175,0.04798875,0.12056743,0.12050436,-0.012074232,-0.012445986,0.0025495589,0.0028687716,53,3,190,2,4,696.64,177.56274,-1430.8024,50.3981,260348.19,395.69418,103.271576,104.821556,108.38132,108.38132,23.196552,1,324.36877,0,0,17.391495,17.391487,0,10,255,0,0,0,4,0,223,0
True,4217906,7999.995,1269.8213,6303.465,-0.02503544,-0.72100425,2.0671284,0.000641346,-0.1495395,50.596172,0.005132669,-0.00014312219,-0.011043177,1.4888041,0.018964227,0.00042915586,0.44835117,0.44021416,0.48340854,0.49475893,0.040972695,0.04261983,0.10781645,0.107122704,157.07921,157.10315,158.17851,158.17194,0,0,0,0,0,0,0,0,0,0,0,0,0.0009618094,0.0012464653,0.0007331406,0.0012477862,0.040983982,0.042638056,0.10781894,0.10712997,-0.006094545,-0.0070547163,0.00037649274,0.0016645491,53,3,190,2,4,701.753,177.45285,-1430.3822,50.59639,260251.52,394.28604,103.32211,104.86362,108.425514,108.425514,23.196552,1,327.68484,0,0,17.493107,17.4931,0,10,255,0,0,0,4,0,228,0
True,4218015,7999.995,1269.8213,6326.4985,0.35415477,-0.18869439,2.0148363,0.0033221245,-0.13209063,50.794212,0.009751858,2.2786518E-05,0.0065541244,1.4887899,0.019461902,-0.0002435628,0.4747169,0.4770152,0.55996764,0.5491349,0.043555234,0.040637773,0.10389192,0.104295105,157.7207,157.67975,158.73856,158.73792,0,0,0,0,0,0,0,0,0,0,0,0,-0.0015100528,-0.0010836739,-0.0023476689,-0.00069649634,0.0435814,0.04065222,0.10391844,0.10429743,-0.0029833913,-0.0027121902,0.009064525,0.007835209,53,3,190,2,4,706.96466,177.33803,-1429.9542,50.794384,260138.89,392.6904,103.373276,104.91142,108.47398,108.47398,23.196552,1,331.06488,0,0,17.596275,17.59627,0,10,255,0,0,0,4,0,233,0
True,4218156,7999.995,1269.8213,6365.1465,0.5006206,-1.083683,1.6470574,-0.000770092,-0.12562646,51.06675,0.01817274,1.1953878E-05,-0.008097727,1.488804,0.022210084,0.00046297032,0.4366712,0.42521423,0.5070639,0.5102484,0.043684505,0.04501717,0.11607985,0.1164056,158.55734,158.57628,159.74692,159.75195,0,0,0,0,0,0,0,0,0,0,0,0,0.00083982846,0.0011834179,0.0010556218,0.0009900684,0.043692578,0.045032725,0.11608466,0.116409816,-0.0074727833,-0.008824706,0.003060937,0.00342232,53,3,190,2,4,714.2228,177.16925,-1429.3577,51.066902,259910.45,389.9522,103.43955,104.96738,108.53546,108.53546,23.196552,1,335.77048,0,0,17.739298,17.739292,0,10,255,0,0,0,4,0,239,119
True,4218265,7999.995,1269.8213,6391.757,0.10213188,-1.3013704,2.0752943,0.002705574,-0.14910516,51.289764,0.028896157,-0.00010316883,-0.003980916,1.4887972,0.024471724,-0.0002195818,0.41697615,0.4063741,0.50162613,0.4933271,0.05088823,0.05110365,0.112339,0.11230339,159.33528,159.33884,160.37166,160.3709,0,0,0,0,0,0,0,0,0,0,0,0,-0.00026447346,0.00021185893,-0.0001544525,0.00011905157,0.050888915,0.05110409,0.11233911,0.11230345,-0.009796798,-0.01104784,0.00244385,0.0015020669,53,3,190,2,4,720.10565,177.01622,-1428.8743,51.289986,259730.33,388.07684,103.48988,105.01138,108.58534,108.58534,23.196552,1,339.58627,0,0,17.854664,17.85466,0,10,255,0,0,0,4,0,245,127
True,4218375,7999.995,1269.8213,6416.6567,-0.4212475,-0.3907565,1.9054666,0.0042381287,-0.13834319,51.514057,-0.016927425,-7.9144476E-05,-0.0029893005,1.4887841,0.026465492,-0.0007027837,0.44592583,0.44013634,0.4817328,0.4752251,0.036369767,0.036124486,0.10408928,0.10407648,159.9006,159.89403,161.02225,161.02167,0,0,0,0,0,0,0,0,0,0,0,0,-0.00035684364,-0.00043708974,-0.00078645465,1.9873878E-06,0.036371518,0.03612713,0.10409225,0.10407648,-0.006380737,-0.0070638955,0.00018632412,-0.00055217743,53,3,190,2,4,726.01746,176.845,-1428.3888,51.51424,259559.4,386.28937,103.54644,105.06154,108.63331,108.63331,23.196552,1,343.42114,0,0,17.970106,17.970102,0,10,255,0,0,0,4,0,250,127
True,4218500,7999.995,1269.8213,5779.9487,-0.42360574,-0.037267122,-9.759071,-0.0029792786,0.23129033,50.429123,0.13441637,0.0050120056,0.014816678,1.4888958,0.03247738,-0.00030230609,0.5279873,0.54413384,0.50539184,0.5026459,-1.809528,-1.3744099,-0.20535825,-0.21351773,123.576004,130.89026,152.30872,152.17789,0,0,0,0,0,0,0,0,0,0,0,0,-0.0017139415,-0.002200267,0.0010583176,-0.00036543817,1.8095288,1.3744117,0.20536098,0.21351804,0.0033025146,0.005207807,0.0028711855,0.0025595725,53,3,190,2,4,731.9465,176.67848,-1427.9019,50.42965,202457.58,334.02216,104.33551,105.69922,108.67107,108.67107,23.196552,1,347.2671,0,0,18.086536,18.086533,0,10,62,255,0,0,4,0,0,0
True,4218593,7999.995,1269.8213,5470.688,0.057921648,-0.8076929,-13.579267,-0.04439473,0.7369884,49.065556,0.104646295,0.010843146,0.004193118,1.4898244,0.04477749,0.0014310898,0.637027,0.63403,0.3660204,0.3710866,-0.5898899,-2.3606782,-0.65519947,-0.62307763,140.5897,111.705246,141.4612,141.82898,0,0,0,0,0,0,0,0,0,0,0,0,0.0069129155,0.0031966027,0.0064231567,0.017124845,0.5899304,2.3606803,0.65523094,0.6233129,0.016169205,0.015815556,-0.012944877,-0.012369961,53,3,190,2,4,736.81573,176.53606,-1427.502,49.07111,79939.77,139.61804,108.42776,109.869705,108.76126,108.76126,23.16293,1,350.42538,0,0,18.184776,18.184772,0,10,0,255,0,0,4,0,4,0
True,4218687,7999.995,1269.8213,5334.3555,0.12259424,-0.32519224,-14.503425,-0.039850473,1.1542863,47.42236,0.06615324,-0.00095480564,-0.014347586,1.4900901,0.05366142,0.0007603174,0.73484117,0.71784526,0.28012052,0.2839894,-0.7676623,-0.86165166,-0.7580003,-0.915288,132.96797,131.33362,135.3848,133.00542,0,0,0,0,0,0,0,0,0,0,0,0,0.012481704,0.0049917847,-0.0060334024,0.026139067,0.7677638,0.8616661,0.75802433,0.9156611,0.027711272,0.025705755,-0.022692919,-0.022253871,53,3,190,2,4,741.4865,176.39764,-1427.1194,47.43642,-30792.963,-55.01939,108.69608,111.78075,108.9409,108.9409,13.415683,1,353.45532,0,0,18.281971,18.281965,0,10,0,255,0,0,4,0,9,0
True,4218812,7999.995,1269.8213,5048.2866,0.12731063,0.032347985,-17.924702,-0.029959202,1.3303002,45.729897,0.01911803,0.0016913536,-0.0009954711,1.4901426,0.057176795,-7.752888E-05,0.78634477,0.7811412,0.22676219,0.2170109,-0.8280638,-0.78294694,-0.88132554,-1.3029125,127.213455,127.94811,128.89201,122.947655,0,0,0,0,0,0,0,0,0,0,0,0,0.010299861,0.00031835883,-0.017781362,0.03460793,0.82812786,0.782947,0.8815049,1.303372,0.033788696,0.03317468,-0.028748095,-0.029854685,53,3,190,2,4,745.9361,176.26927,-1426.7562,45.74925,-27089.969,-51.18194,108.98946,112.004234,109.15352,109.15352,-5.3924046,1,356.3416,0,0,18.37787,18.377865,0,10,0,255,0,0,4,0,13,0
True,4218937,7999.995,1269.8213,4592.274,0.09792733,-0.25231516,-17.529879,-0.032552958,1.2983559,43.592167,-0.021434937,0.00286281,0.005683158,1.490392,0.057440042,0.00018480976,0.7640356,0.7638926,0.19246894,0.1880152,-1.3708887,-1.2571641,-1.1376263,-1.7017725,112.57037,114.409836,119.468506,111.8221,0,0,0,0,0,0,0,0,0,0,0,0,0.01036906,-8.643773E-05,-0.024302017,0.04096061,1.3709279,1.2571641,1.1378858,1.7022653,0.031156212,0.031139344,-0.032639742,-0.03314516,53,3,190,2,4,751.5219,176.11285,-1426.3015,43.611504,-21658.75,-44.990776,110.511635,113.38499,109.48398,109.48398,-10.200508,1,359.9649,0,0,18.503408,18.503405,0,10,0,255,0,0,4,0,18,253
True,4219046,7999.995,1269.8213,4553.6733,-0.7844291,0.99631304,-18.488596,-0.11013627,1.2623538,41.692986,-0.042237375,0.000131941,0.019986806,1.4911757,0.05422857,0.0023553623,0.8054494,0.82787806,0.20246132,0.20806716,-0.31638217,-0.5587754,-0.95360875,-1.8826185,125.307076,120.06455,116.460205,104.18658,0,0,0,0,0,0,0,0,0,0,0,0,-0.12849984,-0.13855247,-0.008126702,0.050483946,0.3414819,0.57569677,0.9536434,1.8832953,0.036043048,0.03868963,-0.031505793,-0.030869633,53,3,190,2,4,755.91956,175.99727,-1425.9431,41.71224,-21042.248,-44.176033,114.54657,114.18485,109.80386,109.80386,-10.855851,1,362.82214,0,0,18.606907,18.606903,0,10,0,255,0,0,4,-63,22,246
True,4219140,7999.995,1269.8213,4606.3374,-4.9302316,1.5605592,-14.503147,-0.40819645,1.13471,40.30534,-0.08484094,-0.14304931,-0.09826824,1.4848267,0.046799105,-0.004140487,0.67625105,0.72146004,0.21326098,0.2587544,-0.19758947,-0.13521154,-1.6935376,-0.2687896,121.52498,122.94443,103.17884,121.622604,0,0,0,0,0,0,0,0,0,0,0,0,-0.4258831,-0.37916467,0.034306563,0.07572647,0.46948698,0.40255186,1.693885,0.27925318,0.02079764,0.0261323,-0.030280232,-0.025117576,53,3,190,2,4,760.1023,175.90878,-1425.5717,40.323376,-21763.44,-45.09547,114.44719,114.229546,110.58351,110.58351,-10.989754,1,365.53574,0,0,18.709396,18.70939,0,10,0,255,0,0,4,-127,27,236
True,4219250,7999.995,1269.8213,4448.297,-9.0414715,2.5182877,-13.114929,-0.30419254,0.9004194,39.062466,-0.1393144,-0.36188298,-0.056974187,1.4580086,0.034671944,-0.015542317,0.7533473,0.8795505,0.16865154,0.36239916,-0.2313266,-0.39998248,-1.717216,-0.16110355,116.61806,114.8214,99.36424,119.71402,0,0,0,0,0,0,0,0,0,0,0,0,-0.8024737,-0.6122524,-0.09184928,-0.04217755,0.8351503,0.7313269,1.7196707,0.16653317,0.029894993,0.044786975,-0.035342574,-0.013355821,53,3,190,2,4,764.24414,175.84377,-1425.1248,39.07402,-20078.33,-43.053375,114.43474,114.46504,112.68854,112.68854,-11.017921,1,368.225,0,0,18.814276,18.814272,0,10,0,255,0,0,4,-127,35,225
True,4219343,7999.995,1269.8213,4231.7285,-10.172787,0.8159056,-10.242689,0.45347738,0.60094786,37.98486,-0.03834139,-0.5102345,-0.04511206,1.4105896,0.023462586,-0.020309262,0.6597226,0.8489642,0.3619099,0.5716216,-0.5538555,-0.18501455,-2.17184,-0.24082994,108.71175,115.35689,91.60829,115.41238,0,0,0,0,0,0,0,0,0,0,0,0,-1.2372054,-1.0138115,-0.33728498,-0.28340912,1.3555195,1.0305552,2.1978738,0.3719137,0.018847287,0.041177794,-0.013411343,0.010387033,53,3,190,2,4,768.2699,175.80876,-1424.5801,37.992317,-17759.53,-40.05661,115.07323,115.102745,114.53704,114.53704,-11.023594,1,370.84177,0,0,18.919884,18.919878,0,10,0,255,0,0,4,-127,44,211
True,4219453,7999.995,1269.8213,4018.3145,-12.167713,-0.41708452,-8.354687,1.5362458,0.52013093,36.940132,0.013019589,-0.54502624,-0.054139454,1.345611,0.0222297,-0.028432352,0.5687988,0.83796465,0.33506426,0.61154646,-0.51300496,-0.744724,-2.5739594,-0.46589455,105.424965,105.322266,85.01119,109.381134,0,0,0,0,0,0,0,0,0,0,0,0,-1.4820906,-1.1686517,-0.6906239,-0.5633349,1.5683643,1.3857708,2.6650004,0.73102933,0.008118272,0.039879844,-0.016457826,0.014917761,53,3,190,2,4,772.80707,175.76631,-1423.8243,36.97572,-15669.003,-37.20637,116.47192,116.624405,118.068085,118.068085,-11.024785,1,373.79523,0,0,19.042578,19.042572,0,10,0,255,0,0,4,-127,56,192
True,4219578,7999.995,1269.8213,3893.3352,-12.536165,-0.48005742,-7.8721247,2.3443632,0.57885367,36.04369,0.0405323,-0.55399907,-0.027774472,1.2915374,0.022651546,-0.03418506,0.53359514,0.83561534,0.30471185,0.61409044,-0.75853014,-0.6518739,-2.9956472,-0.6888442,99.81415,103.782616,78.15482,103.886,0,0,0,0,0,0,0,0,0,0,0,0,-1.7423958,-1.3971083,-0.9513592,-0.78989697,1.900345,1.541704,3.1430855,1.0480666,0.0039642453,0.039602622,-0.01990226,0.015206456,53,3,190,2,4,776.29346,175.73495,-1423.1201,36.124485,-14477.652,-35.488285,118.31528,119.08545,122.20918,122.20918,-11.024952,1,376.17233,0,0,19.139915,19.139908,0,10,0,255,0,0,4,-127,69,181
True,4219687,7999.995,1269.8213,4135.696,-12.557141,-0.28804204,-7.707473,3.3760548,0.68195236,34.898594,0.012292517,-0.61497283,-0.0043904968,1.2232131,0.024347605,-0.03864963,0.49097735,0.84257895,0.23072407,0.57284725,-0.7307393,-0.18101297,-4.226243,-1.049403,96.35813,105.01824,63.286903,96.4659,0,0,0,0,0,0,0,0,0,0,0,0,-2.0293274,-1.5200597,-1.3572612,-1.0957545,2.1568842,1.5307995,4.4388385,1.5172095,-0.0010646582,0.040424332,-0.028298497,0.010526121,53,3,190,2,4,780.3661,175.69658,-1422.159,35.068142,98464.484,228.1188,121.72513,123.49724,128.55206,128.55206,-9.588564,1,378.8622,0,0,19.257486,19.25748,0,10,0,255,0,0,3,-127,90,165
