IsRaceOn,TimestampMS,EngineMaxRpm,EngineIdleRpm,CurrentEngineRpm,AccelerationX,AccelerationY,AccelerationZ,VelocityX,VelocityY,VelocityZ,AngularVelocityX,AngularVelocityY,AngularVelocityZ,Yaw,Pitch,Roll,NormalizedSuspensionTravelFrontLeft,NormalizedSuspensionTravelFrontRight,NormalizedSuspensionTravelRearLeft,NormalizedSuspensionTravelRearRight,TireSlipRatioFrontLeft,TireSlipRatioFrontRight,TireSlipRatioRearLeft,TireSlipRatioRearRight,WheelRotationSpeedFrontLeft,WheelRotationSpeedFrontRight,WheelRotationSpeedRearLeft,WheelRotationSpeedRearRight,WheelOnRumbleStripFrontLeft,WheelOnRumbleStripFrontRight,WheelOnRumbleStripRearLeft,WheelOnRumbleStripRearRight,WheelInPuddleDepthFrontLeft,WheelInPuddleDepthFrontRight,WheelInPuddleDepthRearLeft,WheelInPuddleDepthRearRight,SurfaceRumbleFrontLeft,SurfaceRumbleFrontRight,SurfaceRumbleRearLeft,SurfaceRumbleRearRight,TireSlipAngleFrontLeft,TireSlipAngleFrontRight,TireSlipAngleRearLeft,TireSlipAngleRearRight,TireCombinedSlipFrontLeft,TireCombinedSlipFrontRight,TireCombinedSlipRearLeft,TireCombinedSlipRearRight,SuspensionTravelMetersFrontLeft,SuspensionTravelMetersFrontRight,SuspensionTravelMetersRearLeft,SuspensionTravelMetersRearRight,CarOrdinal,CarClass,CarPerformanceIndex,DrivetrainType,NumCylinders,PositionX,PositionY,PositionZ,Speed,Power,Torque,TireTempFl,TireTempFr,TireTempRl,TireTempRr,Boost,Fuel,Distance,BestLapTime,LastLapTime,CurrentLapTime,CurrentRaceTime,Lap,RacePosition,Accelerator,Brake,Clutch,Handbrake,Gear,Steer,NormalDrivingLine,NormalAiBrakeDifference
True,7239968,9499.995,1203.1134,1203.1282,0.033336844,0.003028144,0.009904242,-0.008411013,7.456486E-05,0.0002273271,-0.00038124225,0.00010902613,-0.0018572405,-1.5978005,-0.0018445197,-0.00010611081,0.4949953,0.47539064,0.47980404,0.4808085,0.00015135661,0.00020968373,-0.037226953,0.02050754,0.00064811716,0.00064811716,0.0006458156,0.0006458156,0,0,0,0,0,0,0,0,0,0,0,0,0.027302809,0.018457958,-0.008191877,-0.010512918,0.02730323,0.018459149,0.038117617,0.023045188,0.00075722486,-0.00037800148,-0.00013980642,-8.1609935E-05,85,4,132,2,10,-1435.2506,484.73215,-463.18958,0.008414413,-0.056591146,-0.00044916716,114.10863,113.86772,115.307724,115.307724,-11.024998,1,0,0,0,0,240.7899,0,0,0,0,0,255,1,-127,0,0
True,7268375,9499.995,1203.1134,1871.8323,0.08752344,-0.009807498,-0.0514524,0.0017958774,-0.0004427165,-3.5296544E-05,0.00014576409,1.2226059E-05,-0.004009962,2.681112,-0.0021621198,-0.0023601477,0.48100445,0.48413008,0.4811256,0.4841413,-1.2325759E-05,-5.7027223E-06,-1.5491984E-05,-7.177353E-06,-0.0002755598,-0.00029243235,-0.00028547776,-0.00029937868,0,0,0,0,0,0,0,0,0,0,0,0,-0.0044000084,0.005017372,-0.0002036563,0.00047030003,0.0044000256,0.005017375,0.00020424467,0.0004703548,-5.2928925E-05,0.0001280643,-6.32368E-05,0.00011149049,85,4,132,2,10,-1474.1802,184.34529,-370.84048,0.001849978,71251.9,368.96277,101.634056,101.288956,102.53905,102.53905,-7.804639,1,-69.2981,0,0,0.106120065,0.10612006,0,8,255,0,0,0,1,0,64,0
True,7268468,9499.995,1203.1134,3405.2769,-0.032721113,0.0062385965,0.003709945,0.0029102236,-0.00067900086,-7.2613475E-05,3.2618875E-05,2.579482E-05,-0.007030908,2.6811152,-0.0021543964,-0.0028936982,0.4770513,0.49018213,0.47762737,0.48901984,2.2368567E-07,3.4667755E-07,6.3749508E-06,2.1034248E-06,-0.0002292771,-0.00029404272,-0.00022155726,-0.0002905751,0,0,0,0,0,0,0,0,0,0,0,0,-0.0048379023,0.004682532,-0.00032964966,0.0004491087,0.0048379023,0.004682532,0.0003297113,0.0004491136,-0.00028184056,0.00047851354,-0.0002659224,0.00039415061,85,4,132,2,10,-1474.1803,184.34525,-370.84058,0.0029892665,246579.27,697.33545,101.58555,101.24094,102.488075,102.488075,-1.7336464,1,-69.29808,0,0,0.19889963,0.19889961,0,8,255,0,0,0,1,0,64,0
True,7268593,9499.995,1203.1134,5771.3643,0.048146173,0.0027403513,0.15438165,0.0017223193,0.000347855,0.01050845,-0.0013246723,-0.000119176504,-0.004284899,2.681118,-0.0021610744,-0.0035835153,0.47031775,0.49773437,0.47233024,0.49579623,0.019706164,0.023276191,0.03998397,0.03528994,0.09774088,0.09061821,0.15737371,0.14799339,0,0,0,0,0,0,0,0,0,0,0,0,-0.005432839,0.004259385,-0.0009388057,-3.2678123E-05,0.020441346,0.023662701,0.03999499,0.035289954,-0.0006717518,0.0009158328,-0.00057283416,0.00078677014,85,4,132,2,10,-1474.1805,184.3452,-370.84076,0.010654337,426864.34,712.59033,101.525986,101.18138,102.42548,102.42548,5.0251055,1,-69.298035,0,0,0.31364715,0.31364715,0,8,255,0,0,0,1,0,64,0
True,7268687,9499.995,1203.1134,6541.4946,0.090209484,-0.13966955,8.863697,0.0015236735,-0.009735809,1.0389326,-0.067684464,-0.009001351,-0.007171152,2.6807978,-0.0057414626,-0.0039019836,0.41754928,0.44983026,0.5202762,0.53574336,12.567646,10.65863,13.801768,14.279975,28.560562,25.471119,33.171074,33.47409,0,0,0,0,0,0,0,0,0,0,0,0,0.10047873,0.1386284,-0.09033486,-0.09221914,12.568048,10.659532,13.802064,14.2802725,-0.0037273616,-0.0018581003,0.0022051223,0.003101278,85,4,132,2,10,-1474.1624,184.34528,-370.8779,1.0389793,490596,715.4164,102.798065,101.93443,104.37275,104.37275,8.406526,1,-69.266685,0,0,0.4079758,0.4079758,0,8,255,0,0,0,1,0,64,0
True,7268796,9499.995,1203.1134,7631.611,-0.072147846,-0.37686324,11.816263,0.0016607046,-0.049868513,2.5383506,-0.028770465,-0.026822787,0.0049893926,2.6790354,-0.01128817,-0.004380359,0.274331,0.32927525,0.546965,0.6063556,22.629871,18.233261,18.355701,19.721373,47.98391,40.844048,42.41467,46.88495,0,0,0,0,0,0,0,0,0,0,0,0,0.1043926,0.14492655,-0.1372784,-0.13510258,22.630114,18.233837,18.356215,19.721834,-0.012020551,-0.008838952,0.003751453,0.0071925074,85,4,132,2,10,-1474.0701,184.34479,-371.06375,2.5388408,556838.9,699.2762,111.578125,111.2189,114.97835,114.97835,10.577168,1,-69.10936,0,0,0.5214858,0.5214858,0,8,255,0,0,0,1,0,64,0
True,7268906,9499.995,1203.1134,8638.793,-0.09363556,0.22620672,12.759596,0.0062743425,-0.024645919,4.1238475,0.018940497,-0.042873394,0.007956265,2.6750755,-0.011991573,-0.0037194975,0.2671416,0.30188376,0.6290546,0.66788435,21.652225,21.334354,20.018927,18.293432,51.097996,50.771084,53.151352,47.312286,0,0,0,0,0,0,0,0,0,0,0,0,0.094868034,0.1368757,-0.1398647,-0.14119631,21.652433,21.334793,20.019415,18.293976,-0.012436859,-0.010425083,0.008507673,0.010757443,85,4,132,2,10,-1473.9004,184.34393,-371.40295,4.123926,582337.8,645.3233,120.12883,119.83179,125.25405,125.25405,12.820661,1,-68.82181,0,0,0.635573,0.6355731,0,8,255,0,0,0,1,0,64,0
True,7269015,9499.995,1203.1134,8996.703,0.006602764,-0.03605699,12.536748,0.02571392,-0.04733054,5.590262,-0.009995162,-0.049611665,0.005762794,2.6695428,-0.011448535,-0.0034554028,0.30926344,0.32571274,0.6140813,0.6530431,18.944502,19.557632,17.508455,19.031994,51.35135,52.44074,50.278,55.43092,0,0,0,0,0,0,0,0,0,0,0,0,0.04981998,0.09279335,-0.14147747,-0.14396527,18.944567,19.557852,17.509027,19.032537,-0.009997755,-0.009045243,0.007640131,0.009897549,85,4,132,2,10,-1473.6573,184.34462,-371.88602,5.590522,538133.3,572.0459,128.2294,127.925354,134.19508,134.19508,9.311828,1,-68.41253,0,0,0.7471612,0.7471612,0,8,255,0,0,0,1,0,64,0
True,7269125,9499.995,1203.1134,8965.915,-0.008015156,-0.3118538,12.965174,0.046888113,-0.07424156,6.781869,0.005054002,-0.056141414,0.008793179,2.664668,-0.011485659,-0.0027395005,0.27914226,0.28566116,0.5876565,0.6251722,15.725911,15.919881,15.71989,14.783551,51.307594,52.194035,55.08381,50.23284,0,0,0,0,0,0,0,0,0,0,0,0,0.019690467,0.0638033,-0.16293512,-0.16540977,15.725924,15.920009,15.720734,14.784476,-0.011741951,-0.011364467,0.0061090924,0.0082827285,85,4,132,2,10,-1473.4064,184.3467,-372.3814,6.782438,516998.34,551.74536,134.25597,133.9372,141.1883,141.1883,7.0880117,1,-67.991486,0,0,0.8362347,0.8362346,0,8,255,0,0,0,1,0,64,0
True,7269234,9499.995,1203.1134,8933.156,-0.10076809,0.08951769,13.765726,0.0739274,-0.06862963,8.317664,0.006353521,-0.051591482,0.0013163986,2.6588976,-0.01162796,-0.0029941439,0.28592506,0.28869474,0.6279777,0.6556674,11.731925,11.250432,9.637426,10.767871,52.904938,52.366386,51.849907,52.069443,0,0,0,0,0,0,0,0,0,0,0,0,-0.023073932,0.021354867,-0.14436072,-0.1487323,11.731948,11.250452,9.638508,10.768898,-0.011349186,-0.011188805,0.008445278,0.0100496,85,4,132,2,10,-1473.0278,184.34764,-373.12305,8.318275,526517.4,563.78015,141.34119,140.91034,149.34515,149.34515,7.9524603,1,-67.360214,0,0,0.9465973,0.9465972,0,8,255,0,0,0,1,0,64,0
True,7269343,9499.995,1203.1134,8979.731,-0.14441061,-0.08524494,13.01762,0.10344672,-0.094213486,9.807787,-0.0022259685,-0.046675317,-0.006816405,2.6530805,-0.011065149,-0.0033589308,0.3048216,0.28320363,0.6302187,0.64709336,7.6863976,8.19899,7.3581643,7.661991,51.167526,52.86085,53.59401,51.711803,0,0,0,0,0,0,0,0,0,0,0,0,-0.05295136,-0.009155769,-0.1373661,-0.14036773,7.68658,8.198995,7.3594465,7.6632767,-0.010254964,-0.0115067735,0.008575119,0.009552825,85,4,132,2,10,-1472.5615,184.3483,-374.02777,9.808785,529787.25,564.14014,148.00455,147.43567,156.76372,156.76372,8.41516,1,-66.58862,0,0,1.0590457,1.0590456,0,8,255,0,0,0,1,0,64,0
True,7269453,9499.995,1203.1134,9156.489,0.7771802,-0.36951074,11.980614,0.21378231,-0.12855871,11.318015,0.00075066835,0.0054171504,-0.0010590414,2.6491818,-0.010519745,-0.0030778656,0.31294307,0.2418161,0.59981996,0.6021828,4.911963,6.838222,6.542668,5.4367886,49.193886,54.994442,57.10895,51.159607,0,0,0,0,0,0,0,0,0,0,0,0,1.1954741,1.4449509,-0.15446995,-0.15937395,5.0553474,6.9892178,6.5444913,5.439124,-0.009784684,-0.013903357,0.0068138354,0.006950736,85,4,132,2,10,-1472.0056,184.34969,-375.10132,11.3207655,535467.5,559.47003,154.2347,153.51784,163.92093,163.92093,9.581019,1,-65.67216,0,0,1.172943,1.1729431,0,8,255,0,0,0,1,127,65,0
True,7269562,9499.995,1203.1134,9089.188,0.60417366,-0.28465736,14.569912,0.19736099,-0.13368359,12.966435,-0.000816606,0.06073771,-0.0031100835,2.6552033,-0.01094391,-0.003548298,0.28011626,0.26411846,0.61426085,0.6155197,4.043359,4.152552,3.619231,4.202413,52.90145,52.92297,52.136074,54.204437,0,0,0,0,0,0,0,0,0,0,0,0,-0.22483543,-0.18259081,-0.07299381,-0.078686126,4.049605,4.156564,3.619967,4.20315,-0.01168555,-0.012611918,0.007650532,0.0077234693,85,4,132,2,10,-1471.3756,184.35103,-376.34247,12.968626,0,0,160.07492,159.30576,170.78134,170.78134,11.858468,1,-64.616905,0,0,1.2872362,1.2872362,0,8,255,0,0,0,1,0,65,0
True,7269687,9499.995,1203.1134,7947.715,-0.46666574,0.022051468,15.527471,0.05921173,-0.15571207,14.660095,-0.008571498,0.04778162,0.0034454772,2.6615837,-0.011910338,-0.004386025,0.2704584,0.27258423,0.64383537,0.65155363,1.339664,0.8520437,0.70123076,1.3707801,47.840385,45.34828,44.95175,47.725483,0,0,0,0,0,0,0,0,0,0,0,0,-0.10675176,-0.06217416,0.005679479,-0.0011311563,1.3439106,0.8543091,0.7012538,1.3707806,-0.012244798,-0.0121217,0.009364057,0.009811249,85,4,132,2,10,-1470.6882,184.35133,-377.68274,14.661042,0,0,161.34856,161.27002,173.58246,173.58246,13.149123,1,-63.47499,0,0,1.3964835,1.3964837,0,8,255,0,0,0,1,0,66,0
True,7269796,9499.995,1203.1134,8262.208,-0.06622934,-0.21152155,14.198371,0.0041975975,-0.17733681,16.160755,0.011158701,0.018391859,0.0018457165,2.665035,-0.011386829,-0.0042817793,0.25583103,0.26637128,0.63516575,0.63172674,0.41888866,0.38841534,0.5156901,0.403042,48.174973,47.944206,48.59223,48.109108,0,0,0,0,0,0,0,0,0,0,0,0,-0.039880473,0.003815245,0.013788011,0.0074911793,0.4207828,0.38843408,0.5158744,0.4031116,-0.01309181,-0.012481466,0.008861747,0.008662492,85,4,132,2,10,-1469.9316,184.35245,-379.14853,16.161728,504823.62,584.65466,158.45377,158.19743,169.95108,169.95108,12.83549,1,-62.224506,0,0,1.5033059,1.503306,0,8,255,0,0,0,1,0,67,0
True,7269890,9499.995,1203.1134,8848.808,0.028217793,-0.25901017,13.485229,-0.0019927025,-0.18326968,17.354397,0.014613552,0.0070065823,0.0041963505,2.6660662,-0.010233716,-0.003978684,0.2406262,0.2594745,0.62115043,0.62155104,0.39381203,0.37560442,0.4252895,0.4437858,51.560852,51.438316,51.761955,51.77871,0,0,0,0,0,0,0,0,0,0,0,0,-0.027059248,0.016422493,0.007854895,0.0020198585,0.39474058,0.37596327,0.42536205,0.4437904,-0.01397226,-0.012880832,0.008049708,0.00807292,85,4,132,2,10,-1469.2401,184.35268,-380.48996,17.355366,520213.53,562.418,155.98433,155.71269,167.05466,167.05466,13.665111,1,-61.080402,0,0,1.5932432,1.5932432,0,8,255,0,0,0,1,0,67,0
True,7270000,9499.995,1203.1134,8131.8657,0.11176908,-0.19463757,2.0710049,-0.0023832321,-0.10131869,17.4292,0.07040999,0.001859313,0.0039335694,2.666471,-0.0037022517,-0.0035115327,0.35471296,0.3762347,0.5505684,0.5541548,0.00014208064,9.137729E-05,0.00013890943,8.776906E-05,49.613285,49.60435,49.438976,49.429752,0,0,0,0,0,0,0,0,0,0,0,0,-0.020277964,0.018813742,0.00394806,-0.00082585815,0.020278461,0.018813964,0.0039505027,0.00083050894,-0.007365957,-0.0061197206,0.003960233,0.004168026,85,4,132,2,10,-1468.3494,184.34938,-382.22025,17.429493,-179957.03,-210.91203,153.00305,152.72096,163.53146,163.53146,-6.5369263,1,-59.60508,0,0,1.7046287,1.7046288,0,8,255,0,0,0,1,0,68,0
True,7270109,9499.995,1203.1134,7470.079,-0.083180286,0.27124137,0.080272764,-0.0019817352,0.001203455,17.395803,-0.0050024763,0.0005262429,0.004064264,2.666575,-0.00013146794,-0.0030615542,0.48514688,0.5070337,0.44743308,0.45406112,0.000101096695,8.6914835E-05,0.00010560168,9.25884E-05,49.602898,49.600407,49.427246,49.424644,0,0,0,0,0,0,0,0,0,0,0,0,-0.01844027,0.018163372,0.00014763804,0.0006892493,0.018440548,0.01816358,0.00018151778,0.00069544034,0.00018694252,0.0014543198,-0.0020153597,-0.0016313344,85,4,132,2,10,-1467.446,184.34726,-383.9758,17.395802,-149424.16,-190.70216,150.13759,149.84758,160.11266,160.11266,-10.234276,1,-58.10835,0,0,1.8180119,1.8180121,0,8,255,0,0,0,2,0,69,0
True,7270218,9499.995,1203.1134,5727.3984,0.7249379,0.1988433,11.804925,0.016266346,-0.101617694,18.57961,-0.10593571,0.01473948,0.0029670522,2.6672556,-0.007248727,-0.0025959027,0.41961128,0.43182215,0.4951093,0.5024838,0.92465365,1.0863304,0.8948895,0.89267224,58.07912,58.94038,57.81855,57.746136,0,0,0,0,0,0,0,0,0,0,0,0,0.04198621,0.08458794,0.0013212847,0.0010894857,0.9256064,1.0896187,0.8948904,0.8926729,-0.0036079586,-0.002900876,0.00074696913,0.0011742413,85,4,132,2,10,-1466.5358,184.34995,-385.74838,18.579895,6318.2783,10.45715,147.61304,147.32324,157.365,157.365,-3.2133265,1,-56.597706,0,0,1.9297783,1.9297785,0,8,255,0,0,0,2,5,69,0
True,7270328,9499.995,1203.1134,5651.1323,0.12271881,0.07341304,11.486874,0.004570961,-0.20700946,19.872414,-0.004457297,0.012085389,-0.0011080975,2.669037,-0.013323884,-0.0024885205,0.29214147,0.29085353,0.62008625,0.62992346,0.33360308,0.3622527,0.31915197,0.31934658,58.720993,58.82388,58.616646,58.566536,0,0,0,0,0,0,0,0,0,0,0,0,-0.032536697,0.012045634,0.008482911,0.0020406696,0.335186,0.36245292,0.31926468,0.3193531,-0.010989219,-0.011063799,0.007988051,0.008558013,85,4,132,2,10,-1465.5952,184.35481,-387.58777,19.873493,388518.8,657.51624,145.42726,145.15752,154.81487,154.81487,5.209367,1,-55.031487,0,0,2.036972,2.036972,0,8,255,0,0,0,2,0,70,0
True,7270437,9499.995,1203.1134,6022.242,0.17555952,-0.4198523,11.499954,-0.001124382,-0.19781822,21.109524,0.043431103,0.003108859,-0.0033471733,2.6697416,-0.010406999,-0.0027161655,0.251484,0.24072038,0.59870166,0.6044171,0.33743647,0.35083127,0.38335633,0.3821336,62.317116,62.379253,62.583138,62.56308,0,0,0,0,0,0,0,0,0,0,0,0,-0.022754688,0.021131443,0.0057779835,-0.00016806455,0.33820283,0.35146707,0.38339987,0.38213363,-0.013343528,-0.013966806,0.0067490414,0.00708019,85,4,132,2,10,-1464.5918,184.35985,-389.55283,21.11045,420661.22,668.0077,143.3256,143.05603,152.33217,152.33217,7.743022,1,-53.35874,0,0,2.1445742,2.1445744,0,8,255,0,0,0,2,0,71,0
True,7270546,9499.995,1203.1134,6409.894,1.1827493,-0.6164337,11.771038,0.08876419,-0.19051573,22.386292,0.01908229,0.05933683,0.009331467,2.6717565,-0.0065597305,-0.0025639874,0.27778018,0.26005298,0.55614054,0.5484335,0.29614034,0.40658656,0.3908911,0.45586157,65.99656,66.43391,66.611855,66.72796,0,0,0,0,0,0,0,0,0,0,0,0,0.20075616,0.25368708,-0.0024562168,-0.00561179,0.35777387,0.47923875,0.39089882,0.4558961,-0.011820823,-0.012847334,0.004283078,0.0038365386,85,4,132,2,10,-1463.5187,184.35826,-391.66495,22.387278,465109.97,693.92377,141.35066,141.08678,150.01318,150.01318,8.866733,1,-51.56184,0,0,2.2534468,2.2534473,0,8,255,0,0,0,2,101,71,0
True,7270656,9499.995,1203.1134,6778.716,3.4455676,-0.13802904,11.971189,0.13866997,-0.20989498,23.676022,-0.024344053,0.19874242,-0.0009847712,2.6867561,-0.0068820356,-0.0012399746,0.3243629,0.2867865,0.575209,0.5406455,0.2786478,0.37740156,0.35580862,0.49049658,70.17321,69.6593,70.61916,70.49568,0,0,0,0,0,0,0,0,0,0,0,0,-0.08427722,-0.045113325,0.046715427,0.045860045,0.29111382,0.38008836,0.35886225,0.49263582,-0.009123407,-0.011299305,0.005387895,0.0033853054,85,4,132,2,10,-1462.4357,184.3527,-393.8684,23.677357,485694,684.87775,139.59387,139.3706,147.90453,147.90453,9.707723,1,-49.70035,0,0,2.3600156,2.360016,0,8,255,0,0,0,2,0,71,0
True,7270765,9499.995,1203.1134,7075.015,1.6680431,0.27853328,12.203584,-0.06412506,-0.24476813,24.8039,-0.03284753,0.08516789,0.0027743336,2.6989412,-0.0098047,-0.0016691206,0.32549298,0.31017673,0.612994,0.5879765,0.3110247,0.33144206,0.33344677,0.39656088,73.36506,73.09816,73.50775,73.53078,0,0,0,0,0,0,0,0,0,0,0,0,-0.044250574,-0.0017736581,0.06369082,0.060818177,0.31415677,0.3314468,0.339475,0.40119743,-0.009057969,-0.009944871,0.0075771324,0.006127633,85,4,132,2,10,-1461.4869,184.35042,-395.84363,24.805191,524490.25,708.8123,138.16476,137.94398,146.22548,146.22548,10.326098,1,-48.039127,0,0,2.4503407,2.4503415,0,8,255,0,0,0,2,0,70,0
True,7270875,9499.995,1203.1134,7468.544,1.348567,0.03822113,11.116628,-0.049762726,-0.26631594,26.19154,0.014890473,0.02374056,0.0032584704,2.704416,-0.011082789,-0.00127874,0.29033974,0.29300985,0.6420789,0.6256033,0.35209852,0.36601877,0.3459515,0.36905116,77.5328,77.52302,77.48407,77.52287,0,0,0,0,0,0,0,0,0,0,0,0,-0.017285194,0.02738792,0.030146006,0.02370312,0.35252255,0.367042,0.34726247,0.36981156,-0.011093549,-0.010938935,0.00926229,0.008307707,85,4,132,2,10,-1460.2446,184.35254,-398.47055,26.192938,535031.6,684.9116,136.48257,136.26147,144.25299,144.25299,11.124503,1,-45.83634,0,0,2.5642037,2.5642047,0,8,255,0,0,0,2,0,69,0
True,7270984,9499.995,1203.1134,7863.3086,0.4785862,-0.43638158,12.23272,-0.023931503,-0.2531883,27.559044,0.017443953,0.0058640633,-0.00033626752,2.7058878,-0.008315588,-0.001049928,0.29204008,0.28399312,0.60398024,0.6036302,0.30321693,0.3292676,0.38799703,0.39120367,81.147606,81.32322,81.784706,81.78347,0,0,0,0,0,0,0,0,0,0,0,0,-0.016164998,0.02689662,0.012876023,0.007613608,0.30364752,0.33036432,0.38821062,0.39127776,-0.01099509,-0.011461057,0.0070548803,0.007034596,85,4,132,2,10,-1458.9192,184.35278,-401.30374,27.560215,550250.3,668.9979,134.89273,134.67216,142.39178,142.39178,11.9376135,1,-43.46547,0,0,2.6805081,2.680509,0,8,255,0,0,0,2,0,67,0
True,7271093,9499.995,1203.1134,8167.345,0.40783644,-0.17613098,12.243347,-0.008449554,-0.26103523,28.688334,-0.009697013,0.00040044525,-0.0051033525,2.7061422,-0.008060335,-0.0013275417,0.33503956,0.30302373,0.5934218,0.5913911,0.2836032,0.30562338,0.36136302,0.35888544,84.34324,84.51815,84.92995,84.91145,0,0,0,0,0,0,0,0,0,0,0,0,-0.018091993,0.024513336,0.0056701177,0.0012071796,0.2841797,0.3066049,0.36140752,0.35888746,-0.008505166,-0.010359071,0.0064431317,0.006325472,85,4,132,2,10,-1457.7856,184.34978,-403.73618,28.689522,575593.8,673.3859,133.67165,133.45334,140.97444,140.97444,12.577378,1,-41.431435,0,0,2.775874,2.7758749,0,8,255,0,0,0,2,0,65,0
True,7271203,9499.995,1203.1134,8532.674,0.16351938,0.003310658,10.993602,0.0027122498,-0.28501123,30.013893,0.0005486929,-0.0008821109,-0.008265591,2.7060707,-0.009158049,-0.0021075092,0.3291421,0.29964545,0.6313515,0.61223793,0.30231008,0.31805584,0.33703762,0.3346787,88.358055,88.50213,88.620995,88.607414,0,0,0,0,0,0,0,0,0,0,0,0,-0.021210546,0.022504358,0.003221396,-0.002926764,0.30305326,0.318851,0.33705303,0.3346915,-0.008846663,-0.010554694,0.008640751,0.007533323,85,4,132,2,10,-1456.3751,184.34775,-406.7673,30.015247,583327.75,653.46277,132.31259,132.09402,139.39374,139.39374,13.326789,1,-38.897453,0,0,2.8896992,2.8897002,0,8,255,0,0,0,2,0,63,0
True,7271312,9499.995,1203.1134,8445.568,0.15531158,-0.037403256,7.6220264,0.006116867,-0.2675143,30.97557,0.023458155,-0.00085544493,-0.006167645,2.7059512,-0.008399729,-0.0028679324,0.36654043,0.35249773,0.6138814,0.6028126,-0.024270894,-0.023926055,-0.03857668,-0.038928106,87.993454,88.00211,87.48791,87.487785,0,0,0,0,0,0,0,0,0,0,0,0,-0.02154402,0.020115191,0.0016278358,-0.003820034,0.03245337,0.031258233,0.03861101,0.039115086,-0.006681077,-0.0074942335,0.007628545,0.0069872253,85,4,132,2,10,-1454.9191,184.3469,-409.89697,30.976727,-195011.92,-220.24747,131.05249,130.83215,137.9219,137.9219,2.7592535,1,-36.282764,0,0,3.0024045,3.0024054,0,8,255,0,0,0,2,0,61,0
True,7271406,9499.995,1203.1134,7931.6543,-0.6625961,0.4577328,0.96270066,0.004286766,-0.12865837,30.86582,0.027788162,-0.00023151921,0.00062294584,2.705891,-0.005490605,-0.0031027768,0.48640105,0.4930386,0.5722647,0.56557035,0.00035569468,0.00036059314,0.00043199258,0.00044883508,87.97104,87.972176,87.65949,87.660736,0,0,0,0,0,0,0,0,0,0,0,0,-0.02181551,0.01921778,0.0014235886,-0.004012709,0.02181841,0.019221162,0.0014876903,0.0040377327,0.00025956705,0.00064392015,0.005217299,0.0048294365,85,4,132,2,10,-1453.6698,184.34807,-412.58163,30.866089,-170488.11,-204.84042,129.97467,129.75162,136.62108,136.62108,-7.8465796,1,-34.03837,0,0,3.0982337,3.0982347,0,8,255,0,0,0,2,0,59,0
True,7271515,9499.995,1203.1134,7236.3535,0.4561596,-0.24049674,0.67139715,0.0009880066,-0.05264725,30.914371,0.033079855,0.00021725161,0.0033789165,2.7058866,-0.002170521,-0.0028276795,0.47920898,0.49946353,0.5385179,0.5401449,0.102231115,0.10249465,0.16612627,0.16513745,89.1523,89.1544,89.51641,89.50723,0,0,0,0,0,0,0,0,0,0,0,0,-0.021593925,0.020114794,0.0016064546,-0.003020383,0.10448684,0.104449786,0.16613403,0.16516508,-0.00015689805,0.0010159612,0.0032620355,0.003356304,85,4,132,2,10,-1452.4369,184.35173,-415.23068,30.914417,-17016.312,-22.380531,128.96992,128.74463,135.40709,135.40709,-8.909851,1,-31.823664,0,0,3.1929286,3.1929297,0,8,255,0,0,0,3,0,58,0
True,7271656,9499.995,1203.1134,5611.667,-0.11678958,-0.22030811,8.384285,0.0026893616,-0.20496942,32.203747,-0.04576847,-0.0018770988,-0.005032027,2.7057493,-0.0053313375,-0.002909023,0.42469698,0.41537517,0.5510642,0.5637946,0.15756083,0.16968082,0.21472459,0.20880775,93.47006,93.58602,93.80714,93.774315,0,0,0,0,0,0,0,0,0,0,0,0,-0.020000646,0.021546122,0.00061592844,-0.0024790952,0.15882517,0.1710433,0.21472546,0.20882247,-0.003313467,-0.003853254,0.003988959,0.0047265515,85,4,132,2,10,-1450.5715,184.34833,-419.23706,32.2044,377270.66,642.3091,127.69673,127.47124,133.93735,133.93735,3.3350077,1,-28.472431,0,0,3.3328533,3.3328547,0,8,255,0,0,0,3,0,55,0
True,7271750,9499.995,1203.1134,5754.0815,-0.017794847,0.34159866,7.489114,0.0065870285,-0.2522417,32.98538,-0.0109013785,-0.002002495,-0.012030188,2.7055762,-0.008307711,-0.0037796136,0.41278872,0.38329184,0.62189037,0.6226822,0.17492941,0.19545268,0.22431563,0.21644077,95.86592,96.0611,96.16551,96.118126,0,0,0,0,0,0,0,0,0,0,0,0,-0.020879598,0.022090213,0.002349874,-0.0043868837,0.1761711,0.19669704,0.22432794,0.21648522,-0.0040030256,-0.005711071,0.0080925785,0.008138459,85,4,132,2,10,-1449.2177,184.3477,-422.1444,32.986347,417456.16,693.27765,126.85556,126.629074,132.95396,132.95396,6.937907,1,-26.041605,0,0,3.4312294,3.4312303,0,8,255,0,0,0,3,0,53,0
True,7271859,9499.995,1203.1134,5930.3125,-0.01286459,0.06920348,7.522328,0.01174736,-0.25515693,33.930653,0.0032785076,-0.0013310404,-0.010846325,2.7053523,-0.008679173,-0.005288771,0.39986143,0.36531577,0.62412345,0.61081254,0.21129702,0.19892672,0.24091484,0.24200891,98.96513,98.844765,99.079,99.0915,0,0,0,0,0,0,0,0,0,0,0,0,-0.023354176,0.020247595,0.001341289,-0.0052630627,0.21258374,0.19995451,0.24091858,0.24206614,-0.004751593,-0.006751992,0.008221965,0.007450737,85,4,132,2,10,-1447.6034,184.35196,-425.61032,33.931614,440703.84,710.13214,125.95316,125.72609,131.90118,131.90118,8.069318,1,-23.14367,0,0,3.5454717,3.5454729,0,8,255,0,0,0,3,0,50,0
True,7271984,9499.995,1203.1134,6115.1235,-0.26802778,-0.57690305,8.871128,0.007463455,-0.25021985,34.917805,0.025162863,0.0012768458,0.0022965502,2.7053635,-0.006346722,-0.005711972,0.34222198,0.35176328,0.60154575,0.58859545,0.2160708,0.20597944,0.2719613,0.2730418,101.85681,101.7574,102.25754,102.25853,0,0,0,0,0,0,0,0,0,0,0,0,-0.024252169,0.018746307,0.001260372,-0.00434281,0.2174276,0.20683074,0.27196422,0.27307636,-0.008089259,-0.0075367615,0.006913826,0.0061634965,85,4,132,2,10,-1445.8969,184.35318,-429.27313,34.9187,459632.97,718.0869,125.10698,124.87426,130.91309,130.91309,8.578231,1,-20.080914,0,0,3.6628187,3.6628199,0,8,255,0,0,0,3,0,48,0
True,7272093,9499.995,1203.1134,6249.9526,0.12841344,-0.21788067,8.928382,0.0009384155,-0.25997987,35.74744,-0.0155398,0.0013702511,0.0045567923,2.7054894,-0.0059335143,-0.005289734,0.365464,0.38681743,0.56749994,0.5746015,0.19079041,0.1876321,0.25010708,0.25088155,104.084465,104.04705,104.50723,104.50491,0,0,0,0,0,0,0,0,0,0,0,0,-0.022037452,0.019687396,0.0015533662,-0.0022857352,0.19205892,0.18866213,0.2501119,0.25089195,-0.0067434087,-0.005506918,0.004941236,0.0053526945,85,4,132,2,10,-1444.4608,184.3486,-432.3548,35.748386,472864.12,722.77295,124.46478,124.22907,130.16737,130.16737,8.893401,1,-17.504007,0,0,3.7590141,3.7590153,0,8,255,0,0,0,3,0,46,0
True,7272171,9499.995,1203.1134,6365.0347,0.121058226,0.1175614,7.777641,-0.00116539,-0.276384,36.43136,-0.0063640377,0.00063415954,0.0009346098,2.705582,-0.0070640757,-0.00505249,0.37338242,0.38557282,0.5946189,0.609362,0.19397832,0.20407754,0.23772514,0.23453191,106.08607,106.18274,106.371735,106.34528,0,0,0,0,0,0,0,0,0,0,0,0,-0.021268329,0.02149838,0.0030622964,-0.0026750704,0.1951408,0.20520678,0.23774487,0.23454717,-0.006284885,-0.0055789873,0.006512489,0.0073666945,85,4,132,2,10,-1443.2488,184.34598,-434.9555,36.432407,483654.62,726.0764,123.96449,123.72722,129.5875,129.5875,9.128716,1,-15.329974,0,0,3.8384886,3.8384898,0,8,255,0,0,0,3,0,44,0
True,7272296,9499.995,1203.1134,6544.05,-0.08264375,0.69761884,8.982496,0.0024585724,-0.27686307,37.48016,-0.037292644,-0.00037047177,-0.0045350958,2.7055945,-0.008940515,-0.0053335605,0.41570714,0.40495238,0.6035143,0.6075124,0.17061189,0.17409593,0.23483853,0.23286602,108.94316,108.97962,109.43146,109.417145,0,0,0,0,0,0,0,0,0,0,0,0,-0.020455081,0.020592367,0.0025824106,-0.0030230714,0.17183371,0.17530955,0.23485273,0.23288563,-0.0038340315,-0.0044567958,0.007027883,0.007259533,85,4,132,2,10,-1441.3495,184.34724,-439.03183,37.481182,500177.6,730.1182,123.25333,123.0148,128.76314,128.76314,9.496106,1,-11.921356,0,0,3.9601402,3.9601414,0,9,255,0,0,0,3,0,41,0
True,7272406,9499.995,1203.1134,6742.5444,0.07676935,-0.12263639,8.786406,0.005291939,-0.29878688,38.4887,0.041928995,0.00029850437,-0.00038582645,2.7055767,-0.010131174,-0.005727725,0.36433122,0.35620886,0.64591587,0.6405156,0.2708684,0.24991162,0.25374258,0.25644273,112.83599,112.61012,112.5183,112.53796,0,0,0,0,0,0,0,0,0,0,0,0,-0.024328914,0.021277085,0.0033001925,-0.005227401,0.27195877,0.25081572,0.25376403,0.256496,-0.0068090037,-0.0072793365,0.0094846,0.009171717,85,4,132,2,10,-1439.4344,184.3593,-443.1428,38.489857,516471.6,731.77014,122.61516,122.37451,128.02716,128.02716,9.8692465,1,-8.483911,0,0,4.0794845,4.0794854,0,9,255,0,0,0,3,0,38,0
True,7272531,9499.995,1203.1134,6919.6567,-0.0036718845,-1.2325188,8.439715,0.0021429062,-0.28655443,39.420486,0.017424993,0.00078808697,0.0030041295,2.7056394,-0.0055671292,-0.0054762824,0.30575958,0.30067414,0.5593414,0.5504713,0.2187924,0.21898185,0.30245814,0.3005715,115.04852,115.050255,115.79566,115.770645,0,0,0,0,0,0,0,0,0,0,0,0,-0.021820009,0.019711439,0.0010898332,-0.0020154498,0.21987775,0.21986721,0.3024601,0.30057827,-0.0102006495,-0.010495126,0.004468534,0.003954608,85,4,132,2,10,-1437.6418,184.3598,-446.99118,39.421528,529925.9,731.62897,122.09192,121.846985,127.41904,127.41904,10.25163,1,-5.266064,0,0,4.1884527,4.188454,0,9,255,0,0,0,3,0,36,0
True,7272625,9499.995,1203.1134,7051.369,-0.040614367,-0.25017956,8.740931,0.0012340546,-0.30589774,40.346344,-0.007961139,1.8549325E-05,-0.0034757063,2.7056854,-0.0056421226,-0.005471225,0.33083856,0.31661496,0.54638934,0.5481769,0.18951465,0.20014402,0.2451992,0.24115634,117.43895,117.560005,117.88155,117.847244,0,0,0,0,0,0,0,0,0,0,0,0,-0.020410933,0.020800665,0.0014118545,-0.0012820425,0.19061062,0.201222,0.24520327,0.24115974,-0.008748427,-0.009572059,0.0037181005,0.003821671,85,4,132,2,10,-1435.8673,184.35114,-450.80054,40.347504,539049.94,730.3745,121.62133,121.37468,126.880264,126.880264,10.546105,1,-2.0807998,0,0,4.293781,4.293783,0,9,255,0,0,0,3,0,33,0
True,7272734,9499.995,1203.1134,7206.423,0.045372963,0.4556358,8.579266,0.00664711,-0.31591254,41.274143,-0.021780007,-0.00096355256,-0.013150604,2.7056139,-0.00732425,-0.0063571557,0.4033869,0.39287814,0.5634283,0.54766244,0.18173559,0.18810412,0.23177385,0.22962554,120.0791,120.158264,120.44709,120.43172,0,0,0,0,0,0,0,0,0,0,0,0,-0.020859504,0.021356741,0.0014543468,-0.0017385298,0.18292879,0.18931262,0.23177841,0.22963212,-0.004547447,-0.0051559657,0.004705325,0.003791865,85,4,132,2,10,-1434.0026,184.34567,-454.80405,41.27535,548433.4,727.1263,121.17189,120.9245,126.364334,126.364334,10.852414,1,1.2672782,0,0,4.401966,4.4019685,0,9,255,0,0,0,3,0,30,0
True,7272859,9499.995,1203.1134,7379.09,0.05853486,0.19787231,9.030062,0.010709763,-0.31551585,42.22314,-0.0014640529,-0.0002952304,-0.0056996346,2.7055101,-0.008070208,-0.007407532,0.36374912,0.34440854,0.6249384,0.61801696,0.19857752,0.18531981,0.24491733,0.24605934,123.00498,122.84713,123.35466,123.36229,0,0,0,0,0,0,0,0,0,0,0,0,-0.022807796,0.01911985,0.0018004719,-0.004995352,0.19988303,0.18630353,0.24492395,0.24611004,-0.00684271,-0.007962644,0.008269183,0.007868156,85,4,132,2,10,-1432.0153,184.34703,-459.07114,42.22432,557513.3,721.81494,120.74162,120.49382,125.87308,125.87308,11.191901,1,4.8350663,0,0,4.5146804,4.5146823,0,9,255,0,0,0,3,0,28,0
True,7272953,9499.995,1203.1134,7488.2373,0.14895964,0.15608685,8.763551,0.00774765,-0.32664827,42.85718,4.446204E-05,0.0009894236,0.004974054,2.7055345,-0.008424801,-0.007339782,0.29993367,0.31741628,0.5853238,0.57299083,0.21572128,0.19775788,0.23411746,0.2364746,125.05065,124.83659,125.08267,125.09568,0,0,0,0,0,0,0,0,0,0,0,0,-0.023554051,0.01854812,0.00076323765,-0.003891095,0.21700338,0.19862582,0.2341187,0.23650661,-0.010538004,-0.009525657,0.005973939,0.0052593723,85,4,132,2,10,-1430.6584,184.34935,-461.98407,42.85843,562848.75,718.00745,120.47562,120.22647,125.570526,125.570526,11.421081,1,7.2706704,0,0,4.5901966,4.590198,0,9,255,0,0,0,3,0,25,0
True,7273062,9499.995,1203.1134,7645.8677,-0.07832551,-0.37044042,8.463823,7.6293945E-06,-0.31723335,43.724693,0.005993664,0.0017275354,0.0077650836,2.7056715,-0.0071093026,-0.006597319,0.25546497,0.30354548,0.5036204,0.51962584,0.18968207,0.18350703,0.25658062,0.26092592,127.228195,127.19383,127.879616,127.90706,0,0,0,0,0,0,0,0,0,0,0,0,-0.020917658,0.018904023,-0.00013035523,-0.00086610887,0.19083196,0.18447816,0.25658065,0.26092735,-0.013113007,-0.010328859,0.001240097,0.002167441,85,4,132,2,10,-1428.7423,184.35086,-466.09695,43.725845,569400.8,711.39844,120.13428,119.88399,125.18048,125.18048,11.743154,1,10.709741,0,0,4.6949787,4.6949806,0,9,255,0,0,0,3,0,23,0
True,7273187,9499.995,1203.1134,7826.9824,0.06991172,-0.157081,8.236873,-0.00077438354,-0.34621614,44.766376,0.030656818,0.001565915,0.008023292,2.70586,-0.008021228,-0.006009827,0.37156254,0.38680908,0.60975546,0.61047065,0.25823382,0.22389977,0.23294234,0.23471554,131.07141,130.674,130.58307,130.65141,0,0,0,0,0,0,0,0,0,0,0,0,-0.02372439,0.021381108,0.0031337151,-0.0033760313,0.25932133,0.22491834,0.23296341,0.23473983,-0.006390266,-0.005507402,0.0073894933,0.0074309297,85,4,132,2,10,-1426.3636,184.35284,-471.20386,44.767708,575840.5,702.8633,119.75575,119.50476,124.753296,124.753296,12.105033,1,14.97978,0,0,4.822251,4.8222528,0,9,255,0,0,0,3,0,19,0
True,7273296,9499.995,1203.1134,7989.52,0.05739975,-0.3678022,8.326726,-0.0028705597,-0.3269866,45.77029,-0.017135117,0.00041789975,-0.0044495566,2.7060392,-0.005471617,-0.005194912,0.34623718,0.33555433,0.5385909,0.54964215,0.15618606,0.17986897,0.24193147,0.23543064,132.81512,133.09662,133.65729,133.60033,0,0,0,0,0,0,0,0,0,0,0,0,-0.018715786,0.02085732,0.0020805933,-0.00039228296,0.15730342,0.18107422,0.24194041,0.23543097,-0.007856756,-0.008475356,0.0032662638,0.0039065666,85,4,132,2,10,-1424.0166,184.34612,-476.2453,45.77146,581178.9,694.77875,119.43538,119.17992,124.386826,124.386826,12.480981,1,19.194464,0,0,4.9450865,4.9450884,0,9,255,0,0,0,3,0,16,0
True,7273390,9499.995,1203.1134,8140.383,0.12120724,0.6993637,7.307047,0.010726929,-0.3637024,46.674698,0.00802366,-0.0012486776,-0.013209371,2.7059653,-0.008869089,-0.0067075365,0.42980054,0.38381678,0.6479064,0.6235688,0.22614165,0.20964953,0.2033607,0.20506303,136.31847,136.09254,135.79451,135.81285,0,0,0,0,0,0,0,0,0,0,0,0,-0.023466757,0.021784024,0.0032434284,-0.004669637,0.22735596,0.21077825,0.20338657,0.20511618,-0.0030179396,-0.005680673,0.009599932,0.008189827,85,4,132,2,10,-1421.7996,184.34593,-481.0096,46.676113,584819.25,686.4405,119.158646,118.90372,124.07968,124.07968,12.760776,1,23.177427,0,0,5.058724,5.058726,0,9,255,0,0,0,3,0,12,0
True,7273515,9499.995,1203.1134,8310.317,-0.0198071,-0.9159864,8.407929,0.014228821,-0.33620316,47.52556,0.001286357,-0.0007377444,-0.0048517846,2.7058828,-0.005671906,-0.007450162,0.36311558,0.3495901,0.5909817,0.5778614,0.17748596,0.18867056,0.2660895,0.25779015,138.16704,138.31615,139.051,138.98737,0,0,0,0,0,0,0,0,0,0,0,0,-0.02247189,0.018552883,0.00014797281,-0.004611082,0.17890291,0.18958056,0.26608953,0.2578314,-0.0068793967,-0.007662602,0.006301753,0.005541574,85,4,132,2,10,-1419.6068,184.34476,-485.72284,47.52675,588475.1,676.344,118.92059,118.66327,123.80754,123.80754,13.110385,1,27.117512,0,0,5.1690793,5.1690807,0,9,255,0,0,0,3,0,9,0
True,7273625,9499.995,1203.1134,8425.793,-0.5695324,0.6812547,8.735796,0.014585495,-0.35832134,48.388588,-0.017045569,1.2746805E-05,-0.002162333,2.7058322,-0.007898368,-0.008176226,0.43143693,0.4181159,0.62891203,0.6161753,0.18130387,0.16521262,0.19896856,0.2015255,140.73567,140.51085,140.72308,140.74438,0,0,0,0,0,0,0,0,0,0,0,0,-0.024208019,0.018698452,0.0013711331,-0.0056458125,0.18291289,0.16626738,0.19897328,0.20160456,-0.0029231831,-0.0036945492,0.00849941,0.0077614523,85,4,132,2,10,-1417.3972,184.34169,-490.47168,48.389915,590427.75,669.43994,118.70679,118.44998,123.57103,123.57103,13.370357,1,31.087456,0,0,5.278254,5.2782555,0,9,255,0,0,0,3,0,6,0
True,7273734,9499.995,1203.1134,8583.69,-0.014994144,-0.16848326,7.372592,0.005466461,-0.35305995,49.18581,0.015515152,0.0024216708,0.014133069,2.7059712,-0.0073917513,-0.0073954263,0.37427023,0.40488508,0.6291314,0.62631106,0.20203614,0.1861466,0.22805786,0.23088604,143.28833,143.07294,143.40123,143.41434,0,0,0,0,0,0,0,0,0,0,0,0,-0.024657879,0.01883795,0.0022453065,-0.00524628,0.20353529,0.18709737,0.2280689,0.23094563,-0.006233476,-0.0044606924,0.008512121,0.008348711,85,4,132,2,10,-1415.1902,184.34503,-495.21448,49.187077,591525.9,658.3356,118.5126,118.25546,123.35922,123.35922,13.6649065,1,35.052383,0,0,5.3854523,5.385454,0,9,255,0,0,0,3,0,3,0
True,7273843,9499.995,1203.1134,8698.749,-0.009497404,-0.63042396,7.420952,-0.0050315857,-0.3503687,49.855988,0.010895648,0.0022150446,0.008921864,2.7061882,-0.005912767,-0.0062570805,0.35460323,0.38559562,0.5838693,0.6051808,0.17773898,0.1840199,0.23308271,0.23283437,144.90318,144.98216,145.4082,145.40007,0,0,0,0,0,0,0,0,0,0,0,0,-0.021306118,0.02086486,0.0031002571,-0.0024124745,0.17901143,0.18519898,0.23310333,0.23284687,-0.0073723122,-0.0055776685,0.0058896653,0.007124439,85,4,132,2,10,-1413.3124,184.34274,-499.24966,49.85722,591968.7,650.0804,118.36813,118.10963,123.198105,123.198105,13.91549,1,38.425755,0,0,5.4753094,5.4753118,0,9,255,0,0,0,3,0,0,0
True,7273953,9499.995,1203.1134,8439.681,0.22315478,0.046945736,2.1574583,-0.00079345703,-0.29488668,50.286526,0.03732512,0.0001419517,-0.0135326125,2.706316,-0.005029151,-0.0065930686,0.44615617,0.41028035,0.588945,0.5902036,-0.015934078,-0.01646217,-0.03037759,-0.030520538,143.08401,143.07709,142.34306,142.34041,0,0,0,0,0,0,0,0,0,0,0,0,-0.019358275,0.021559432,0.004223827,-0.0017306936,0.025072647,0.027125858,0.030669833,0.030569568,-0.0020708516,-0.0041482747,0.006183747,0.0062566698,85,4,132,2,10,-1410.724,184.33621,-504.81314,50.28739,-194786.22,-220.20631,118.16756,117.906845,122.961044,122.961044,-1.3921032,1,43.07654,0,0,5.5975,5.597502,0,9,255,0,0,0,3,0,252,0
True,7274046,9499.995,1203.1134,7847.649,0.44990635,1.2475736,-0.5762552,0.0070114136,-0.11794563,50.18249,-0.012736655,4.8891736E-05,0.0008561625,2.7063124,-0.003844701,-0.007352453,0.5745419,0.57514673,0.5722469,0.55342776,0.00075330166,0.0007087891,0.00090337294,0.00093567016,143.0998,143.09901,142.59459,142.5948,0,0,0,0,0,0,0,0,0,0,0,0,-0.021134932,0.018244201,0.0018938382,-0.0037935998,0.021148352,0.018257964,0.0020982625,0.003907285,0.0053634457,0.005398471,0.0052162707,0.0041259006,85,4,132,2,10,-1408.6011,184.33641,-509.37906,50.18263,-166577.86,-202.28436,117.99022,117.731926,122.71437,122.71437,-8.949247,1,46.89156,0,0,5.6977544,5.697757,0,9,255,0,0,0,4,0,249,0
True,7274171,9499.995,1203.1134,6490.606,-0.00058579445,-1.5146858,3.4768977,0.0031776428,-0.13679308,50.536507,0.018228266,0.0011733372,0.0045471773,2.706383,-0.0009740122,-0.0066318,0.45016864,0.46363428,0.54767036,0.55493486,0.11940526,0.12119301,0.1683687,0.16670267,145.85123,145.87715,146.13576,146.09102,0,0,0,0,0,0,0,0,0,0,0,0,-0.02225493,0.019902844,0.0015137926,-0.0030576955,0.12146151,0.1228164,0.16837549,0.16673072,-0.0018385053,-0.0010587648,0.0037923232,0.0042132214,85,4,132,2,10,-1405.8936,184.34172,-515.2032,50.53669,244919.95,360.0687,117.79522,117.538345,122.47568,122.47568,-2.9405756,1,51.75956,0,0,5.8255086,5.825512,0,9,255,0,0,0,4,0,244,0
True,7274265,9499.995,1203.1134,6475.2163,0.014751792,-1.8923103,4.3696012,0.0016822815,-0.24018815,50.94331,0.03513586,0.0007409281,0.0044927094,2.7064443,0.0005618021,-0.006376969,0.44940773,0.47570312,0.5206263,0.53878,0.19825362,0.18759876,0.18960778,0.19162494,148.29851,148.15643,147.83481,147.84088,0,0,0,0,0,0,0,0,0,0,0,0,-0.023965873,0.0221787,0.000576949,-0.002022152,0.19969691,0.18890525,0.18960866,0.19163561,-0.001882568,-0.00035990775,0.0022254065,0.0032772198,85,4,132,2,10,-1403.9513,184.3255,-519.3811,50.943874,462143.56,681.9224,117.67998,117.423004,122.34147,122.34147,5.8665037,1,55.2517,0,0,5.9163275,5.916331,0,9,255,0,0,0,4,0,242,0
True,7274375,9499.995,1203.1134,6581.4575,0.0043525696,-2.863115,5.7546525,-0.0034999847,-0.27356914,51.588726,0.009161468,-0.0027513395,-0.004690227,2.7064567,0.0066231964,-0.006346372,0.3915067,0.404364,0.535237,0.50054395,0.16246992,0.15434365,0.26494196,0.26051426,149.69963,149.57542,150.77283,150.71768,0,0,0,0,0,0,0,0,0,0,0,0,-0.044681747,-0.003839837,0.001409105,0.00017634063,0.16850203,0.15439141,0.26494572,0.26051432,-0.0052353814,-0.0044908673,0.0030719414,0.0010618493,85,4,132,2,10,-1401.5746,184.27484,-524.4939,51.58945,498332.88,722.9945,117.57814,117.321266,122.220184,122.220184,8.999156,1,59.525288,0,0,6.0263267,6.0263295,0,9,255,0,0,0,4,-1,238,0
True,7274484,9499.995,1203.1134,6653.874,-2.2348604,-0.8001494,5.872737,-0.016771317,-0.3448835,52.275234,0.04541342,-0.100404546,-0.009610193,2.701657,0.005981656,-0.0073094945,0.36930057,0.38785243,0.6376534,0.6581783,0.2870952,0.19704948,0.20732749,0.1706663,153.08429,152.27957,151.76405,151.7258,0,0,0,0,0,0,0,0,0,0,0,0,-0.43293455,-0.36385235,-0.014100557,-0.022520091,0.51947665,0.4137838,0.20780644,0.17214571,-0.0065212473,-0.0054469854,0.009005882,0.01019508,85,4,132,2,10,-1399.1248,184.20523,-529.7352,52.27637,509022.66,730.95966,117.51839,117.2568,122.125595,122.125595,9.674003,1,63.906357,0,0,6.1376905,6.137694,0,9,255,0,0,0,4,-95,235,0
True,7274593,9499.995,1203.1134,6771.2964,-3.1977234,-2.716744,6.289402,0.549551,-0.33215958,53.016937,0.050589968,-0.149024,-0.00900102,2.6820247,0.013046596,-0.009000147,0.28413028,0.30075637,0.44716674,0.46052298,0.2534252,0.17997395,0.2826151,0.22343212,154.74518,154.37585,154.8708,154.74393,0,0,0,0,0,0,0,0,0,0,0,0,-0.07870222,-0.03358664,-0.12744097,-0.12064542,0.26536462,0.18308109,0.31002015,0.25392368,-0.011453114,-0.010490365,-0.0020307899,-0.001256939,85,4,132,2,10,-1396.3214,184.10081,-535.6088,53.02083,519797.72,733.21155,117.54237,117.265076,122.043274,122.043274,10.03609,1,68.84085,0,0,6.2613482,6.2613516,0,9,255,0,0,0,4,0,232,0
True,7274718,9499.995,1203.1134,6819.407,-4.3882713,-1.5144436,6.500106,0.67915154,-0.33373463,53.66647,-0.011061891,-0.07785854,-0.015925046,2.6708972,0.015661618,-0.010574634,0.24205105,0.3032919,0.44512555,0.48460126,0.15767695,0.116212904,0.22906668,0.18552168,155.47311,155.24759,156.15366,155.9422,0,0,0,0,0,0,0,0,0,0,0,0,-0.1125358,-0.070477545,-0.13143478,-0.12201185,0.19371714,0.13591366,0.2640959,0.2220477,-0.013889752,-0.010343544,-0.0021490566,0.00013814121,85,4,132,2,10,-1393.9705,183.98666,-540.43243,53.671806,523978.72,733.8155,117.50156,117.21691,121.99771,121.99771,10.179921,1,72.91007,0,0,6.361948,6.3619514,0,9,255,0,0,0,4,0,231,0
True,7274812,9499.995,1203.1134,6918.593,-4.302047,-0.7598001,6.092432,0.43455315,-0.3630085,54.280544,0.07265774,-0.00074854575,0.007432254,2.6669114,0.01563781,-0.011174747,0.2996142,0.38805908,0.5020966,0.5749565,0.3048611,0.22413501,0.2067336,0.19140886,159.49455,158.33646,157.78186,157.63196,0,0,0,0,0,0,0,0,0,0,0,0,-0.10219873,-0.053851116,-0.07170268,-0.07225647,0.32153517,0.23051344,0.21881512,0.20459314,-0.010556504,-0.0054350197,0.0011518076,0.005373262,85,4,132,2,10,-1391.5092,183.86792,-545.36237,54.283493,530417.75,732.5372,117.45654,117.169304,121.95575,121.95575,10.313621,1,77.08875,0,0,6.4640207,6.4640245,0,9,255,0,0,0,4,0,231,0
True,7274921,9499.995,1203.1134,6988.467,-2.1886764,-2.1072352,6.537792,0.21053123,-0.34169853,54.960373,-0.005968567,0.006784535,0.0018396103,2.667511,0.021226449,-0.010484583,0.25934878,0.31966898,0.4250637,0.47455424,0.14821148,0.13950256,0.22027399,0.21197252,159.27896,159.12453,159.97452,159.8681,0,0,0,0,0,0,0,0,0,0,0,0,-0.055319972,-0.016305408,-0.034947537,-0.031699415,0.15819906,0.14045224,0.22302905,0.21432966,-0.012888111,-0.009395212,-0.0033114254,-0.00044397637,85,4,132,2,10,-1388.9,183.71962,-550.51544,54.96183,536214.9,732.67584,117.43031,117.13386,121.91412,121.91412,10.53222,1,81.46763,0,0,6.569816,6.56982,0,9,255,0,0,0,4,0,233,0
True,7275031,9499.995,1203.1134,7046.3047,-0.84501386,0.73847836,6.0491676,0.052171707,-0.36001122,55.65583,-0.031519555,0.010462822,0.0048240414,2.6685417,0.018523443,-0.010293543,0.40606895,0.42729464,0.5713925,0.59332293,0.118746385,0.11195954,0.15856668,0.16026337,160.86925,160.71777,161.12206,161.10913,0,0,0,0,0,0,0,0,0,0,0,0,-0.031215755,0.00868331,-0.0041533103,-0.0090952115,0.122780815,0.11229576,0.15862106,0.16052125,-0.0043921396,-0.0031630471,0.0051667653,0.006437402,85,4,132,2,10,-1386.1681,183.56052,-555.8738,55.657024,539733.1,731.67017,117.39659,117.09921,121.884125,121.884125,10.632836,1,86.0291,0,0,6.6785703,6.6785736,0,9,255,0,0,0,4,0,234,0
True,7275140,9499.995,1203.1134,7170.02,-0.1405263,-0.572481,5.839687,-0.013181686,-0.35911453,56.281647,0.06556575,0.009051714,0.013240792,2.6696012,0.019349316,-0.008844255,0.32335827,0.37404183,0.58884454,0.6142176,0.1999261,0.2280977,0.21707708,0.21429928,163.77673,164.20857,163.80164,163.73264,0,0,0,0,0,0,0,0,0,0,0,0,-0.023226572,0.02175662,0.0058048726,-0.00083836296,0.20127076,0.22913297,0.21715467,0.21430092,-0.009181581,-0.006246701,0.0061779283,0.0076480247,85,4,132,2,10,-1383.4539,183.41425,-561.1869,56.28279,546600.4,728.4214,117.35425,117.058334,121.86359,121.86359,10.813064,1,90.553665,0,0,6.7851744,6.785178,0,9,255,0,0,0,4,0,236,0
True,7275265,9499.995,1203.1134,7223.4546,0.19844818,0.028774194,6.4064713,-0.025043488,-0.36746943,57.070038,-0.04373793,0.0037384108,-0.0017441027,2.67033,0.02052995,-0.008640896,0.40858865,0.4004242,0.50938785,0.5046591,0.11522364,0.11335573,0.15398309,0.15644325,164.90297,164.85443,165.14725,165.14487,0,0,0,0,0,0,0,0,0,0,0,0,-0.016563896,0.022667207,0.0051099197,0.004219461,0.11640812,0.11559985,0.15406784,0.15650015,-0.004246235,-0.004719004,0.0015742593,0.001300279,85,4,132,2,10,-1380.3044,183.22353,-567.3551,57.071224,550738.25,728.1866,117.333176,117.03923,121.84657,121.84657,11.015159,1,95.80633,0,0,6.9074135,6.907417,0,9,255,0,0,0,4,0,238,0
True,7275375,9499.995,1203.1134,7308.503,0.24706244,1.1644832,6.0619497,-0.011350632,-0.37185097,57.70095,-0.0094728805,0.0007419118,-0.0003015895,2.6705675,0.017660413,-0.008543642,0.4193672,0.42216495,0.6146617,0.618461,0.12642185,0.13210277,0.16241693,0.1616213,166.85068,166.93733,167.05977,167.05135,0,0,0,0,0,0,0,0,0,0,0,0,-0.019070696,0.022589197,0.0054024993,-0.001781558,0.12785216,0.13402021,0.16250676,0.16163112,-0.0036220923,-0.0034600869,0.0076737553,0.007893886,85,4,132,2,10,-1377.5852,183.07256,-572.68896,57.70215,554937.06,725.2982,117.30994,117.01706,121.84488,121.84488,11.145608,1,100.346695,0,0,7.0117574,7.0117607,0,9,255,0,0,0,4,0,240,0
True,7275468,9499.995,1203.1134,7398.061,0.1411674,0.17598405,6.0328097,0.0014438629,-0.37021303,58.32935,0.005434893,-5.1593233E-05,-0.0018278612,2.6705894,0.01757484,-0.008777516,0.39261273,0.38432965,0.5988689,0.59378296,0.1395542,0.14092225,0.17999043,0.17832793,168.85712,168.88196,169.14236,169.1285,0,0,0,0,0,0,0,0,0,0,0,0,-0.020899301,0.02081156,0.0029610554,-0.002947406,0.14111045,0.14245069,0.18001479,0.17835228,-0.0051713362,-0.005650975,0.006758731,0.0064640567,85,4,132,2,10,-1374.8246,182.92737,-578.1083,58.330524,559397.44,722.2697,117.28825,116.99614,121.84183,121.84183,11.3206,1,104.95896,0,0,7.1166053,7.1166086,0,9,255,0,0,0,4,0,242,0
True,7275578,9499.995,1203.1134,7515.563,0.025595427,-1.3799181,5.728468,0.008829117,-0.3782395,58.917824,0.0795992,0.00027813966,0.0008045919,2.670562,0.02001169,-0.00892002,0.39778373,0.38057786,0.5847975,0.5854566,0.26356655,0.24743101,0.21566358,0.21836044,172.45166,172.23515,171.43858,171.45857,0,0,0,0,0,0,0,0,0,0,0,0,-0.025235914,0.021969117,0.0015244925,-0.004179537,0.26477194,0.2484044,0.21566898,0.21840043,-0.004871905,-0.0058682263,0.0059434436,0.0059816316,85,4,132,2,10,-1372.0867,182.77887,-583.4851,58.91904,564249.7,717.39685,117.26583,116.974915,121.84482,121.84482,11.510793,1,109.530624,0,0,7.2195306,7.2195334,0,9,255,0,0,0,4,0,243,0
True,7275687,9499.995,1203.1134,7601.823,-0.014386892,-3.4360094,6.1479316,0.008062363,-0.37272477,59.541485,0.037804455,0.0012865218,0.012111604,2.6705835,0.027222823,-0.008388691,0.288528,0.31095734,0.4959146,0.5022967,0.21921375,0.20450458,0.24613169,0.25451338,173.68623,173.43341,173.7538,173.79704,0,0,0,0,0,0,0,0,0,0,0,0,-0.023888849,0.018972393,-0.0016161868,-0.0020187274,0.22051156,0.20538275,0.246137,0.2545214,-0.011198461,-0.009899668,0.0007936284,0.0011634007,85,4,132,2,10,-1369.3102,182.59276,-588.9384,59.54265,568751.56,714.4103,117.265305,116.97308,121.85504,121.85504,11.762042,1,114.17198,0,0,7.3229117,7.322914,0,9,255,0,0,0,4,0,245,0
True,7275812,9499.995,1203.1134,7769.719,-0.0013532639,-4.9381876,5.5876718,-0.0010662079,-0.37463045,60.22101,0.08444694,0.0019645612,0.0072092153,2.6707265,0.03683334,-0.0070511573,0.1581328,0.17614052,0.37721634,0.39125854,0.27677616,0.29921806,0.38623512,0.3732032,176.55264,176.93462,178.05067,177.78859,0,0,0,0,0,0,0,0,0,0,0,0,-0.021666909,0.020396413,-0.0038279747,0.003372183,0.27762294,0.29991242,0.38625407,0.37321842,-0.018749118,-0.017706364,-0.006083671,-0.005270075,85,4,132,2,10,-1365.9952,182.31657,-595.44934,60.222168,558963.5,687.0447,117.266495,116.972565,121.87001,121.87001,12.0192995,1,119.715096,0,0,7.444983,7.4449854,0,9,255,0,0,0,4,0,247,0
True,7275921,9499.995,1203.1134,7767.1426,0.61544895,-3.6296928,6.4285984,0.03671074,-0.41470408,60.910835,0.04292577,0.022455756,-0.006333906,2.6711013,0.04225327,-0.0076682535,0.20683904,0.15072301,0.40958372,0.38525736,0.19470121,0.2373629,0.22785105,0.23278318,177.25346,177.83542,177.51085,177.40018,0,0,0,0,0,0,0,0,0,0,0,0,0.18596052,0.23387417,-0.003350714,0.0032768506,0.26923943,0.33322406,0.22787568,0.23280624,-0.015928738,-0.01917819,-0.0042083263,-0.0056177787,85,4,132,2,10,-1363.1544,182.02553,-601.03125,60.91226,575222.5,707.36786,117.27801,116.98862,121.90016,121.90016,12.135884,1,124.468506,0,0,7.5484805,7.5484824,0,9,255,0,0,0,4,46,248,0
True,7276015,9499.995,1203.1134,7835.0728,4.881591,-1.9905351,5.9539866,-0.13825226,-0.40343666,61.552612,0.017276617,0.21786979,0.026307713,2.683212,0.045868218,-0.005505095,0.2788485,0.23742148,0.4611556,0.41204602,0.15190037,0.2872526,0.17158191,0.2331209,178.7708,179.98819,178.81584,178.93307,0,0,0,0,0,0,0,0,0,0,0,0,0.45096117,0.5456518,0.053378895,0.060919624,0.4758568,0.6166441,0.17969324,0.24094927,-0.011758961,-0.014157832,-0.0012202859,-0.0040656626,85,4,132,2,10,-1360.1857,181.68747,-606.93445,61.55409,577243.9,703.665,117.37711,117.09092,121.9276,121.9276,12.248902,1,129.48003,0,0,7.6565137,7.656515,0,9,255,0,0,0,4,40,249,0
True,7276125,9499.995,1203.1134,7913.653,4.7235656,-1.9837084,6.0169787,-0.9098606,-0.38759232,62.167763,0.03343293,0.14532296,0.012630979,2.7033334,0.049380567,-0.0038208435,0.28789803,0.2168416,0.46783173,0.41026834,0.15052691,0.20595539,0.19031008,0.24916865,180.49011,180.75441,180.77753,181.08382,0,0,0,0,0,0,0,0,0,0,0,0,0.07819931,0.12348297,0.14954342,0.16223729,0.16962749,0.24013676,0.24203545,0.2973314,-0.011234939,-0.01534953,-0.0008334741,-0.0041686594,85,4,132,2,10,-1357.3611,181.34227,-612.68225,62.17562,579441.7,699.37775,117.40716,117.12747,121.967026,121.967026,12.382749,1,134.34268,0,0,7.7601686,7.76017,0,9,255,0,0,0,4,0,249,0
True,7276234,9499.995,1203.1134,7980.333,5.6217833,-1.7025424,6.12739,-0.93338394,-0.38015223,62.81338,0.0036642249,0.06274537,0.014461992,2.7138093,0.0524345,-0.0016825857,0.3125788,0.24938932,0.47702682,0.41043743,0.11637195,0.15981363,0.18499856,0.23059201,181.61098,182.02675,182.43648,182.78056,0,0,0,0,0,0,0,0,0,0,0,0,0.09496905,0.13890356,0.1363948,0.14900714,0.15020503,0.2117418,0.22984344,0.27454656,-0.009805776,-0.013464823,-0.0003007166,-0.004158862,85,4,132,2,10,-1354.4751,180.96017,-618.6912,62.821465,581616.8,696.02985,117.41835,117.143524,122.02783,122.02783,12.539025,1,139.40468,0,0,7.8669953,7.866997,0,9,255,0,0,0,4,0,247,0
True,7276359,9499.995,1203.1134,8014.504,5.940056,2.3458192,6.1640825,-0.4983921,-0.39646053,63.47384,-0.024923436,-0.0013480672,-0.041357335,2.717431,0.0474152,-0.0015760724,0.54485565,0.39759728,0.665196,0.582492,0.113687776,0.13416182,0.1059003,0.12419314,183.37701,183.68024,182.94131,182.96156,0,0,0,0,0,0,0,0,0,0,0,0,0.052629244,0.09656846,0.067019776,0.064931735,0.12527868,0.16530232,0.12532568,0.14014302,0.0036444366,-0.0048827007,0.010601681,0.005809866,85,4,132,2,10,-1351.6196,180.5783,-624.8045,63.47704,582783.4,694.58105,117.4559,117.171524,122.098816,122.098816,12.629199,1,144.52771,0,0,7.9739895,7.9739914,0,9,255,0,0,0,4,0,243,0
True,7276453,9499.995,1203.1134,8112.486,3.0661829,0.22538808,5.689001,-0.18515778,-0.33036757,63.980293,-0.027567966,-0.018448541,-0.008672513,2.7159474,0.048748888,-0.0034499057,0.379272,0.30321595,0.5916671,0.5171453,0.106202245,0.1189888,0.19063443,0.18665588,184.65062,184.95319,185.7041,185.58711,0,0,0,0,0,0,0,0,0,0,0,0,0.010643799,0.048329208,0.025919896,0.022006739,0.10673428,0.12842914,0.19238847,0.18794869,-0.005943842,-0.01034794,0.006341465,0.0020237193,85,4,132,2,10,-1349.2316,180.27094,-630.0132,63.98141,584954.7,688.52814,117.45146,117.174255,122.13113,122.13113,12.782493,1,148.87634,0,0,8.064032,8.0640335,0,9,255,0,0,0,4,0,238,0
True,7276578,9499.995,1203.1134,8191.13,-4.640319,4.4021063,5.4203634,0.10292816,-0.21904612,64.695656,0.016770175,-0.23299699,-0.046780508,2.7025206,0.04115869,-0.008852866,0.4882452,0.4812351,0.68331,0.66080314,0.20051253,0.10139343,0.18604618,0.12242283,187.57657,186.93535,187.13539,187.13054,0,0,0,0,0,0,0,0,0,0,0,0,-0.54287654,-0.43842322,-0.045805007,-0.05509218,0.5787229,0.44999504,0.19160187,0.1342479,0.0003663525,-3.957376E-05,0.011651192,0.010347161,85,4,132,2,10,-1345.7815,179.86504,-637.50696,64.6961,586651.44,684.42676,117.54642,117.274475,122.18184,122.18184,12.924844,1,155.13618,0,0,8.192351,8.192353,0,9,255,0,0,0,4,-127,232,0
True,7276671,9499.995,1203.1134,8263.913,-7.522816,1.4477191,5.7221932,1.2302437,-0.31411767,65.25152,-0.057244428,-0.25086153,-0.028497282,2.6712475,0.03817042,-0.013063282,0.38072467,0.46822485,0.53132856,0.605073,0.12365499,0.08481396,0.20695576,0.13186727,188.0913,188.58392,189.04083,189.09961,0,0,0,0,0,0,0,0,0,0,0,0,-0.1295408,-0.086315,-0.21003066,-0.19369386,0.17908482,0.1210111,0.29486194,0.23432092,-0.005859725,-0.00079294294,0.0028454885,0.0071181916,85,4,132,2,10,-1342.818,179.55994,-643.72125,65.26386,588645.6,680.31104,117.665924,117.41623,122.21094,122.21094,13.119382,1,160.36601,0,0,8.298424,8.298425,0,9,255,0,0,0,4,0,230,0
True,7276781,9499.995,1203.1134,8290.444,-12.342404,9.1783085,5.8211236,0.9957142,-0.17084098,65.83598,-0.12781823,-0.06472316,0.014606014,2.6543572,0.025149338,-0.014659839,0.6729781,0.72758263,0.66978043,0.71155196,0.08001459,0.05403781,0.10386761,0.07958042,189.50035,189.3575,189.51996,189.37566,0,0,0,0,0,0,0,0,0,0,0,0,-0.13531932,-0.086868435,-0.12612738,-0.1275078,0.15720578,0.102304496,0.16339093,0.15030396,0.011063486,0.014225416,0.010867298,0.013287514,85,4,132,2,10,-1339.7197,179.30103,-649.9489,65.843735,589470.44,679.1848,117.742096,117.539764,122.301056,122.301056,13.2036085,1,165.64354,0,0,8.404589,8.404591,0,9,255,0,0,0,4,0,230,0
True,7276890,9499.995,1203.1134,8371.948,-7.8569922,6.2895923,5.322863,0.4841118,-0.20158112,66.283485,-0.086807765,0.007420163,0.008796634,2.6529841,0.017115839,-0.01290047,0.59568053,0.6621684,0.6149615,0.65755993,0.09499803,0.09031115,0.13629138,0.12892804,191.17366,191.06747,191.43456,191.34688,0,0,0,0,0,0,0,0,0,0,0,0,-0.08493873,-0.045225926,-0.05827994,-0.06575705,0.12743317,0.10100242,0.1482292,0.14472881,0.006587498,0.010437541,0.0076911263,0.01015925,85,4,132,2,10,-1337.05,179.1664,-655.1062,66.28556,590238.7,673.4501,117.77347,117.587494,122.351166,122.351166,13.31453,1,170.04692,0,0,8.492508,8.492511,0,9,255,0,0,0,4,0,232,0
True,7277000,9499.995,1203.1134,8423.474,-2.4280896,7.3851337,5.613752,0.09437561,-0.2357915,66.905525,-0.10859653,0.017399246,-0.01303032,2.6549654,0.00569584,-0.013279127,0.68881714,0.68950635,0.70022076,0.7119906,0.06753421,0.06227377,0.093554854,0.09419493,192.50473,192.33841,192.50934,192.51031,0,0,0,0,0,0,0,0,0,0,0,0,-0.032113537,0.0042599137,-0.0017745435,-0.013734844,0.074780665,0.062419303,0.093571685,0.09519102,0.011980664,0.012020573,0.012630992,0.013312928,85,4,132,2,10,-1333.4426,179.045,-661.97076,66.906,591401.7,670.51965,117.81622,117.61948,122.39405,122.39405,13.460311,1,175.93497,0,0,8.608953,8.608956,0,9,255,0,0,0,4,0,237,0
True,7277109,9499.995,1203.1134,8487.967,-0.6822293,9.580411,5.2646866,-0.02026558,-0.21107371,67.395584,-0.10868594,0.011543125,0.032708462,2.6565902,-0.008951902,-0.011793818,0.7175564,0.7367189,0.71929157,0.73045933,0.08223817,0.076507494,0.09000673,0.09374632,194.15143,194.01099,193.8886,193.90323,0,0,0,0,0,0,0,0,0,0,0,0,-0.022101277,0.018814942,0.008504372,-0.0041979193,0.085156225,0.07878705,0.09040761,0.093840264,0.013644837,0.014754459,0.013735943,0.014382996,85,4,132,2,10,-1330.3395,179.03685,-667.85315,67.39592,591871.44,666.0021,117.85732,117.67723,122.471634,122.471634,13.574004,1,180.97604,0,0,8.707984,8.707987,0,9,255,0,0,0,4,0,241,0
True,7277218,9499.995,1203.1134,8555.673,0.8083527,7.2904806,4.8028283,-0.08696747,-0.21384716,67.93459,-0.20215157,0.03200974,0.028256629,2.6595833,-0.019696504,-0.007885838,0.70839244,0.71867853,0.6779219,0.69901496,0.060016036,0.06265613,0.09057824,0.094052404,195.49702,195.3987,195.58116,195.47502,0,0,0,0,0,0,0,0,0,0,0,0,-0.014274081,0.020399835,0.018037967,0.007286908,0.061690144,0.06589343,0.092356846,0.09433427,0.013114188,0.013709813,0.011339009,0.012561128,85,4,132,2,10,-1326.8387,179.11436,-674.5071,67.93498,592544.5,661.3914,117.90294,117.73183,122.52929,122.52929,13.729579,1,186.67522,0,0,8.819102,8.819105,0,9,255,0,0,0,4,0,246,0
True,7277328,9499.995,1203.1134,8677.011,1.0388397,2.815638,4.6258817,-0.10128021,-0.1852271,68.4485,-0.012727977,0.0074682743,0.00024170149,2.6614745,-0.026025634,-0.007724882,0.53929985,0.5922468,0.68480885,0.68238896,0.09969019,0.09426292,0.19152685,0.19941798,197.3356,197.30203,198.63704,198.81459,0,0,0,0,0,0,0,0,0,0,0,0,-0.007080368,0.029682511,0.02050562,0.008318047,0.099941306,0.09882586,0.19262142,0.19959138,0.0033227205,0.0063886642,0.011738036,0.011597827,85,4,132,2,10,-1323.1279,179.29297,-681.59424,68.44882,592316.4,652.04736,117.91208,117.73753,122.60095,122.60095,13.909223,1,192.74922,0,0,8.93643,8.936434,0,9,255,0,0,0,4,0,250,0
True,7277453,9499.995,1203.1134,8734.796,0.52288246,8.212635,4.369939,-0.051940918,-0.20056319,68.969315,0.057616077,7.3554926E-05,0.030799458,2.662117,-0.0438398,-0.0054672924,0.5780809,0.60856164,0.73739964,0.7671697,0.16571294,0.2680719,0.13148776,0.12572803,199.95241,201.86469,198.98767,198.96535,0,0,0,0,0,0,0,0,0,0,0,0,-0.017870178,0.030395206,0.011945594,-0.003320742,0.16667369,0.26978958,0.13202927,0.12577188,0.005568374,0.0073333904,0.014785111,0.016509969,85,4,132,2,10,-1319.4015,179.55838,-688.7378,68.96963,592603,648.0638,117.96896,117.808105,122.724365,122.724365,14.033656,1,198.86015,0,0,9.053709,9.053713,0,9,255,0,0,0,4,0,254,0
True,7277546,9499.995,1203.1134,8305.273,1.9494845,4.7769766,-0.6744788,-0.09038925,-0.18792605,68.8828,-0.14678499,0.0585785,-0.03818773,2.6660714,-0.04771826,-0.005964406,0.7015679,0.67910236,0.6570131,0.6550571,0.0006801187,0.00035138492,0.00074188155,0.0004058025,196.71536,196.42926,196.02324,195.73074,0,0,0,0,0,0,0,0,0,0,0,0,-0.014837256,0.017241292,0.024335325,0.014823337,0.014852835,0.017244872,0.024346631,0.014828891,0.012719005,0.011418119,0.0101275705,0.010014236,85,4,132,2,10,-1315.8967,179.86603,-695.4933,68.88311,-188400.64,-216.19363,118.01568,117.84267,122.696785,122.696785,-5.0450125,1,204.64076,0,0,9.164118,9.164122,0,9,255,0,0,0,4,0,2,0
True,7277671,9499.995,1203.1134,7671.6846,1.5969063,4.983477,-1.6286695,-0.1859169,-0.10388422,68.68516,-0.06852146,0.023129856,0.011640433,2.6700404,-0.05565994,-0.006968713,0.6935559,0.70783,0.67293125,0.671265,0.00097560015,0.0007596538,0.0014545331,0.0014684526,195.97974,195.86333,195.29425,195.18277,0,0,0,0,0,0,0,0,0,0,0,0,-0.0013760735,0.03546828,0.03199714,0.020719504,0.0016868236,0.035476413,0.032030184,0.020771476,0.012255065,0.013081621,0.0110498555,0.010953315,85,4,132,2,10,-1312.5726,180.23715,-701.94916,68.685486,-157114.73,-195.20271,118.01024,117.85359,122.712494,122.712494,-9.823663,1,210.15279,0,0,9.269829,9.269831,0,9,255,0,0,0,5,0,5,0
True,7277765,9499.995,1203.1134,6524.5044,1.2901247,3.1458378,1.2143612,-0.11969185,-0.18180871,68.80061,0.0014807051,0.0025200336,0.033741854,2.671302,-0.062400557,-0.005178579,0.6517449,0.6803368,0.6977474,0.6987531,0.05893567,0.05030639,0.0739727,0.07828607,197.39554,197.25937,197.16933,197.14725,0,0,0,0,0,0,0,0,0,0,0,0,-0.0081406785,0.033811923,0.020012889,0.0073531815,0.05949524,0.060613357,0.07663208,0.07863064,0.009833958,0.0114896,0.012487687,0.012545958,85,4,132,2,10,-1309.1631,180.67177,-708.6118,68.800964,248975.14,364.349,118.00099,117.85443,122.73222,122.73222,-2.907546,1,215.83643,0,0,9.378947,9.378949,0,9,255,0,0,0,5,0,7,0
True,7277875,9499.995,1203.1134,6485.304,0.63123715,1.1921865,2.1983159,-0.05765915,-0.21547723,69.032646,-0.04644705,-0.002548063,0.0110864835,2.6712492,-0.064043306,-0.0028404011,0.6262011,0.6499766,0.6591566,0.67495024,0.07561391,0.07802301,0.11751229,0.11485897,198.60281,198.65477,198.80536,198.81836,0,0,0,0,0,0,0,0,0,0,0,0,-0.012419157,0.026919132,0.011653327,0.0004168091,0.07662701,0.082536235,0.11808869,0.11485973,0.00835482,0.009731565,0.0102517605,0.011166833,85,4,132,2,10,-1305.842,181.1119,-715.12445,69.033005,470670.25,693.0466,117.99489,117.84504,122.720604,122.720604,6.6988688,1,221.39081,0,0,9.485248,9.4852495,0,9,255,0,0,0,5,0,9,0
True,7277984,9499.995,1203.1134,6541.134,0.71659803,-0.07585854,3.3169792,0.010438919,-0.1975317,69.352844,0.04389774,0.0237031,0.005439153,2.6715982,-0.06483532,-0.0025174457,0.658098,0.659761,0.6780333,0.68413955,0.12032697,0.13331226,0.15249932,0.1631862,200.31291,200.4444,200.46388,200.54527,0,0,0,0,0,0,0,0,0,0,0,0,0.099611305,0.14670545,0.008650802,-0.004051247,0.15620817,0.19822878,0.15274449,0.16323648,0.010201842,0.01029814,0.011345465,0.011699256,85,4,132,2,10,-1302.4949,181.57281,-721.702,69.353134,495952.34,724.2376,117.99069,117.84119,122.741905,122.741905,9.053235,1,226.99692,0,0,9.592105,9.592107,0,9,255,0,0,0,5,24,11,0
True,7278093,9499.995,1203.1134,6613.0903,1.7391852,-2.933179,2.8928452,-0.26901054,-0.22954345,69.67027,0.053420104,0.08585764,-0.0025002295,2.6790855,-0.060423292,-0.0023551793,0.53410393,0.5198745,0.6398683,0.6381372,0.17612721,0.19968055,0.21267395,0.23927315,202.46072,202.4686,202.72295,202.809,0,0,0,0,0,0,0,0,0,0,0,0,-0.004488754,0.040462263,0.054328524,0.044716686,0.1761844,0.20373884,0.21950352,0.24341574,0.0030218475,0.0021978803,0.009134211,0.009033911,85,4,132,2,10,-1299.2032,182.01132,-728.2182,69.671165,506066.75,730.9074,118.00293,117.86162,122.74509,122.74509,9.618817,1,232.54175,0,0,9.697306,9.697307,0,9,255,0,0,0,5,0,12,0
True,7278218,9499.995,1203.1134,6654.67,2.465679,-2.844344,3.0690494,-0.51630783,-0.39632154,70.060684,0.098565824,0.028813353,0.01137447,2.6866312,-0.058189515,-0.0011770503,0.26756108,0.29990846,0.49101707,0.50647235,0.2769825,0.34259516,0.1702808,0.18116044,205.38548,206.43773,202.97263,203.05956,0,0,0,0,0,0,0,0,0,0,0,0,0.043002438,0.09151262,0.06921475,0.06894365,0.28030074,0.35460684,0.18381032,0.19383584,-0.01241257,-0.010539465,0.0005098693,0.001405336,85,4,132,2,10,-1295.5115,182.46509,-735.5867,70.063705,510102.78,732.62384,117.99298,117.85889,122.77315,122.77315,9.793962,1,238.7955,0,0,9.815399,9.815399,0,9,255,0,0,0,5,0,13,0
True,7278312,9499.995,1203.1134,6704.2437,1.7032055,-5.527577,3.7421074,-0.5258198,-0.40687037,70.396515,0.05238054,0.015317214,0.008082638,2.6888285,-0.049194254,-0.0015705622,0.3094908,0.32150456,0.46123004,0.4646902,0.25404724,0.23977949,0.23690516,0.26501614,206.04121,205.45532,205.35484,205.30222,0,0,0,0,0,0,0,0,0,0,0,0,0.04598018,0.087948255,0.06659082,0.07113526,0.25817472,0.25539988,0.24608615,0.2743971,-0.00998459,-0.009288922,-0.001215972,-0.0010154918,85,4,132,2,10,-1292.4005,182.7959,-741.84344,70.39965,515939.6,734.3891,118.004684,117.88307,122.79912,122.79912,10.022225,1,244.09932,0,0,9.915061,9.91506,0,9,255,0,0,0,5,0,13,0
True,7278437,9499.995,1203.1134,6755.233,1.5598216,-5.2956815,3.4024355,-0.34038353,-0.3920095,70.805725,0.08290149,-0.005584571,0.011429533,2.6890574,-0.04083406,-0.001298426,0.2962488,0.25998348,0.4964729,0.5058737,0.31079754,0.1985046,0.2593199,0.2883698,208.16748,206.0488,206.6271,207.34648,0,0,0,0,0,0,0,0,0,0,0,0,0.024793249,0.06704253,0.04219457,0.043993544,0.3117849,0.20952035,0.26273027,0.29170632,-0.0107513815,-0.012851357,0.0008259751,0.0013706498,85,4,132,2,10,-1288.7404,183.12448,-749.2579,70.80763,518917.97,733.7072,117.99161,117.88417,122.824646,122.824646,10.043832,1,250.36972,0,0,10.032233,10.032232,0,9,255,0,0,0,5,0,13,0
True,7278531,9499.995,1203.1134,6696.4385,1.2881261,-1.2120329,4.148021,-0.15863991,-0.41582012,71.255875,-0.031485353,-0.0076034167,0.0043760194,2.6884234,-0.03955313,4.5209188E-05,0.36891755,0.37176841,0.48816425,0.49599382,0.09127057,0.09166035,0.10795889,0.1184816,205.29288,205.32555,204.87462,205.49242,0,0,0,0,0,0,0,0,0,0,0,0,0.0012229675,0.040707864,0.017516911,0.017325917,0.09127876,0.10029332,0.10937076,0.11974171,-0.0065434277,-0.006378345,0.00034457818,0.00079821795,85,4,132,2,10,-1285.479,183.37227,-755.901,71.25727,515335,734.93146,118.011406,117.89688,122.84953,122.84953,10.031524,1,255.98375,0,0,10.136458,10.136457,0,9,255,0,0,0,5,0,12,0
True,7278640,9499.995,1203.1134,6740.434,0.563278,-0.14964691,3.5982952,-0.025348663,-0.42382908,71.61228,-0.02614094,-0.010779236,-0.0040923245,2.6873634,-0.039847255,-0.000109974266,0.44010317,0.3953658,0.47463682,0.45901883,0.089871705,0.092001565,0.1343245,0.14194907,206.2898,206.36761,206.61815,206.7556,0,0,0,0,0,0,0,0,0,0,0,0,-0.014339039,0.024884973,0.0011837364,0.0027974274,0.09100841,0.095307656,0.13432972,0.14197662,-0.0024213567,-0.005011916,-0.0004391931,-0.0013440885,85,4,132,2,10,-1282.2296,183.62332,-762.54486,71.61353,518163.22,734.1715,118.00746,117.88884,122.86546,122.86546,10.0528,1,261.5943,0,0,10.240047,10.240047,0,9,255,0,0,0,5,0,11,0
True,7278765,9499.995,1203.1134,6758.2236,0.06349397,1.9076586,3.5636978,0.039361954,-0.33596373,72.003235,-0.011376128,-0.005914144,-0.018388877,2.6864154,-0.041804776,-0.0017766964,0.6805861,0.6382448,0.7036928,0.701967,0.08328345,0.081129886,0.10010812,0.09976548,207.25386,207.24393,207.05748,207.05307,0,0,0,0,0,0,0,0,0,0,0,0,-0.024067864,0.018160058,0.0017045997,-0.010398455,0.08669137,0.08313751,0.10012263,0.10030592,0.011504035,0.009052224,0.012832157,0.012732167,85,4,132,2,10,-1278.8129,183.89789,-769.5368,72.004036,519666.3,734.321,118.013405,117.895355,122.88794,122.88794,10.097306,1,267.49866,0,0,10.348479,10.348479,0,9,255,0,0,0,5,0,10,0
True,7278859,9499.995,1203.1134,6800.947,-0.12149167,1.6288291,3.3853521,0.03873825,-0.21006608,72.37854,-0.02516149,-0.0009881543,0.006772992,2.6860745,-0.042650986,-0.0029539433,0.663047,0.6551301,0.6707187,0.6667867,0.09691609,0.11418746,0.10795057,0.09929936,208.6448,209.04155,208.24663,208.21393,0,0,0,0,0,0,0,0,0,0,0,0,-0.02625813,0.0173598,0.0009577284,-0.010239724,0.100410245,0.11549951,0.107954815,0.09982592,0.010488417,0.010029983,0.010921665,0.010693841,85,4,132,2,10,-1275.2981,184.20706,-776.72424,72.37885,522912.3,734.28625,118.01738,117.90665,122.91229,122.91229,10.173015,1,273.5691,0,0,10.459387,10.459387,0,9,255,0,0,0,5,0,9,0
True,7278984,9499.995,1203.1134,6889.629,-0.10213828,-3.068296,3.270844,0.029743195,-0.30476248,72.71272,-0.005740372,-0.0007035757,-0.025904201,2.686066,-0.038905565,-0.0050254604,0.54504037,0.46557048,0.64057624,0.60930574,0.13955535,0.12791692,0.21618986,0.23027703,210.48958,210.25943,211.26334,211.75148,0,0,0,0,0,0,0,0,0,0,0,0,-0.022816326,0.017836783,0.0025307504,-0.006024149,0.1414082,0.12915452,0.21620467,0.23035581,0.003655132,-0.0009466484,0.009175226,0.007363435,85,4,132,2,10,-1271.864,184.50128,-783.7418,72.71336,529499.75,733.51544,117.99933,117.88487,122.91359,122.91359,10.330806,1,279.4966,0,0,10.567173,10.567174,0,9,255,0,0,0,5,0,8,0
True,7279078,9499.995,1203.1134,6909.0254,0.0032924414,-2.343408,3.3817968,0.02593422,-0.4128468,73.03738,0.06107974,0.0006661157,-0.0003145691,2.6860654,-0.037973233,-0.0055560046,0.5107274,0.4835545,0.67467505,0.6485572,0.15721011,0.19399898,0.17284241,0.18422963,211.6252,212.37463,211.49304,211.73866,0,0,0,0,0,0,0,0,0,0,0,0,-0.026488354,0.020061633,0.0024156992,-0.007914772,0.159426,0.19503352,0.1728593,0.18439957,0.0016682073,9.473413E-05,0.011150889,0.009637639,85,4,132,2,10,-1268.9375,184.72743,-789.72125,73.03855,530498.3,733.53,117.99011,117.87764,122.93292,122.93292,10.365394,1,284.5433,0,0,10.658549,10.65855,0,9,255,0,0,0,5,0,7,0
True,7279187,9499.995,1203.1134,6975.7363,0.029660106,-3.901977,3.1819441,0.030359268,-0.45117414,73.40674,0.0864504,-0.002027288,-0.029692912,2.6859827,-0.03189523,-0.00801744,0.53881055,0.481699,0.6665024,0.61348855,0.316913,0.24942449,0.17096782,0.22139826,215.9987,214.54659,212.63554,213.52708,0,0,0,0,0,0,0,0,0,0,0,0,-0.02827323,0.023156881,0.003145052,-0.005480382,0.3181717,0.25049713,0.17099674,0.22146608,0.0032943897,-1.27106905E-05,0.010677371,0.0076057836,85,4,132,2,10,-1265.3407,184.96547,-797.0685,73.40814,534762,732.58936,117.97792,117.86313,122.93312,122.93312,10.475339,1,290.74805,0,0,10.770298,10.770298,0,9,255,0,0,0,5,0,6,0
True,7279312,9499.995,1203.1134,7239.373,0.121456325,-9.384594,1.2601706,0.07634735,-0.40219605,73.54944,0.14898156,-0.0061490824,0.0018861145,2.685307,-0.016716024,-0.009147806,0.18627767,0.16912122,0.45543796,0.4463028,0.6785222,0.6333223,0.4762337,0.676615,223.65579,222.87444,218.56493,223.83907,0,0,0,0,0,0,0,0,0,0,0,0,-0.033118196,0.014734392,-0.011860162,-0.009632078,0.67933,0.6334937,0.47638136,0.67668355,-0.017119363,-0.018112823,-0.001551561,-0.0020808466,85,4,132,2,10,-1261.6122,185.12473,-804.6845,73.55058,369916.53,487.99017,118.01355,117.88698,122.94281,122.94281,10.870236,1,297.171,0,0,10.885707,10.885706,0,9,255,0,0,0,5,0,5,0
True,7279421,9499.995,1203.1134,7049.798,-0.20135987,-6.303715,4.3230095,0.115571976,-0.5002895,74.00407,0.007959212,-0.0041751494,-0.0007504085,2.6845067,-0.006044136,-0.009241218,0.018187841,0.025619902,0.1480724,0.13781457,0.23355532,0.2216283,0.25815454,0.265504,216.04082,215.83789,214.22934,217.98412,0,0,0,0,0,0,0,0,0,0,0,0,-0.033124782,0.005832244,-0.025591029,-0.0031472973,0.23589264,0.22170502,0.25941986,0.26552263,-0.026852764,-0.026422404,-0.019360118,-0.01995445,85,4,132,2,10,-1257.8496,185.15729,-812.36755,74.00585,543552.3,735.6088,118.12499,117.99141,123.062416,123.062416,10.969275,1,303.65714,0,0,11.001786,11.001785,0,9,255,0,0,0,5,0,4,0
True,7279515,9499.995,1203.1134,6990.672,-0.42103434,0.2192336,4.351032,0.07661629,-0.5878904,74.48628,-0.046309225,0.00013199373,-0.010145733,2.6842856,-0.008173485,-0.009730498,0.4229673,0.41096988,0.48914582,0.49265304,0.07409511,0.07478734,0.046359748,0.15182024,214.2784,214.28749,213.08157,215.36113,0,0,0,0,0,0,0,0,0,0,0,0,-0.02757862,0.010729538,-0.007852618,-0.007626602,0.07906115,0.07555309,0.0470201,0.15201168,-0.003413625,-0.004108347,0.00040144846,0.0006046556,85,4,132,2,10,-1254.3092,185.147,-819.5863,74.48865,537723.06,734.5628,118.14336,118.00749,123.109344,123.109344,10.679669,1,309.75293,0,0,11.1100445,11.110043,0,9,255,0,0,0,5,0,3,0
True,7279625,9499.995,1203.1134,7050.1743,-0.27193785,0.15681319,3.6171684,0.036733627,-0.4187361,74.85796,-0.0007299036,0.0022388876,-0.006880492,2.6845028,-0.007121509,-0.011114162,0.43332884,0.40996447,0.62676555,0.6129989,0.09771177,0.0916407,0.13841252,0.15869789,215.79243,215.65425,216.56001,215.89102,0,0,0,0,0,0,0,0,0,0,0,0,-0.024073105,0.014954926,0.0006060363,-0.007231077,0.10063352,0.09285294,0.13841385,0.15886255,-0.0028136298,-0.004166566,0.008375045,0.0075774156,85,4,132,2,10,-1250.8202,185.16013,-826.6897,74.85915,540468.7,732.0017,118.139046,118.00259,123.125145,123.125145,10.678624,1,315.75302,0,0,11.216021,11.216019,0,9,255,0,0,0,5,0,2,0
True,7279734,9499.995,1203.1134,7075.254,-0.08317149,1.6544917,3.6145215,0.0076293945,-0.40083387,75.2367,0.011810458,0.0027241567,-0.01091115,2.684827,-0.009651333,-0.010851251,0.5052356,0.5044602,0.63226336,0.6451721,0.11364077,0.12847145,0.11829366,0.1057899,217.22278,217.36641,216.7635,216.46806,0,0,0,0,0,0,0,0,0,0,0,0,-0.02329605,0.021170424,0.0047360347,-0.0047566975,0.11600401,0.13020407,0.11838843,0.105896786,0.0013501979,0.0013053007,0.008693583,0.00944151,85,4,132,2,10,-1247.411,185.18433,-833.62823,75.23777,541921.75,731.5517,118.1502,118.01446,123.14657,123.14657,10.721026,1,321.61438,0,0,11.319014,11.319011,0,9,255,0,0,0,5,0,1,0
True,7279843,9499.995,1203.1134,7136.381,0.10164118,-1.0508718,3.4451976,0.009357452,-0.44057631,75.59642,0.05491235,0.0013148164,-0.0008724369,2.6850193,-0.008239258,-0.01290212,0.34676677,0.3354743,0.5697223,0.5430437,0.1810216,0.15195423,0.15292498,0.15004757,219.51033,218.92603,218.521,218.40984,0,0,0,0,0,0,0,0,0,0,0,0,-0.023825536,0.020736478,0.0016901529,-0.002370083,0.1825828,0.1533626,0.15293433,0.15006629,-0.00782609,-0.00847999,0.005069997,0.003524255,85,4,132,2,10,-1243.9379,185.21362,-840.6981,75.5977,545373.75,730.0588,118.13082,118.00281,123.15577,123.15577,10.818002,1,327.58636,0,0,11.423449,11.423446,0,9,255,0,0,0,5,0,1,0
True,7279953,9499.995,1203.1134,7155.531,0.29639423,-1.3949593,3.5838094,0.005376816,-0.44213453,76.02581,0.0045614736,0.0015362024,0.0037210106,2.6851556,-0.005420881,-0.01220497,0.41955507,0.45143846,0.4746341,0.5183829,0.098140284,0.1043394,0.13971862,0.13113275,219.12643,219.24689,219.37164,219.31596,0,0,0,0,0,0,0,0,0,0,0,0,-0.02115065,0.019556474,-0.0012465022,-0.0011401485,0.10039355,0.10615633,0.13972418,0.13113771,-0.0036112145,-0.0017649755,-0.00043934956,0.0020954274,85,4,132,2,10,-1240.1913,185.2174,-848.32764,76.02709,547127.4,730.224,118.12491,117.9961,123.15944,123.15944,10.909953,1,334.0307,0,0,11.535563,11.535561,0,9,255,0,0,0,5,0,0,0
True,7280062,9499.995,1203.1134,7180.035,0.2296077,2.2096865,3.3263993,0.007209778,-0.2894565,76.44482,0.010595981,0.0011409721,0.009806536,2.6853328,-0.007611155,-0.01213944,0.60740983,0.61048305,0.68399787,0.6791249,0.09584088,0.084006295,0.107322454,0.10964674,220.28996,220.04636,219.95934,220.01292,0,0,0,0,0,0,0,0,0,0,0,0,-0.023119273,0.01947573,0.0050271037,-0.006984651,0.098589934,0.08623434,0.10744013,0.10986898,0.0072666965,0.0074446537,0.011691049,0.011408709,85,4,132,2,10,-1236.364,185.23044,-856.1242,76.44536,548374.4,729.5286,118.13758,118.01296,123.1911,123.1911,10.943498,1,340.61563,0,0,11.649473,11.649469,0,9,255,0,0,0,5,0,255,0
True,7280171,9499.995,1203.1134,7238.6978,0.0011137724,-1.0255822,3.474011,-0.00077819824,-0.32266852,76.82583,-0.013124986,0.0010311336,0.00040039746,2.685467,-0.006055942,-0.0106071485,0.52552265,0.54396904,0.6372603,0.6548279,0.09870761,0.10297699,0.15088965,0.15204039,221.49376,221.5492,222.00827,221.97868,0,0,0,0,0,0,0,0,0,0,0,0,-0.020086054,0.020106811,0.0048779757,-0.0050405436,0.10073054,0.10492161,0.15096848,0.15212393,0.0025249384,0.0035930946,0.008983105,0.010000959,85,4,132,2,10,-1232.6357,185.25543,-863.7217,76.8265,551712.94,727.77985,118.12704,118.00224,123.19299,123.19299,11.053838,1,347.032,0,0,11.759908,11.759905,0,9,255,0,0,0,5,0,254,0
True,7280281,9499.995,1203.1134,7305.8047,0.04009044,-0.9159866,3.1948388,-0.0007972717,-0.3637338,77.18449,0.0630003,0.0008024894,-0.009012062,2.6855927,-0.0061288737,-0.010722526,0.4947453,0.49248886,0.6598009,0.6621356,0.13048875,0.17112868,0.20853126,0.19129656,223.04233,223.8628,224.2606,223.95784,0,0,0,0,0,0,0,0,0,0,0,0,-0.021323001,0.023088096,0.0063525005,-0.00488328,0.13221945,0.17267914,0.208628,0.19135888,0.0007427484,0.00061208755,0.010289092,0.010424361,85,4,132,2,10,-1228.9705,185.27612,-871.1925,77.18534,554566.94,725.4417,118.11799,117.99214,123.21222,123.21222,11.1285715,1,353.34116,0,0,11.867941,11.867937,0,9,255,0,0,0,5,0,253,0
True,7280406,9499.995,1203.1134,7284.7114,0.09113014,1.2988636,3.803644,0.00983429,-0.45998484,77.60563,-0.039395027,0.0005075547,-0.008277801,2.685688,-0.008710498,-0.011858782,0.5096554,0.48294386,0.60389245,0.5880986,0.08198699,0.085282445,0.10190507,0.09524365,223.39468,223.4581,223.23648,223.10432,0,0,0,0,0,0,0,0,0,0,0,0,-0.021101285,0.0195304,0.0027288282,-0.003685447,0.08465891,0.08749018,0.1019416,0.09531493,0.0016061328,5.9373677E-05,0.0070497915,0.0061347075,85,4,132,2,10,-1225.348,185.2855,-878.5789,77.606995,554611.5,727.1199,118.13669,118.01238,123.224365,123.224365,11.1893015,1,359.5786,0,0,11.974225,11.974221,0,9,255,0,0,0,5,0,252,0
True,7280500,9499.995,1203.1134,7339.9204,0.16637874,0.5292417,3.3703387,0.013629913,-0.42386633,77.96626,0.02000756,0.0011303658,0.0072239824,2.6857786,-0.009295891,-0.0118951965,0.43361256,0.4500391,0.6259125,0.6273716,0.10102356,0.11434615,0.13809688,0.13524625,224.76758,225.0432,224.96063,224.96495,0,0,0,0,0,0,0,0,0,0,0,0,-0.022812212,0.019148719,0.0024022774,-0.005954059,0.10356716,0.11593841,0.13811778,0.13537724,-0.0027972013,-0.001846008,0.008325618,0.0084101595,85,4,132,2,10,-1221.6554,185.31796,-886.1124,77.967415,556957.5,724.7733,118.129074,118.01006,123.25106,123.25106,11.250663,1,365.9396,0,0,12.082073,12.08207,0,9,255,0,0,0,5,0,251,0
True,7280609,9499.995,1203.1134,7392.4727,0.10056031,-1.1760389,3.2724357,0.013217926,-0.43607038,78.328964,0.057352755,0.001237652,0.0027137473,2.685865,-0.007659888,-0.011897858,0.38120857,0.37626082,0.5740161,0.5614307,0.16161305,0.15492932,0.1514592,0.15307136,227.01488,226.91046,226.33829,226.38716,0,0,0,0,0,0,0,0,0,0,0,0,-0.02421856,0.020333359,0.0011307057,-0.0036702463,0.16341762,0.15625793,0.15146342,0.15311535,-0.0058317035,-0.006118208,0.005318776,0.0045895875,85,4,132,2,10,-1217.9404,185.34573,-893.69293,78.33018,559413.8,722.90314,118.11679,117.997696,123.25962,123.25962,11.341235,1,372.33994,0,0,12.190082,12.190079,0,9,255,0,0,0,5,0,250,0
True,7280718,9499.995,1203.1134,7392.0073,0.10095644,-0.10325572,3.8125198,0.017082214,-0.45041442,78.72404,-0.042577602,-1.5848369E-05,-0.011647197,2.6858938,-0.0070660566,-0.012827229,0.47706538,0.4424099,0.53290504,0.51208395,0.0791262,0.07791074,0.105316564,0.10785965,226.5546,226.5277,226.5255,226.55547,0,0,0,0,0,0,0,0,0,0,0,0,-0.020577447,0.017739622,0.000111215835,-0.0019082157,0.081758104,0.07990481,0.105316624,0.107876524,-0.00028102472,-0.0022877827,0.0029368289,0.0017304681,85,4,132,2,10,-1214.3317,185.3519,-901.0579,78.72533,560212.56,723.7179,118.12598,118.002655,123.262344,123.262344,11.414563,1,378.5581,0,0,12.294526,12.294522,0,9,255,0,0,0,5,0,249,0
True,7280843,9499.995,1203.1134,7502.766,0.07312024,-1.3606095,2.811297,0.014245987,-0.3577352,79.09711,0.07054732,0.0016983654,0.004558971,2.6859822,-0.0060232594,-0.012651297,0.39994106,0.41195613,0.61445373,0.61925185,0.15659086,0.16628847,0.22448562,0.23527816,229.13754,229.3306,230.17003,230.36105,0,0,0,0,0,0,0,0,0,0,0,0,-0.023358746,0.019219175,0.0024035522,-0.0060577104,0.1583235,0.16739543,0.2244985,0.23535612,-0.004746981,-0.0040512383,0.0076617077,0.0079397075,85,4,132,2,10,-1209.9735,185.38235,-909.9547,79.097916,563982.9,718.10925,118.11255,117.994156,123.2955,123.2955,11.508946,1,386.06937,0,0,12.42004,12.420036,0,9,255,0,0,0,5,0,248,0
True,7280937,9499.995,1203.1134,7458.536,-0.097730756,1.5440778,3.7377644,0.009508133,-0.46190763,79.47598,-0.05072479,0.00095027493,-0.007027179,2.6861317,-0.008950308,-0.012727817,0.5723441,0.56180173,0.6090209,0.60736495,0.08882574,0.09392687,0.0876711,0.09091068,228.9937,229.11174,228.46542,228.24767,0,0,0,0,0,0,0,0,0,0,0,0,-0.02286773,0.021331215,0.003081715,-0.0040541072,0.09172211,0.096318625,0.087725244,0.091001034,0.0052361824,0.0046257153,0.007346932,0.007250987,85,4,132,2,10,-1206.6891,185.39272,-916.6602,79.47733,563364.9,721.4715,118.14142,118.0214,123.3115,123.3115,11.557342,1,391.73038,0,0,12.514198,12.514194,0,9,255,0,0,0,5,0,247,0
True,7281046,9499.995,1203.1134,7509.4233,-1.5167668,-0.8676986,3.527625,0.03312874,-0.4398626,79.842926,-0.031316515,-0.061476115,-0.013978028,2.683893,-0.006924189,-0.014572316,0.49296886,0.48868895,0.6049458,0.59655213,0.103684485,0.083469324,0.13724951,0.115300424,230.15039,230.01582,230.36407,229.96696,0,0,0,0,0,0,0,0,0,0,0,0,-0.10554962,-0.062471922,-0.007388255,-0.01376452,0.14795673,0.104258664,0.13744824,0.11611912,0.00063988194,0.00039204955,0.007110823,0.006624501,85,4,132,2,10,-1202.7896,185.41177,-924.6103,79.84415,565645.8,719.207,118.14223,118.0202,123.319084,123.319084,11.650733,1,398.44397,0,0,12.625379,12.625374,0,9,255,0,0,0,5,-2,246,0
True,7281156,9499.995,1203.1134,7540.0215,-1.4407744,0.2306945,3.4365768,0.3073578,-0.4451888,80.206566,-0.005263285,-0.032031942,-0.0067803976,2.678794,-0.007840972,-0.014878814,0.5037023,0.5172418,0.64876056,0.65975773,0.102582164,0.08849178,0.12599601,0.11244815,231.21504,231.05879,231.03983,231.0572,0,0,0,0,0,0,0,0,0,0,0,0,-0.0493724,-0.006921914,-0.031808954,-0.04104093,0.11384522,0.08876209,0.12994924,0.11970357,0.0012614094,0.0020454265,0.009649422,0.010286592,85,4,132,2,10,-1198.9951,185.42868,-932.3055,80.20839,566647.44,717.69727,118.14679,118.024124,123.3365,123.3365,11.6864805,1,404.94916,0,0,12.732584,12.73258,0,9,255,0,0,0,5,0,245,0
True,7281281,9499.995,1203.1134,7574.094,-1.7250466,1.308687,3.3751254,0.23976898,-0.38999122,80.63103,-0.012608087,-0.0030601907,-0.0031670053,2.6768386,-0.009180905,-0.014419416,0.53111356,0.5478204,0.6534605,0.6657171,0.084580414,0.08819969,0.11205587,0.110496126,232.1244,232.22282,232.07668,232.11592,0,0,0,0,0,0,0,0,0,0,0,0,-0.045717765,-0.004826782,-0.020741727,-0.030482749,0.09614552,0.08833166,0.113959365,0.114623696,0.0028486885,0.0038161129,0.009921733,0.010631874,85,4,132,2,10,-1194.4856,185.46068,-941.39526,80.63232,568027.1,716.25684,118.15741,118.034584,123.35476,123.35476,11.751433,1,412.64233,0,0,12.858749,12.858746,0,9,255,0,0,0,5,0,246,0
True,7281375,9499.995,1203.1134,7664.0527,-0.8747382,-2.2443383,2.826769,0.14808273,-0.3871081,80.87908,0.05560363,0.0073566264,0.011094358,2.6771066,-0.0061005023,-0.01461879,0.40970573,0.4283577,0.61083376,0.6128453,0.16923648,0.1405172,0.21401088,0.22012751,234.56357,233.98903,235.12045,235.2028,0,0,0,0,0,0,0,0,0,0,0,0,-0.03989152,0.0027270918,-0.012681232,-0.020529293,0.17387444,0.14054367,0.21438627,0.22108273,-0.004181549,-0.0031014904,0.0074519664,0.007568516,85,4,132,2,10,-1191.2693,185.48537,-947.8482,80.880135,570793.6,711.3602,118.13637,118.014244,123.355896,123.355896,11.857102,1,418.10892,0,0,12.948025,12.948022,0,9,255,0,0,0,5,0,246,0
True,7281484,9499.995,1203.1134,7637.5996,-3.2194655,0.97750455,3.4056528,0.09032822,-0.46412465,81.276825,0.009752686,-0.10022117,0.00024010101,2.6736805,-0.008466357,-0.01496591,0.4892868,0.534922,0.6403308,0.6639908,0.14930214,0.10035171,0.11403108,0.088078775,234.9834,234.44324,233.80704,233.71843,0,0,0,0,0,0,0,0,0,0,0,0,-0.37092185,-0.30710503,-0.017692227,-0.025905276,0.39984265,0.32308507,0.11539541,0.09180933,0.00042666867,0.0030692182,0.009161007,0.01053185,85,4,132,2,10,-1187.3118,185.498,-955.7509,81.278206,570736.8,713.77045,118.18291,118.06404,123.37087,123.37087,11.898765,1,424.80975,0,0,13.057006,13.057001,0,9,255,0,0,0,5,-127,247,0
True,7281593,9499.995,1203.1134,7667.156,-4.349251,0.32059056,3.477933,0.74132156,-0.44907364,81.5739,-0.021038081,-0.11602545,-0.017848337,2.6608787,-0.008282408,-0.015857782,0.4845485,0.51718694,0.5996918,0.6367315,0.100770086,0.08118514,0.13322465,0.10102765,234.95497,235.06158,234.97931,234.93369,0,0,0,0,0,0,0,0,0,0,0,0,-0.08055185,-0.037540413,-0.0887232,-0.092237785,0.12900858,0.08944445,0.1600644,0.13680056,0.00015229359,0.0020422526,0.006806411,0.008952465,85,4,132,2,10,-1183.8446,185.5165,-962.5833,81.57851,571879.44,712.29584,118.2352,118.11566,123.37368,123.37368,11.956794,1,430.61856,0,0,13.151105,13.1511,0,9,255,0,0,0,5,0,249,63
True,7281703,9499.995,1203.1134,7705.5547,-4.593569,0.017538818,3.307863,0.83807755,-0.4466447,81.9424,-0.01420016,-0.035275143,-0.012325977,2.6528983,-0.00829793,-0.01756161,0.4251971,0.47647107,0.5759792,0.6173846,0.10602538,0.08143775,0.12871929,0.11827497,236.30345,235.9404,236.21463,236.11156,0,0,0,0,0,0,0,0,0,0,0,0,-0.105029434,-0.061179083,-0.09050452,-0.09235766,0.14923996,0.101857685,0.15735222,0.15006301,-0.0032845065,-0.00031543896,0.0054325163,0.007831521,85,4,132,2,10,-1179.4844,185.54207,-971.05725,81.94791,573242.94,710.4144,118.24186,118.12836,123.38928,123.38928,12.026656,1,437.8433,0,0,13.26766,13.267654,0,9,255,0,0,0,5,0,252,123
True,7281828,9499.995,1203.1134,7750.18,-3.2020571,0.114733934,2.768745,0.44717026,-0.42317477,82.3031,0.05004801,0.01793756,0.010259161,2.6521351,-0.009026723,-0.017146599,0.43935305,0.51490515,0.61525816,0.66399205,0.14564303,0.13612075,0.12848237,0.12774332,238.23547,237.9515,237.2623,237.22968,0,0,0,0,0,0,0,0,0,0,0,0,-0.077820994,-0.0319255,-0.041850798,-0.0502402,0.16513024,0.13981451,0.13512665,0.13726774,-0.0024647936,0.001910124,0.007708315,0.010531925,85,4,132,2,10,-1175.0399,185.57726,-979.55756,82.30541,574573.2,708.1217,118.249214,118.14232,123.40799,123.40799,12.084048,1,445.1141,0,0,13.38444,13.384437,0,9,255,0,0,0,5,0,1,120
True,7281953,9499.995,1203.1134,7764.383,-1.3165661,0.3233601,3.316401,0.12228012,-0.45989457,82.691956,-0.030127998,0.01924737,-0.0002710009,2.6543694,-0.008399531,-0.017742725,0.4767035,0.48657405,0.5788762,0.59129035,0.08555605,0.07913924,0.108121276,0.103214815,238.13748,237.91302,238.0096,237.8276,0,0,0,0,0,0,0,0,0,0,0,0,-0.036149334,0.003978934,-0.0072179255,-0.01286351,0.09287956,0.079239205,0.10836194,0.10401331,-0.00030197948,0.00026958436,0.0056003667,0.0063196346,85,4,132,2,10,-1170.5602,185.6001,-988.0556,82.69332,575554.4,707.901,118.25711,118.147644,123.40674,123.40674,12.168582,1,452.3953,0,0,13.500889,13.500886,0,9,255,0,0,0,5,0,7,116
True,7282046,9499.995,1203.1134,7815.959,-0.45445418,-0.29659534,2.8412082,-0.033454895,-0.45114717,82.97565,0.031586953,0.016260965,0.014995489,2.6561387,-0.008255389,-0.016095195,0.45350587,0.4959551,0.6503289,0.6617599,0.10751764,0.12293316,0.13764612,0.14878543,239.37239,239.63383,239.41484,239.68063,0,0,0,0,0,0,0,0,0,0,0,0,-0.021169346,0.021862864,0.009722582,-0.00048425165,0.10958186,0.124862105,0.13798907,0.14878622,-0.0016452596,0.00081280246,0.009740289,0.010402594,85,4,132,2,10,-1166.8096,185.62698,-995.156,82.976875,576710.1,704.772,118.24838,118.14133,123.42499,123.42499,12.218774,1,458.48163,0,0,13.597821,13.597818,0,9,255,0,0,0,5,0,13,112
True,7282171,9499.995,1203.1134,7828.7876,0.36238968,-0.066500835,3.1260905,-0.0848732,-0.46489778,83.349335,-0.03489822,0.008138108,0.001963324,2.6575067,-0.007890061,-0.016226713,0.48035938,0.46816722,0.58496016,0.5712729,0.07647832,0.075873755,0.114992894,0.11403304,239.81808,239.77036,240.13846,239.83943,0,0,0,0,0,0,0,0,0,0,0,0,-0.011734014,0.026002102,0.012343212,0.0071722963,0.07737325,0.08020559,0.115653455,0.11425837,-9.028241E-05,-0.0007962808,0.0059528686,0.00515984,85,4,132,2,10,-1162.3782,185.64665,-1003.5523,83.35068,577613.5,704.5224,118.25214,118.143105,123.43104,123.43104,12.290404,1,465.67758,0,0,13.711979,13.711976,0,9,255,0,0,0,5,0,19,105
True,7282281,9499.995,1203.1134,7574.674,-12.501772,-0.37522694,-8.69083,-3.4381943,-0.338143,79.64792,0.014929859,-0.31770504,-0.039803073,2.6339176,-0.007745146,-0.013285102,0.5014791,0.44917032,0.6596108,0.6340754,0.16661768,0.13739745,0.34755906,0.18100516,230.6141,231.414,232.07747,233.26062,0,0,0,0,0,0,0,0,0,0,0,0,-0.43168178,-0.34561718,0.366454,0.34349504,0.46272087,0.37192646,0.5050602,0.38826758,0.0011326745,-0.0018963143,0.010278076,0.008798573,85,4,132,2,10,-1157.526,185.6901,-1011.2453,79.72282,569532.25,718.1074,118.413895,118.25814,123.73099,123.73099,11.900054,1,472.53754,0,0,13.826558,13.826555,0,9,255,0,0,0,5,-127,43,97
True,7282390,9499.995,1203.1134,7549.9893,-7.881095,0.32313043,0.9485631,0.16979599,-0.42343011,80.040115,-0.008463826,-0.58914316,-0.0585474,2.5808527,-0.010084155,-0.017818186,0.4525171,0.4549507,0.6082841,0.59509695,0.27091363,0.13284941,0.2029299,0.09026113,231.76288,231.7734,232.2169,230.18399,0,0,0,0,0,0,0,0,0,0,0,0,-1.1164154,-0.9108275,-0.094443284,-0.08989205,1.1488156,0.92046493,0.22383046,0.1273878,-0.0017025173,-0.001561597,0.0073042437,0.0065401867,85,4,132,2,10,-1152.638,185.73016,-1019.152,80.04142,515517.62,652.07434,118.7249,118.571144,123.80864,123.80864,11.266021,1,479.55478,0,0,13.942887,13.942884,0,8,238,0,0,0,5,-127,66,84
True,7282500,9499.995,1203.1134,7530.692,-19.822561,3.8965003,1.884057,4.110607,-0.20162414,79.99623,0.015252991,-0.65387934,-0.039221853,2.502064,-0.015842443,-0.02385512,0.57269275,0.67182297,0.65971386,0.706184,0.16574724,0.055807173,0.19631265,0.07623642,230.47412,231.14418,230.19319,231.37144,0,0,0,0,0,0,0,0,0,0,0,0,-0.39292943,-0.30640444,-0.5734533,-0.46317703,0.42645714,0.3114452,0.6061249,0.46940914,0.0052563697,0.010996599,0.010284048,0.012976497,85,4,132,2,10,-1147.5957,185.80841,-1026.9668,80.10202,397910,504.63858,119.5465,119.31996,123.88925,123.88925,8.063102,1,486.67508,0,0,14.059033,14.05903,0,8,205,0,0,0,5,0,88,67
True,7282609,9499.995,1203.1134,7592.127,-15.875759,-2.4149916,2.2173128,7.067524,-0.15746084,79.78576,0.015181733,-0.55542934,-0.02576853,2.4482424,-0.012932367,-0.026358621,0.38528952,0.53836155,0.49477008,0.61500376,0.29042062,0.09660091,0.25320038,0.26052442,232.9236,231.46571,231.29076,234.50835,0,0,0,0,0,0,0,0,0.120000005,0,0,0,-0.81753725,-0.60718054,-0.9425296,-0.80492646,0.86758935,0.61481696,0.975947,0.84603757,-0.0055953935,0.0032683872,0.0007273145,0.007693574,85,4,132,2,10,-1143.366,185.8876,-1033.1849,80.09833,267505.06,336.3673,119.62115,119.461426,124.01291,124.01291,6.105672,1,492.35303,0,0,14.152926,14.152923,0,7,155,0,0,0,5,0,108,45
True,7282718,9499.995,1203.1134,7457.871,-18.957727,0.47669527,0.5345831,9.385376,-0.07181233,79.31082,-0.03989624,-0.50005716,-0.013659025,2.3880289,-0.014768683,-0.02741613,0.12730846,0.67280954,0.30533662,0.67509,0.10351553,0.049737982,0,0.043716796,226.82558,228.32468,229.64293,228.40324,0,0,0,0,0,0,0,0,0,0,0.120000005,0,-1.2868004,-1.0017744,0,-0.8745167,1.2909572,1.0030084,0,0.87560874,-0.020534031,0.011053726,-0.010248333,0.011174932,85,4,132,2,10,-1137.9568,185.97339,-1040.7572,79.864235,34692.746,44.409668,119.4359,119.97107,124.14821,124.14821,-0.36196232,1,499.81592,0,0,14.269247,14.269242,0,6,78,0,0,0,5,-44,127,24
True,7282828,9499.995,1203.1134,6476.966,-16.918129,-0.46886417,-5.567926,11.155235,0.34483224,78.10861,0.037083935,-0.41479456,0.050285514,2.337869,-0.011666833,-0.03485667,0.053413503,0.6726992,0.21224393,0.5178118,0,-0.21409266,-1.2326914,-0.82938105,194.38837,215.39146,190.4116,200.55722,0,0,0,0,0,0,0,0,0,0,0.120000005,0,0,-1.4538269,-1.4956241,-1.2413248,0,1.4695061,1.9381485,1.4929034,-0.024812989,0.011047337,-0.015642062,0.0020623356,85,4,132,2,10,-1132.3776,186.07695,-1048.0935,78.90193,-110202.625,-161.43661,119.41872,122.36528,124.07883,124.07883,-8.571596,1,506.8074,0,0,14.38515,14.385144,0,6,0,255,0,0,5,-127,127,145
True,7282968,9499.995,1203.1134,6202.5913,-18.882883,2.4181592,-14.916587,13.575371,-0.20097303,75.56477,-0.04326977,-0.44266853,0.115792856,2.279917,-0.016631024,-0.012773773,0.09829883,0.72153383,0.3069592,0.676026,-2.079538,-0.30528748,-0.7696117,-0.89812434,166.32759,204.45839,193.62561,190.9798,0,0,0,0,0,0,0,0,0.120000005,0,0.120000005,0,-2.6263392,-1.6632835,-1.8623143,-1.3552808,3.3499455,1.6910684,2.0150723,1.6258577,-0.022213861,0.013875153,-0.010154322,0.011229161,85,4,132,2,10,-1126.1165,186.16446,-1055.9851,76.774765,-99683.72,-152.73822,119.98044,129.63446,125.20488,125.20488,-10.684891,1,515.16986,0,0,14.514259,14.514254,0,6,0,255,0,0,5,-127,127,129
True,7283078,9499.995,1203.1134,5707.4326,-16.577595,0.61342806,-14.050654,15.123117,0.16151777,73.289764,0.12411443,-0.39375418,-0.05420292,2.2346106,-0.013280752,-0.00857683,0.67423785,0.5178032,0.65171695,0.5134641,-1.6372548,-0.7792051,-1.7504184,-1.4782388,167.33817,187.36053,170.41481,177.11725,0,0,0,0,0,0,0,0,0,0,0,0,-2.6039584,-2.4024847,-2.0830543,-2.012189,3.0759068,2.5256867,2.7208602,2.4968169,0.011136435,0.0020779371,0.009820711,0.0018104352,85,4,132,2,10,-1120.9481,186.27806,-1062.1758,74.83398,-82118.52,-137.13144,122.54112,136.40923,127.94258,127.94258,-10.958407,1,521.2609,0,0,14.620887,14.620881,0,6,0,255,0,0,5,-127,119,129
True,7283171,9499.995,1203.1134,5013.5996,-81.66539,-2.0886533,-178.31029,10.6341,0.40112963,54.316864,-0.057611093,-0.7672485,-0.10182323,2.1768684,-0.0105383,-0.020748343,0.68260217,0.7135172,0.37880945,0.41867498,0.66856176,0.33654347,0.14354238,-0.26966786,159.96994,154.0668,155.27827,148.847,0,0,0,0,0,0,0,0,0,0,0,0,-2.352471,-1.7149957,-2.0495055,-1.5765752,2.4456277,1.7477047,2.054526,1.5994718,0.011620779,0.013410941,-0.0059913658,-0.0036815852,85,4,132,2,10,-1116.3124,186.36098,-1067.448,55.349487,-62535.04,-117.63462,131.02516,143.93501,133.81174,133.81174,-11.011618,1,527.004,0,0,14.725844,14.725839,0,6,0,255,0,0,5,-127,96,129
True,7283296,9499.995,1203.1134,4180.081,-24.987364,-0.9744319,-27.271305,13.458088,0.16285697,52.18892,0.032943785,-0.6715479,-0.050619848,2.0885527,-0.016949581,-0.02307518,0.35333547,0.51575196,0.34370434,0.45274344,-1.4881512,-0.26160744,-0.9150197,-0.14923534,122.35402,143.03719,132.98721,147.56696,0,0,0,0,0,0,0,0,0,0,0,0,-3.2128863,-2.5704968,-2.5508792,-2.5024981,3.5407956,2.5837748,2.710027,2.506944,-0.007445723,0.00195916,-0.008025333,-0.0017076805,85,4,132,2,10,-1111.6112,186.46059,-1072.1263,53.896477,-39725.926,-90.61082,138.42538,151.2527,138.5393,138.5393,-11.022914,1,531.9753,0,0,14.84745,14.847444,0,6,255,0,0,0,5,-127,77,0
True,7283390,9499.995,1203.1134,4860.4316,-22.2378,-0.8845221,-21.90982,14.650309,0.15618464,49.060257,-0.0065961154,-0.7155737,-0.0031306348,2.0264964,-0.017902173,-0.02270874,0.2517178,0.4911804,0.218774,0.3738024,-0.1718874,0.20147799,-0.19608067,0.13428305,132.47531,141.57788,135.50842,143.7985,0,0,0,0,0,0,0,0,0,0,0,0,-3.4736857,-3.0429394,-2.9717596,-2.6006198,3.4779358,3.0496023,2.9782214,2.6040843,-0.01332999,0.00053631887,-0.015263714,-0.0062814727,85,4,132,2,10,-1108.2894,186.52509,-1075.2617,51.20122,283488.7,561.80505,143.94922,157.1647,142.45679,142.45679,-1.8139992,1,535.41223,0,0,14.93545,14.935443,0,6,255,0,0,0,4,-127,61,0
True,7283500,9499.995,1203.1134,6092.218,-18.618973,-0.8363066,-10.283183,16.503365,0.008055627,46.913383,0.0071428376,-0.6969618,-0.013323743,1.9501126,-0.020692812,-0.021942405,0.20893927,0.48647255,0.2600303,0.48310015,0.6461103,0.3181322,0.3785689,0.09377763,136.6459,136.53815,135.99338,138.18347,0,0,0,0,0,0,0,0,0,0,0,0,-3.9533486,-3.4493392,-3.4296925,-2.7940598,4.005799,3.4639788,3.4505224,2.795633,-0.015807122,0.00026370585,-0.012873352,5.1166862E-05,85,4,132,2,10,-1104.2784,186.59883,-1078.864,49.731544,120619.945,189.13287,150.95483,165.21722,148.31595,148.31595,0.4154663,1,539.4807,0,0,15.042515,15.042508,0,6,255,0,0,0,4,-127,40,0
True,7283625,9499.995,1203.1134,6347.0195,-16.78707,-0.6319191,-5.7326994,18.299107,0.10145432,44.738853,0.011003779,-0.67569923,0.022910329,1.8684815,-0.017997483,-0.01957641,0.20693244,0.5241887,0.28608397,0.5266081,1.7596985,1.0065885,1.2479507,1.04106,144.06622,140.18225,143.90381,143.6405,0,0,0,0,0,0,0,0,0,0,0,0,-4.3261185,-3.6783097,-3.9158878,-3.2597804,4.670315,3.8135524,4.1099343,3.421984,-0.015923329,0.0024476945,-0.011363819,0.0025719889,85,4,132,2,10,-1099.7046,186.66936,-1082.7324,48.33666,323573.34,487.0134,158.45686,174.19853,156.27455,156.27455,5.2127466,1,544.0893,0,0,15.164883,15.164876,0,6,255,0,0,0,4,-127,14,0
True,7283734,9499.995,1203.1134,6286.38,-15.888529,-0.09453499,-3.3374434,19.77912,0.062238187,43.016983,0.011737253,-0.65267986,0.0016907642,1.7982454,-0.019253021,-0.016601598,0.32635915,0.61640143,0.39996684,0.62587166,2.4601884,1.5610712,1.9699761,1.1238757,145.60674,141.0254,145.69167,141.91624,0,0,0,0,0,0,0,0,0,0,0,0,-4.850184,-4.232459,-4.1423717,-3.6155124,5.4384565,4.51117,4.586943,3.7861626,-0.009007812,0.0077873617,-0.0047655217,0.008323252,85,4,132,2,10,-1095.8032,186.72855,-1085.8348,47.346363,287437.56,436.59354,165.02548,182.02338,163.10628,163.10628,8.365903,1,547.79877,0,0,15.269231,15.269224,0,6,255,0,0,0,4,-127,248,0
True,7283843,9499.995,1203.1134,6270.653,-14.867021,-0.71011233,-2.5200334,20.966646,0.10884866,41.416756,0.048767973,-0.61857635,0.029614374,1.7341975,-0.01642755,-0.013319354,0.19798057,0.52694595,0.44747055,0.6615763,3.1094713,1.82269,2.2961535,1.6568636,146.91852,138.41533,146.2689,140.89351,0,0,0,0,0,0,0,0,0,0,0,0,-5.2486515,-4.6274977,-4.5401216,-4.1466074,6.1005864,4.973523,5.087733,4.4653726,-0.016441695,0.0026073568,-0.0020131879,0.010391954,85,4,132,2,10,-1092.0087,186.78462,-1088.6871,46.421543,334333.66,509.38892,170.88266,189.07596,169.6209,169.6209,8.942298,1,551.3495,0,0,15.370615,15.370609,0,6,255,0,0,0,4,-127,225,0
True,7283937,9499.995,1203.1134,6335.181,-14.1588,-0.9529991,-1.1358606,21.954002,0.11911246,40.151546,0.023612749,-0.6203289,0.0077835955,1.6803131,-0.013571733,-0.011403932,0.18971013,0.5085638,0.3760505,0.60434437,3.7627513,2.0240467,2.753415,2.138052,149.63606,137.35803,144.14915,146.56978,0,0,0,0,0,0,0,0,0,0,0,0,-5.473051,-4.6491594,-4.910101,-4.219347,6.641731,5.070646,5.629421,4.7301326,-0.016920604,0.0015429221,-0.006151218,0.0070759766,85,4,132,2,10,-1088.7314,186.82481,-1091.0353,45.76176,387750.72,584.47015,175.78552,194.79996,175.11374,175.11374,9.154712,1,554.37616,0,0,15.458201,15.458195,0,6,255,0,0,0,4,-127,204,0
True,7284062,9499.995,1203.1134,6258.668,-15.272582,-0.5109204,3.3386,23.150414,0.058973044,38.743797,0.007972634,-0.6151405,-0.01407912,1.6000051,-0.014454143,-0.010940813,0.2285813,0.53508985,0.45754328,0.65957123,4.697223,2.0935025,2.750921,2.2756631,152.86012,133.22298,142.72711,143.27615,0,0,0,0,0,0,0,0,0,0,0,0,-5.926933,-4.843625,-5.024228,-4.14218,7.562568,5.27669,5.7280393,4.726129,-0.014669731,0.0030789375,-0.0014295802,0.010275785,85,4,132,2,10,-1083.9254,186.87146,-1094.2461,45.133434,386612.88,589.2604,182.91237,203.42096,182.98557,182.98557,9.18263,1,558.3196,0,0,15.585456,15.585448,0,6,255,0,0,0,4,-127,171,0
True,7284171,9499.995,1203.1134,6136.5396,-15.719778,0.114657104,4.6622167,23.925768,0.11444923,37.67789,-0.029893773,-0.62729025,-0.01257134,1.5331683,-0.01526288,-0.010273203,0.23117393,0.5454993,0.45296538,0.6413638,4.8965383,2.0430784,3.2943664,2.246241,150.52202,128.28513,143.02126,138.19943,0,0,0,0,0,0,0,0,0,0,0,0,-6.113923,-5.167581,-5.311592,-4.756079,7.833016,5.556803,6.250269,5.259837,-0.014519602,0.0036817081,-0.0016948208,0.009220857,85,4,132,2,10,-1079.7822,186.91695,-1096.767,44.63271,369916.12,575.47705,188.8818,210.9907,189.37009,189.37009,8.956359,1,561.8897,0,0,15.6936035,15.693595,0,6,255,0,0,0,4,-127,142,0
True,7284265,9499.995,1203.1134,5636.171,-96.110275,1.8993336,-15.281652,16.402952,-0.36947188,34.266113,-0.060451802,-0.43756604,-0.052604202,1.4669263,-0.024730217,-0.0026051127,0.539394,0.69730717,0.70580685,0.4601184,6.6797037,1.976087,2.93164,1.6280799,152.2097,114.88362,129.49051,123.60489,0,0,0,0,0,0,0,0,0,0.120000005,0,0.120000005,-5.664378,-5.0996222,-4.0477257,-3.2151654,8.75806,5.4691014,4.997859,3.6038775,0.0033281744,0.012472287,0.012954645,-0.0012803786,85,4,132,2,10,-1075.8136,186.9512,-1098.7515,37.991577,320030.75,540.76874,194.35127,218.36896,196.76868,196.76868,8.486354,1,565.212,0,0,15.8011465,15.801138,0,6,255,0,0,0,4,-127,129,0
True,7284375,9499.995,1203.1134,5089.9253,-46.327057,0.22674441,2.9435675,13.656202,0.33327642,34.546944,0.13731128,-0.18481004,-0.10778068,1.441713,-0.02026211,-0.029040957,0.49876145,0.69522035,0.7429425,0.6203973,4.8288984,0.20967275,1.8886704,0.99525595,139.07849,98.40923,116.435135,113.88414,0,0,0,0,0,0,0,0,0,0.120000005,0,0.120000005,-4.5879602,-2.684144,-3.5444338,-2.3873162,6.6609035,2.6923208,4.0162277,2.5864673,0.0009753071,0.012351446,0.015106261,0.008006074,85,4,132,2,10,-1072.1324,186.994,-1099.8102,37.149616,193863.67,362.8076,197.9376,216.49042,204.03545,204.03545,7.339944,1,568.1169,0,0,15.903821,15.903812,0,6,255,0,0,0,4,-127,129,0
True,7284484,9499.995,1203.1134,4699.749,-16.613487,-2.3758807,1.5474205,13.035,-0.03405431,34.349422,-0.060102843,-0.20743643,-0.018099781,1.4178603,-0.025874265,-0.018687097,0.2453502,0.4603866,0.4780053,0.3941788,2.435227,0.15211435,0.67127246,0.66733694,120.63835,100.07473,104.03688,105.78537,0,0,0,0,0,0,0,0,0,0,0,0.120000005,-3.6220088,-3.4084673,-3.4224286,-2.7259347,4.3645477,3.41186,3.4876387,2.8064318,-0.013698712,-0.0012468249,-0.00024402514,-0.005100876,85,4,132,2,10,-1068.389,187.08002,-1100.6553,36.739555,-42273.355,-85.77923,201.32614,217.52054,208.6317,208.6317,-7.2853274,1,570.94055,0,0,16.007933,16.007923,0,6,255,0,0,0,4,0,129,0
True,7284593,9499.995,1203.1134,5363.873,-14.683519,-1.6605707,1.2966988,12.3091135,-0.2784162,34.203026,0.032701105,-0.1319114,0.0007135174,1.3991604,-0.027806671,-0.02323007,0.07607252,0.4418017,0.3743507,0.4937084,0.78123,-0.0018988572,0.32745355,0.06927255,110.27712,103.624954,100.11164,98.29053,0,0,0,0,0,0,0,0,0,0,0,0.120000005,-0.8346805,-0.31271943,-3.2549074,-2.63474,1.1432462,0.3127252,3.2713373,2.6356506,-0.023500897,-0.0023230016,-0.0062497035,0.0006658025,85,4,132,2,10,-1064.5675,187.12369,-1101.4075,36.351593,327532.22,587.8497,202.61235,217.80396,212.37646,212.37646,-0.5468731,1,573.88245,0,0,16.114452,16.114443,0,6,255,0,0,0,3,127,137,0
True,7284703,9499.995,1203.1134,6136.416,-4.6405225,-0.8923013,-1.8722168,11.941708,-0.20561662,33.96481,0.043651205,0.11859181,0.034140892,1.3987006,-0.022352537,-0.018785574,0.13997598,0.6374905,0.48283783,0.32275888,0.035481602,0.06595029,0.50698745,0.4894558,103.42575,102.631195,102.272865,102.13803,0,0,0,0,0,0,0,0,0,0,0,0.120000005,0.24184787,0.9957143,-2.8143933,-2.8559904,0.24443677,0.997896,2.8596933,2.897628,-0.019800507,0.009008545,3.5967678E-05,-0.009238899,85,4,132,2,10,-1060.7655,187.16275,-1102.0492,36.00354,210713.14,328.3042,198.21155,213.02045,216.30247,216.30247,-0.35120678,1,576.78656,0,0,16.221056,16.221043,0,6,255,0,0,0,3,127,148,0
True,7284812,9499.995,1203.1134,6527.8516,-2.6127605,0.9159646,0.90996194,10.795002,0.04259702,34.377213,0.06548889,0.36954397,0.103821956,1.4251213,-0.015696682,-0.010516166,0.31690535,0.65332705,0.56038374,0.7356632,0.22722304,0.5952422,1.1896063,0.99700487,106.55033,108.02688,111.40067,108.22904,0,0,0,0,0,0,0,0,0,0,0,0,0.4385772,1.2594457,-2.5442092,-2.5549252,0.4939436,1.3930242,2.8085876,2.7425647,-0.009555243,0.009925574,0.0045289285,0.014684502,85,4,132,2,10,-1056.9595,187.2065,-1102.6725,36.032295,432092.8,632.89246,194.01608,208.90163,219.7609,219.7609,6.359765,1,579.6898,0,0,16.328289,16.328276,0,6,255,0,0,0,3,127,159,0
True,7284921,9499.995,1203.1134,6679.234,0.6314927,-0.45883432,2.5126283,8.994542,-0.061560884,35.224174,-0.03129797,0.6258873,0.037889596,1.4801277,-0.013859015,-0.0028819756,0.45321393,0.5803307,0.47418308,0.6008752,0.35267907,0.86328405,0.6780083,1.4942584,109.52309,110.778,110.27871,114.09175,0,0,0,0,0,0,0,0,0,0,0,0,0.8385049,1.6976147,-1.9254074,-2.0457194,0.90965545,1.9045091,2.0412958,2.533333,-0.0016621649,0.005698655,-0.00046548247,0.006874975,85,4,132,2,10,-1053.0331,187.25453,-1103.3005,36.354477,323617.3,462.5641,190.18143,206.50009,220.87305,220.87305,9.256658,1,582.6818,0,0,16.438162,16.43815,0,6,255,0,0,0,3,127,172,0
True,7285031,9499.995,1203.1134,6609.11,-1.9116365,-0.14625469,3.0583076,5.839583,-0.13704439,36.189724,0.003652119,0.8785989,0.015214608,1.561816,-0.015320615,-0.0028878313,0.44455415,0.5104086,0.56494606,0.6371941,0.4954893,0.96201915,0.61010087,0.6564141,111.3119,110.0608,110.57573,109.843666,0,0,0,0,0,0,0,0,0,0,0,0,1.5881162,2.3887625,-1.1100906,-1.1302891,1.6636174,2.5752025,1.2666981,1.3070704,-0.0021636188,0.0016497448,0.004793264,0.008979268,85,4,132,2,10,-1049.1323,187.29814,-1103.9106,36.658085,374797.28,541.73566,187.31363,206.27946,219.30734,219.30734,9.704648,1,585.6513,0,0,16.546297,16.546286,0,6,255,0,0,0,3,127,184,0
True,7285140,9499.995,1203.1134,6667.085,-0.037861437,-0.29841983,4.945122,2.0625868,-0.16107832,37.13026,-0.0008019486,1.1199712,0.041769225,1.6655893,-0.0144285,-0.0017238121,0.39576957,0.44423208,0.5539943,0.6033861,0.37749788,0.8783208,0.37315536,0.5454002,112.76649,112.15741,112.23684,109.35747,0,0,0,0,0,0,0,0,0,0,0,0,1.0959351,1.4510959,-0.13922621,-0.15601785,1.1591283,1.6962095,0.39828238,0.5672768,-0.0049885362,-0.0021822676,0.004158728,0.007020455,85,4,132,2,10,-1045.3561,187.33781,-1104.4785,37.187855,479624.3,686.63544,186.77109,208.12984,214.88464,214.88464,9.879167,1,588.51935,0,0,16.649836,16.649824,0,6,255,0,0,0,3,0,197,0
True,7285265,9499.995,1203.1134,6837.7607,6.9491205,-0.2872507,8.009224,-2.1417446,-0.24786752,38.132904,-0.005296265,0.99431735,0.063769,1.8030981,-0.015937438,0.0028473942,0.39227122,0.39756188,0.5507038,0.55433154,0.17296642,0.5721386,0.3101511,0.7283337,113.26479,112.91523,114.35759,115.031624,0,0,0,0,0,0,0,0,0,0,0,0,0.1192246,0.1829732,0.705252,0.82964,0.21007591,0.6006844,0.7704376,1.1039803,-0.00519111,-0.0048847497,0.0039680786,0.004178267,85,4,132,2,10,-1040.7513,187.38263,-1105.2296,38.193806,523624.8,731.979,183.06146,203.74312,209.60617,209.60617,10.071662,1,592.0314,0,0,16.773535,16.773523,0,6,255,0,0,0,3,0,211,0
True,7285359,9499.995,1203.1134,7120.0957,11.786807,-0.9704801,7.5941133,-4.2848377,-0.23134887,38.54302,0.046676174,0.82815456,0.033785522,1.8943833,-0.013743153,0.006782027,0.41941956,0.3335533,0.6241054,0.5470766,0.28828782,1.1501659,0.6254853,0.9834406,115.55392,120.58056,119.44605,119.12467,0,0,0,0,0,0,0,0,0,0,0,0,0.6507103,0.7971802,1.1180131,1.3189644,0.7117118,1.3994205,1.2810875,1.6452423,-0.00361906,-0.008591227,0.0082209185,0.00375792,85,4,132,2,10,-1036.8848,187.41539,-1105.9938,38.78115,477726.06,641.19104,180.1189,200.15913,206.05779,206.05779,10.542878,1,595.0084,0,0,16.8759,16.87589,0,6,255,0,0,0,3,0,220,0
True,7285468,9499.995,1203.1134,7280.6934,13.593147,-0.76559424,7.511141,-6.3745613,-0.2057039,38.8229,-0.0006438268,0.82018435,0.024067504,1.9902346,-0.011567201,0.008631293,0.48117435,0.28340396,0.6475933,0.49135566,0.41528025,1.2076149,0.7146319,1.216266,118.166534,122.46174,120.16618,124.17803,0,0,0,0,0,0,0,0,0,0,0,0,1.0679826,1.2940359,1.5064192,1.8017888,1.1458815,1.7699894,1.6673325,2.1738782,-4.3090433E-05,-0.011495173,0.009581793,0.0005294867,85,4,132,2,10,-1032.4441,187.44006,-1107.0554,39.343296,430793.75,565.1827,177.30441,197.56908,204.41614,204.41614,11.015122,1,598.46643,0,0,16.992754,16.992744,0,6,255,0,0,0,3,0,225,0
True,7285578,9499.995,1203.1134,7309.4375,15.211206,0.4005255,8.093037,-7.90928,-0.14376496,38.977272,0.0029321583,0.7582966,-0.013774228,2.0701385,-0.012541431,0.00913282,0.5200925,0.32740498,0.6810492,0.48776382,0.2291029,0.93720585,0.8635061,1.0786958,117.58814,121.58948,123.63799,122.80254,0,0,0,0,0,0,0,0,0,0,0,0,0.04629113,0.26846087,1.7051942,2.0999131,0.23373276,0.974898,1.9113686,2.360767,0.0022105016,-0.008947253,0.011520207,0.00032137707,85,4,132,2,10,-1028.6632,187.4624,-1108.1378,39.77191,468451.66,611.7049,175.75623,196.3345,205.1878,205.1878,11.202672,1,601.4471,0,0,17.09221,17.092201,0,6,255,0,0,0,3,-127,226,0
True,7285687,9499.995,1203.1134,7390.688,7.1680813,-0.195582,7.7236457,-9.822504,-0.14853878,39.16295,0.0074269674,0.5194707,-0.01186314,2.1350932,-0.0121149765,0.0057195076,0.4887121,0.33515817,0.6414989,0.50860804,0.47340605,0.42157546,0.8197361,1.3782085,121.542244,118.61831,124.87428,125.095604,0,0,0,0,0,0,0,0,0,0,0,0,-0.47607696,-0.05840393,2.2126396,2.3841279,0.67138857,0.4256018,2.3596063,2.75382,0.00039339066,-0.008498296,0.009228688,0.0015290789,85,4,132,2,10,-1024.7639,187.49232,-1109.3876,40.376236,505295.16,653.26855,173.35683,193.11737,207.06995,207.06995,11.273013,1,604.5504,0,0,17.194328,17.194319,0,6,255,0,0,0,3,-127,223,0
True,7285796,9499.995,1203.1134,7504.493,5.1812744,-1.1745579,6.8215647,-10.894224,-0.17999296,39.387833,0.044589423,0.2870583,-0.0049764775,2.1748953,-0.009316102,0.004536553,0.4184605,0.31452668,0.6349464,0.54286087,0.4540795,0.53760284,0.92443705,1.4288934,122.40613,121.9884,126.59713,126.9693,0,0,0,0,0,0,0,0,0,0,0,0,-0.47473148,0.0018970264,2.3212574,2.50783,0.65693086,0.5376062,2.4985635,2.886338,-0.0036745965,-0.009692982,0.00884904,0.003513664,85,4,132,2,10,-1020.938,187.51216,-1110.6833,40.867077,486266.3,618.91144,171.23062,190.14455,209.93347,209.93347,11.518079,1,607.61005,0,0,17.293764,17.293756,0,6,255,0,0,0,3,-127,218,0
True,7285906,9499.995,1203.1134,7613.32,3.426317,-1.0613045,6.37538,-11.171587,-0.21346423,39.948418,0.00096256123,0.008205917,0.008933942,2.1922114,-0.0065869857,0.0034776432,0.38584843,0.3386799,0.5637922,0.5131613,0.5304506,0.36635932,1.1283008,1.2165322,124.836754,122.994606,129.90794,127.38611,0,0,0,0,0,0,0,0,0,0,0,0,-0.61856675,-0.09651442,2.3308637,2.3821416,0.81486356,0.37885904,2.5895922,2.674799,-0.005563028,-0.008294366,0.0047264136,0.0017928891,85,4,132,2,10,-1016.2996,187.51987,-1112.3344,41.481636,503860.75,632.0475,168.90945,186.7766,213.70404,213.70404,11.758117,1,611.3362,0,0,17.413328,17.413322,0,6,255,0,0,0,3,-127,211,0
True,7286015,9499.995,1203.1134,7683.3574,3.5823612,-0.5087007,6.184515,-10.231328,-0.21561304,40.77072,-0.0036270055,-0.24184273,-0.008984726,2.1793792,-0.0057979045,0.0040873475,0.39515337,0.38925722,0.5664895,0.5121139,0.52491283,0.28950658,1.0994487,1.0436882,126.028725,124.48742,127.77637,131.69377,0,0,0,0,0,0,0,0,0,0,0,0,-0.7650818,-0.26303264,2.089115,2.1190217,0.9278382,0.39115244,2.3607602,2.3621047,-0.005024217,-0.00536564,0.0048826933,0.0017322078,85,4,132,2,10,-1012.1077,187.51982,-1113.8976,42.03544,500968.8,622.8512,167.01567,183.95403,216.42407,216.42407,11.900104,1,614.7187,0,0,17.52044,17.520433,0,6,255,0,0,0,3,-127,202,0
True,7286125,9499.995,1203.1134,7694.4424,4.1304913,-0.011404805,5.839636,-8.300826,-0.24687377,41.722042,0.032826856,-0.48403147,0.0192921,2.1414099,-0.0068519795,0.005025541,0.38987508,0.3864991,0.6108585,0.5849529,0.64296716,0.5014939,0.7746568,0.67172575,127.88174,128.9288,129.62416,127.423584,0,0,0,0,0,0,0,0,0,0,0,0,-1.1557873,-0.67455935,1.4923791,1.5549527,1.3225926,0.84055126,1.6814543,1.6938398,-0.0053298622,-0.0055253506,0.0074534006,0.0059524477,85,4,132,2,10,-1008.0102,187.51898,-1115.4741,42.540493,435431.7,540.40607,165.4494,181.44493,217.39769,217.39769,12.010455,1,618.0319,0,0,17.62422,17.624214,0,6,255,0,0,0,3,-127,193,0
True,7286234,9499.995,1203.1134,7733.0083,1.7689573,-1.747055,4.4716606,-5.401514,-0.20704314,42.631233,0.037601557,-0.73033476,-0.015777655,2.07695,-0.00031646923,0.0044553014,0.37359357,0.33015868,0.52426463,0.5002936,0.44228038,0.24109773,0.6739089,0.6685156,126.616005,127.79608,127.24753,132.82593,0,0,0,0,0,0,0,0,0,0,0,0,-0.52292,-0.3157776,0.9468852,0.9245594,0.6848776,0.3972954,1.1622155,1.1409309,-0.0062726587,-0.008787796,0.0024362095,0.0010473467,85,4,132,2,10,-1003.81213,187.50754,-1117.1438,42.972565,477165.44,589.2653,164.96797,179.19656,215.39914,215.39914,12.0854025,1,621.44135,0,0,17.729918,17.729914,0,6,255,0,0,0,3,0,182,0
True,7286343,9499.995,1203.1134,7703.3794,9.797669,-0.2158576,8.439745,-0.9709482,-0.30799437,43.87368,-0.04290378,-0.67479974,0.013989163,1.9997667,-0.0024117844,0.008323013,0.43567973,0.37416768,0.6474064,0.53053576,0.24843107,0.38264787,0.34537876,0.14992167,126.98215,131.66875,127.84576,128.77357,0,0,0,0,0,0,0,0,0,0,0,0,0.3923211,0.44882387,0.02373313,0.019832281,0.46436393,0.58979845,0.34619322,0.15122773,-0.0026775002,-0.006239414,0.009570964,0.0027995557,85,4,132,2,10,-999.6326,187.48369,-1118.8785,43.885506,573790.4,711.26575,163.3789,177.02345,211.71588,211.71588,12.083484,1,624.851,0,0,17.834135,17.834131,0,6,255,0,0,0,3,0,169,0
True,7286453,9499.995,1203.1134,7909.5073,-2.3251762,-1.3984492,7.7560363,1.1386433,-0.33541012,44.67949,0.0700866,-0.43527165,-0.05306758,1.9424596,0.0005901267,0.0046327547,0.3018987,0.23181123,0.5882373,0.54711753,0.44474196,0.21879417,0.47901723,0.2778362,132.08394,131.37238,132.27522,132.20808,0,0,0,0,0,0,0,0,0,0,0,0,-0.12206178,-0.07166561,-0.34939906,-0.31914487,0.46118814,0.23023216,0.5929057,0.42313877,-0.010424219,-0.014482699,0.006142743,0.0037602931,85,4,132,2,10,-995.3987,187.45717,-1120.6897,44.695255,577987.56,698.382,161.7425,174.87886,207.83685,207.83685,12.247653,1,628.3166,0,0,17.93805,17.938044,0,6,255,0,0,0,3,0,155,0
True,7286578,9499.995,1203.1134,8092.3438,-10.969168,-0.6305234,8.240818,1.913559,-0.30396545,45.586937,-0.028267147,-0.40212277,-0.06016636,1.8944317,0.0039944127,-0.00276131,0.31959745,0.23630454,0.46736348,0.48378748,0.56366014,0.18864955,0.4885379,0.27976564,136.37192,133.94992,135.28363,134.94789,0,0,0,0,0,0,0,0,0,0.120000005,0,0,-0.72267324,-0.6329416,-0.4877781,-0.42253762,0.9164984,0.6604572,0.6903599,0.50676113,-0.009399354,-0.01422251,-0.0008606054,9.0990216E-05,85,4,132,2,10,-990.2086,187.39874,-1122.7802,45.628094,583722,689.17944,160.00717,172.54295,203.57635,203.57635,12.673219,1,632.5359,0,0,18.061928,18.061924,0,6,255,0,0,0,3,-127,140,0
True,7286687,9499.995,1203.1134,8243.165,-11.995139,-0.6280824,7.610777,2.2596416,-0.3410347,46.28064,-0.013532028,-0.32235834,-0.08102362,1.8577179,0.0029366408,-0.012974976,0.3821095,0.19522452,0.46289673,0.18941769,0.76370215,0.27063605,0.44043326,0.26568332,141.16026,137.46448,136.30305,137.4259,0,0,0,0,0,0,0,0,0,0.120000005,0,0.120000005,-0.38020387,-0.35482857,-0.51359934,-0.38740584,0.8531096,0.44625908,0.6765839,0.46975622,-0.0057795346,-0.016601287,-0.001119405,-0.0169646,85,4,132,2,10,-985.74817,187.3437,-1124.4132,46.337025,577701.9,668.6828,158.78447,170.6767,200.30597,200.30597,13.037074,1,636.12897,0,0,18.165272,18.16527,0,6,255,0,0,0,3,0,132,0
True,7286781,9499.995,1203.1134,8444.828,-11.925199,-1.123182,7.501124,2.2342577,-0.35926282,46.870045,-0.041339196,-0.23115562,-0.13420688,1.8352512,0.0048717805,-0.023911068,0.39473134,0.3235209,0.5725926,0.50969,0.7033592,0.1276003,0.51485884,0.6802281,142.99715,136.34369,140.31154,142.98967,0,0,0,0,0,0,0,0,0,0.120000005,0,0.120000005,-0.42340913,-0.2979193,-0.4796768,-0.5227413,0.82096857,0.32409528,0.7036828,0.8578862,-0.005048655,-0.009172164,0.0052363016,0.0015917644,85,4,132,2,10,-981.7409,187.29251,-1125.7521,46.924644,588419.75,666.702,157.70285,169.15392,197.60486,197.60486,13.264367,1,639.33,0,0,18.255835,18.25583,0,6,255,0,0,0,3,0,129,0
True,7286890,9499.995,1203.1134,8404.304,-13.86969,0.90112466,9.095269,1.5514956,-0.22984031,47.66541,-0.031692162,-0.11654082,0.033742595,1.8207954,0.00459081,-0.027784571,0.33959794,0.6188572,0.5809464,0.6666331,0.46152496,0.119448595,0.26048678,0.4030108,141.88434,137.92351,139.44164,141.64804,0,0,0,0,0,0,0,0,0,0.120000005,0,0.120000005,-0.43143657,-0.31657618,-0.32026926,-0.3631857,0.63177747,0.3383614,0.41282654,0.5425141,-0.008241206,0.007929567,0.0057203136,0.010684945,85,4,132,2,10,-977.4764,187.23831,-1127.0546,47.6912,591429.75,673.0852,156.7014,167.68858,194.95291,194.95291,13.444499,1,642.7107,0,0,18.350088,18.350084,0,6,255,0,0,0,3,-127,129,0
True,7287000,9499.995,1203.1134,8667.353,-8.884773,-1.8870591,6.7893267,1.0972805,-0.2620662,48.439934,0.09113597,-0.104208894,0.036371667,1.8083001,0.0070895054,-0.024304787,0.25936666,0.47799525,0.51242465,0.59659296,0.71592444,0.68551165,0.49356923,0.22538371,147.45024,147.60234,144.18213,142.6475,0,0,0,0,0,0,0,0,0,0.120000005,0,0.120000005,-0.8462705,-0.7845555,-0.2380419,-0.16229239,1.1084771,1.041851,0.5479731,0.27773482,-0.012887076,-0.00022717938,0.0017502084,0.0066268668,85,4,132,2,10,-971.9292,187.17485,-1128.5905,48.453064,551720.8,607.38007,155.50482,165.95193,191.72916,191.72916,13.756101,1,647.0746,0,0,18.46979,18.469786,0,6,255,0,0,0,3,-127,129,0
True,7287125,9499.995,1203.1134,8201.572,-10.8968525,0.08386883,2.2946465,0.8168125,-0.09285568,48.85764,0.062003195,-0.22760627,0.054748695,1.783863,0.0115266675,-0.014323496,0.25483772,0.6889874,0.43070772,0.6967842,0.028056668,-0.011774222,-0.012575612,-0.031455886,138.27094,138.91527,137.9996,138.83786,0,0,0,0,0,0,0,0,0,0.120000005,0,0.120000005,-0.9886093,-0.980499,-0.22589366,-0.23754345,0.98900735,0.9805697,0.22624344,0.23961712,-0.0131493285,0.011990521,-0.0029844157,0.012431879,85,4,132,2,10,-965.7689,187.09326,-1130.1251,48.864555,-183259.39,-212.99207,154.6735,164.2904,188.4697,188.4697,-3.1491299,1,651.8812,0,0,18.599928,18.599924,0,6,255,0,0,0,3,-92,134,0
True,7287234,9499.995,1203.1134,7548.927,-8.648518,2.605065,-0.18189454,1.0046234,-0.07258581,48.74924,-0.1653972,-0.14831312,0.16339727,1.7613996,0.007717615,0.0018513366,0.2629854,0.8070841,0.45240602,0.44589812,-0.0051657436,0.0015585411,-4.9191485E-06,0.0007983052,138.7482,139.5381,138.33226,139.04959,0,0,0,0,0,0,0,0,0,0,0,0.120000005,-0.20914628,-0.13294844,-0.21336254,-0.25900188,0.20921005,0.13295758,0.21336254,0.2590031,-0.012677528,0.018829022,-0.0017272308,-0.0021042936,85,4,132,2,10,-960.5027,187.02408,-1131.3054,48.75964,-152835.8,-192.95842,153.59792,162.9202,185.82973,185.82973,-9.574549,1,655.96545,0,0,18.710514,18.710512,0,6,255,0,0,0,4,0,143,0
True,7287328,9499.995,1203.1134,6568.056,-5.9600706,-3.6039293,1.0234904,0.84628105,-0.569733,48.829094,0.1445354,-0.0018540206,0.18801695,1.7550135,0.007915292,0.016393136,0.13524142,0.3101673,0.35788554,0.71923393,0,0.6000615,0.47058573,0.5449463,148.21568,147.59116,145.64374,146.90259,0,0,0,0,0,0,0,0,0,0,0,0,0,-0.16699587,-0.18971479,-0.19286019,0,0.62286544,0.50738806,0.57806706,-0.020074666,-0.009945415,-0.0072036833,0.013732601,85,4,132,2,10,-956.17615,186.96324,-1132.2095,48.839745,112376.74,162.68614,152.61998,161.75848,183.77936,183.77936,-6.584099,1,659.30725,0,0,18.801159,18.801159,0,6,255,0,0,0,4,0,151,0
True,7287437,9499.995,1203.1134,6257.784,-4.43799,-2.074204,5.0221343,0.38463593,-0.5200422,49.462624,0.0066472515,0.0056616305,0.11344522,1.7554969,0.017199408,0.029399835,0.039865904,0.5316825,0.29176572,0.5854942,0.13909346,0.08741151,0.09585991,0.22082135,143.17567,142.45833,142.67996,143.47556,0,0,0,0,0,0,0,0,0,0,0,0,-0.10071052,-0.05554715,-0.08165268,-0.075667895,0.17172536,0.10356765,0.12592173,0.233426,-0.025597475,0.0028816313,-0.011034623,0.005983811,85,4,132,2,10,-950.6735,186.81577,-1133.3148,49.466846,438328.06,668.9285,151.53351,160.48157,181.42053,181.42053,4.8912935,1,663.54785,0,0,18.91548,18.915482,0,6,255,0,0,0,4,0,163,0
True,7287546,9499.995,1203.1134,6356.026,-4.8730235,1.5701683,5.742713,-0.08860111,-0.19621798,50.1214,0.03264104,-0.07843452,0.102888905,1.7540085,0.018611593,0.04247121,0.4119301,0.7181773,0.59249496,0.7374203,0.19926172,0.1122907,0.19222529,0.15476418,145.68396,144.81673,145.20433,145.26334,0,0,0,0,0,0,0,0,0,0,0,0,-0.3554938,-0.27773485,-0.00796203,-0.017958183,0.4075305,0.2995761,0.19239011,0.1558026,-0.0040527433,0.01368079,0.0063894317,0.0147863105,85,4,132,2,10,-945.2197,186.68013,-1134.3481,50.121864,476689.22,716.61273,150.612,159.28384,179.20294,179.20294,8.424663,1,667.73865,0,0,19.026958,19.02696,0,6,255,0,0,0,4,-127,177,0
True,7287671,9499.995,1203.1134,6535.1855,-3.211174,-3.7321358,6.3041677,0.25744247,-0.20284772,50.7315,0.08380517,-0.13831717,0.054555986,1.7399876,0.026892718,0.05012347,0.21898854,0.4605697,0.43308386,0.60454804,0.35277218,0.26826507,0.36219472,0.32304826,149.45912,148.9167,149.41377,149.38911,0,0,0,0,0,0,0,0,0,0,0,0,-0.03536317,0.009879345,-0.08505141,-0.0865179,0.3545402,0.26844692,0.3720467,0.33443314,-0.015225209,-0.0012362227,-0.002846744,0.0070877783,85,4,132,2,10,-939.8139,186.53741,-1135.316,50.732555,498055.03,728.056,149.83658,158.24104,177.18832,177.18832,9.335603,1,671.88086,0,0,19.135902,19.135902,0,6,255,0,0,0,4,0,192,67
True,7287765,9499.995,1203.1134,6569.2397,-3.3645117,-3.0890248,6.6798396,1.0373287,-0.16952664,47.152,0.026790433,-0.05402041,0.08013029,1.7289412,0.033488493,0.055759747,0.14358045,0.3862096,0.3468766,0.49852595,0.22395119,0.14323223,0.26568684,0.2428742,150.02528,149.27783,150.45343,150.20224,0,0,0,0,0,0,0,0,0,0,0,0,-0.09405543,-0.049972285,-0.11476743,-0.10884156,0.24290031,0.15169938,0.28941503,0.26614726,-0.019591786,-0.0055421144,-0.007841535,0.00094492733,85,4,132,2,10,-934.4296,186.3473,-1136.2592,47.16371,503544.94,731.95953,149.06482,157.21065,175.3408,175.3408,9.656171,1,676.003,0,0,19.244486,19.244486,0,6,255,0,0,0,4,0,207,63
True,7287890,9499.995,1203.1134,5850.005,-4.798867,-1.0780342,-25.916689,0.48645782,-0.42056778,45.828762,-0.014424651,0.0018413814,0.037373435,1.7255713,0.031903524,0.060109824,0.30244577,0.57692176,0.4311779,0.6259187,0.2217673,0.14238727,0.22433524,0.17016478,134.13567,133.24211,134.00655,133.33395,0,0,0,0,0,0,0,0,0,0,0,0,-0.13342404,-0.08499593,-0.10655638,-0.10193662,0.2588102,0.16582654,0.24835572,0.1983611,-0.010392539,0.0055012554,-0.0029571727,0.008325979,85,4,132,2,10,-929.65674,186.15985,-1137.1005,45.833275,441235.34,719.96173,148.47324,156.35292,173.7835,173.7835,8.850955,1,679.6285,0,0,19.34911,19.349108,0,6,255,0,0,0,4,0,219,7
