IsRaceOn,TimestampMS,EngineMaxRpm,EngineIdleRpm,CurrentEngineRpm,AccelerationX,AccelerationY,AccelerationZ,VelocityX,VelocityY,VelocityZ,AngularVelocityX,AngularVelocityY,AngularVelocityZ,Yaw,Pitch,Roll,NormalizedSuspensionTravelFrontLeft,NormalizedSuspensionTravelFrontRight,NormalizedSuspensionTravelRearLeft,NormalizedSuspensionTravelRearRight,TireSlipRatioFrontLeft,TireSlipRatioFrontRight,TireSlipRatioRearLeft,TireSlipRatioRearRight,WheelRotationSpeedFrontLeft,WheelRotationSpeedFrontRight,WheelRotationSpeedRearLeft,WheelRotationSpeedRearRight,WheelOnRumbleStripFrontLeft,WheelOnRumbleStripFrontRight,WheelOnRumbleStripRearLeft,WheelOnRumbleStripRearRight,WheelInPuddleDepthFrontLeft,WheelInPuddleDepthFrontRight,WheelInPuddleDepthRearLeft,WheelInPuddleDepthRearRight,SurfaceRumbleFrontLeft,SurfaceRumbleFrontRight,SurfaceRumbleRearLeft,SurfaceRumbleRearRight,TireSlipAngleFrontLeft,TireSlipAngleFrontRight,TireSlipAngleRearLeft,TireSlipAngleRearRight,TireCombinedSlipFrontLeft,TireCombinedSlipFrontRight,TireCombinedSlipRearLeft,TireCombinedSlipRearRight,SuspensionTravelMetersFrontLeft,SuspensionTravelMetersFrontRight,SuspensionTravelMetersRearLeft,SuspensionTravelMetersRearRight,CarOrdinal,CarClass,CarPerformanceIndex,DrivetrainType,NumCylinders,PositionX,PositionY,PositionZ,Speed,Power,Torque,TireTempFl,TireTempFr,TireTempRl,TireTempRr,Boost,Fuel,Distance,BestLapTime,LastLapTime,CurrentLapTime,CurrentRaceTime,Lap,RacePosition,Accelerator,Brake,Clutch,Handbrake,Gear,Steer,NormalDrivingLine,NormalAiBrakeDifference
True,37875750,9499.995,1203.1134,2246.96,-2.1589942,0.057377283,-1.0818142,0.008053333,-0.003681365,4.6281676,-0.003157846,0.012245378,-0.0006950493,1.541934,-0.0005864305,0.0004425169,0.497125,0.51487154,0.47761938,0.4837287,-0.03131641,-0.028440367,0.0067463317,-0.046880234,13.239659,13.176786,13.040571,13.127758,0,0,0,0,0,0,0,0,0,0,0,0,-0.08385361,-0.022853825,0.018477904,0.017906172,0.08951059,0.036484953,0.019670941,0.05018354,0.00088054687,0.0019081756,-0.00026638433,8.75853E-05,85,4,132,2,10,3644.9644,181.65092,1835.651,4.628176,-7482.2373,-31.782495,166.31218,169.21683,159.33223,159.33223,-11.024997,1,0,0,0,0,117.89518,0,0,0,0,0,0,1,0,247,0
True,37880546,9499.995,1203.1134,2366.5598,4.564724,-0.003923935,0.87691456,0.48650914,-0.008190101,4.6548314,-0.014411245,0.3228944,0.023906332,1.5573151,-0.0015316819,0.0031718872,0.4990048,0.46632034,0.50590354,0.46880338,0.18677562,0.44709563,-0.025251376,0.50509185,14.434585,13.399831,14.408093,13.147501,0,0,0,0,0,0,0,0,0,0,0,0,1.040481,1.5495182,-0.08248297,-0.09869729,1.057112,1.612731,0.08626165,0.51464444,0.0009893999,-0.00090322644,0.001372382,-0.0007771775,85,4,132,2,10,3645.7915,181.65086,1835.6487,4.680194,52762.523,213.57117,165.90868,168.50629,159.12013,159.12013,-7.3844237,1,0,0,0,0,122.691185,0,0,255,0,0,0,1,127,245,0
True,37880640,9499.995,1203.1134,2863.672,2.547986,-0.051584426,7.2727637,0.5923067,-0.025899248,5.444513,-0.042809792,0.4583303,-0.030155545,1.6051353,-0.0043795,0.0036229084,0.46391323,0.38744235,0.5507397,0.504751,0.4766868,0.35644993,0.33441395,0.91026664,17.990732,15.768829,17.061111,16.245806,0,0,0,0,0,0,0,0,0,0,0,0,-0.5313365,-0.5837086,0.0746117,0.08177109,0.71382684,0.6839388,0.34263623,0.9139321,-0.0010426119,-0.0054707304,0.0039701574,0.0013056062,85,4,132,2,10,3646.3093,181.6511,1835.5754,5.476698,152493.67,510.91376,165.90526,169.11339,159.07805,159.07805,-1.2218609,1,0,0,0,0,122.79599,0,0,255,0,0,0,1,0,243,0
True,37880750,9499.995,1203.1134,3532.2637,-1.6267879,-0.07498269,11.781026,0.16715717,-0.056674547,6.7980027,-0.028147977,0.14481567,-0.012523752,1.6358277,-0.008447173,0.0010911713,0.3431767,0.35966408,0.60390425,0.6085062,1.166743,0.46809012,0.4103893,0.540139,22.131023,20.02686,20.638792,20.20099,0,0,0,0,0,0,0,0,0,0,0,0,-0.55573785,-0.48839164,0.050162748,0.04577893,1.2923366,0.6764871,0.41344368,0.5420755,-0.008033976,-0.0070792586,0.007050477,0.007317111,85,4,132,2,10,3646.954,181.65088,1835.5032,6.800293,211399.48,574.16077,166.8086,169.17235,159.08173,159.08173,2.195962,1,0,0,0,0,122.9017,0,0,255,0,0,0,1,0,241,0
True,37880875,9499.995,1203.1134,4370.6753,-0.78187954,-0.11089773,13.591956,0.011267543,-0.08157523,8.515554,-0.006017346,0.01502697,0.004122975,1.6429058,-0.010455229,0.0007451345,0.28032842,0.3184007,0.62926364,0.6490645,0.4956398,0.40897357,0.4784827,0.48088616,25.605452,25.321648,25.590815,25.525888,0,0,0,0,0,0,0,0,0,0,0,0,-0.07258064,-0.0059831985,0.010963896,0.0044825324,0.5009259,0.40901732,0.47860828,0.48090705,-0.011673264,-0.009468652,0.008519784,0.0096670315,85,4,132,2,10,3647.893,181.65158,1835.43,8.515952,285862.5,627.1886,166.80478,168.6973,159.16924,159.16924,4.265115,1,0,0,0,0,123.024414,0,0,255,0,0,0,1,0,240,0
True,37880968,9499.995,1203.1134,5240.7583,-2.9770212,-0.16203208,13.037143,-0.24677601,-0.10119882,9.857468,0.0066801435,-0.15636003,-0.009871157,1.6378834,-0.010439117,0.00012320551,0.24815476,0.32306993,0.6177911,0.6519485,1.9629636,0.77158,0.76100314,0.45938572,33.16554,30.653595,30.074898,29.9196,0,0,0,0,0,0,0,0,0,0,0,0,-1.4919517,-1.1656216,0.034390863,0.026025642,2.4655924,1.3978589,0.76177984,0.46012235,-0.013536312,-0.009198278,0.007855073,0.009834129,85,4,132,2,10,3648.8408,181.6521,1835.372,9.861074,366384.97,670.48114,167.4565,168.52687,159.28497,159.28497,5.913991,1,0,0,0,0,123.12733,0,0,255,0,0,0,1,-127,239,0
True,37881093,9499.995,1203.1134,6303.537,-3.198309,-0.18830486,14.022419,-0.34070113,-0.11808892,11.437325,-0.0042172913,-0.34849975,0.017690394,1.6052675,-0.009920358,6.976368E-05,0.25770685,0.33055034,0.5979913,0.648012,1.8034776,0.6611726,1.4031975,0.8681021,37.78069,36.1254,36.774498,36.73218,0,0,0,0,0,0,0,0,0,0,0,0,0.39862385,0.4336401,-0.10499346,-0.10471589,1.8470063,0.7906915,1.4071201,0.874395,-0.012983188,-0.008765116,0.0067078844,0.009606048,85,4,132,2,10,3650.074,181.65189,1835.3495,11.4430065,467365.62,710.4671,172.15704,169.12921,160.13481,160.13481,8.017364,1,0,0,0,0,123.243324,0,0,255,0,0,0,1,0,241,0
True,37881187,9499.995,1203.1134,7193.154,-0.85637635,-0.10052167,15.390881,-0.046875887,-0.14027469,13.062983,-0.009471713,-0.1979047,0.00025098457,1.5779969,-0.010907505,0.0012877149,0.27874878,0.29185352,0.6326842,0.6570399,1.0966061,1.474407,1.2847526,0.8959573,41.119347,43.61445,42.113136,41.58023,0,0,0,0,0,0,0,0,0,0,0,0,0.2069423,0.27071407,-0.14733881,-0.1463087,1.1159616,1.4990536,1.2931736,0.9078247,-0.011764735,-0.011005893,0.008717965,0.01012912,85,4,132,2,10,3651.33,181.65163,1835.3423,13.063818,537928.9,716.1729,172.6854,169.68224,161.77077,161.77077,9.870326,1,0,0,0,0,123.34574,0,0,255,0,0,0,1,0,244,0
True,37881296,9499.995,1203.1134,7478.305,-1.1731288,-0.19022267,14.605701,-0.0024735779,-0.15871802,14.590506,0.008432725,-0.07386004,-0.0030923565,1.564292,-0.010885413,0.0010373341,0.27022254,0.2702749,0.6370065,0.6562921,0.43128884,0.45167065,0.51010114,0.4439999,43.327938,43.77621,43.75522,43.721966,0,0,0,0,0,0,0,0,0,0,0,0,0.03825055,0.104394995,-0.056237146,-0.06155621,0.4329817,0.46357813,0.51319176,0.44824666,-0.012258455,-0.012255423,0.008968402,0.010085791,85,4,132,2,10,3652.7483,181.65205,1835.3453,14.591369,463476.03,593.1231,172.373,169.9036,162.24971,162.24971,10.971955,1,0,0,0,0,123.44796,0,0,255,0,0,0,1,0,249,0
True,37881406,9499.995,1203.1134,8189.0034,-0.605463,-0.18849081,13.941639,0.00439021,-0.16696632,16.025728,0.0064603654,-0.02094733,-0.00349225,1.5599784,-0.0099822525,0.00075758586,0.28999364,0.275269,0.6271918,0.6428571,0.3758724,0.4036999,0.47261938,0.44094738,47.485744,47.713676,47.953323,47.92334,0,0,0,0,0,0,0,0,0,0,0,0,-0.016865531,0.048942845,-0.014395046,-0.020613657,0.3762506,0.4066559,0.47283855,0.44142896,-0.0111135915,-0.011966236,0.00839974,0.009307377,85,4,132,2,10,3654.358,181.65154,1835.3599,16.026598,505597.38,590.8355,171.92796,169.514,162.2482,162.2482,12.21108,1,0,0,0,0,123.55296,0,0,255,0,0,0,1,0,0,0
True,37881531,9499.995,1203.1134,8658.87,-0.230576,-0.089800894,12.912448,0.0037933886,-0.1748375,17.474846,0.0057805246,-0.005747507,-0.0043162294,1.5586432,-0.00982784,0.00030738756,0.31497845,0.29795876,0.6253033,0.62854445,0.17201844,0.17663917,0.21228226,0.2052403,50.534588,50.58144,50.576653,50.587067,0,0,0,0,0,0,0,0,0,0,0,0,-0.029114595,0.03582669,-0.0020994567,-0.007952828,0.17446491,0.18023582,0.21229264,0.20539431,-0.009666823,-0.010652363,0.008290324,0.0084781125,85,4,132,2,10,3656.2837,181.65102,1835.3817,17.475718,-207855.12,-228.40958,171.46423,169.10287,162.23854,162.23854,8.035243,1,0,0,0,0,123.66757,0,0,255,0,0,0,1,0,10,0
True,37881640,9499.995,1203.1134,7994.385,-1.7557076,0.12772763,1.1504141,-0.130828,-0.084224895,17.395485,0.03511338,-0.06944098,-0.023064619,1.556966,-0.00507254,-0.000708166,0.45203176,0.45629576,0.55560845,0.5575632,0.003753314,-0.0012134733,0.0030212635,-0.0019524817,49.3789,49.691772,49.22841,49.534317,0,0,0,0,0,0,0,0,0,0,0,0,-0.31867784,-0.23849328,0.02397351,0.018645559,0.31869996,0.23849636,0.024163136,0.018747507,-0.0017306209,-0.0014837086,0.0042522512,0.0043655075,85,4,132,2,10,3658.3145,181.65013,1835.4095,17.396181,-173842.89,-207.23613,170.92001,168.59708,162.03232,162.03232,-7.8161817,1,0,0,0,0,123.78397,0,0,255,0,0,0,1,-78,22,0
True,37881750,9499.995,1203.1134,7272.5103,-5.999655,0.27126482,0.2206718,-0.47086883,-0.020018995,17.385572,-0.004711109,-0.3261729,-0.02086632,1.534832,-0.0034957968,-0.0032860425,0.47156247,0.55282605,0.48480752,0.52928305,0.2765636,0.120327525,0.37163466,0.12494347,50.33536,51.085094,50.712032,51.03483,0,0,0,0,0,0,0,0,0,0,0,0,-0.7856692,-0.5991254,0.017298663,0.013417394,0.8329247,0.61108917,0.37203705,0.12566184,-0.0005996749,0.0041059703,0.00015009195,0.002726972,85,4,132,2,10,3660.2292,181.65315,1835.4884,17.391958,-50542.984,-66.10818,170.5993,168.30142,161.82489,161.82489,-9.606192,1,0,0,0,0,123.89437,0,0,255,0,0,0,2,-127,36,0
True,37881843,9499.995,1203.1134,5502.37,-3.744744,-0.27601793,11.095822,-0.12497389,-0.12392931,18.73192,-0.044200808,-0.41083732,0.008784074,1.4902035,-0.007830164,-0.0032552835,0.36624384,0.45746922,0.5389965,0.60134983,0.8971588,0.48629665,0.6164225,0.25871602,56.92945,56.92598,55.695488,55.9634,0,0,0,0,0,0,0,0,0,0,0,0,0.33530086,0.3856709,-0.20490806,-0.19540489,0.95776856,0.62066615,0.6495875,0.3242176,-0.006698251,-0.0014157593,0.0032897666,0.006902475,85,4,132,2,10,3662.1384,181.65721,1835.6401,18.732746,149649.64,258.95282,171.83736,168.19933,163.19974,163.19974,-1.1818094,1,0,0,0,0,124.00066,0,0,187,0,0,0,2,0,54,0
True,37881968,9499.995,1203.1134,5368.8135,-3.4505725,-0.34344327,6.9154706,0.07934928,-0.14612423,19.445784,0.043915704,-0.15965945,0.0023323046,1.4598141,-0.007272836,-0.0028102447,0.31621814,0.38107142,0.5743282,0.63065916,0.067103215,0.04952642,0.13228615,0.042335797,55.397053,56.058186,55.591213,55.840195,0,0,0,0,0,0,0,0,0,0,0,0,0.041099336,0.10386131,-0.13921632,-0.13855082,0.07868924,0.11506536,0.19204377,0.1448746,-0.0095950365,-0.005839646,0.0053368583,0.008600637,85,4,132,2,10,3664.1943,181.65855,1835.8417,19.446495,66985.48,119.14298,171.4565,167.90846,163.12796,163.12796,-1.6377916,1,0,0,0,0,124.108376,0,0,0,0,0,0,2,0,75,0
True,37882062,9499.995,1203.1134,5273.7554,-3.7920506,-0.32594806,0.2588676,-0.06504965,-0.07518255,19.361723,0.050506495,-0.13661204,-0.004098573,1.4477797,-0.0017959445,-0.003012125,0.4138766,0.47720897,0.50465477,0.56124014,-0.026451016,-0.020638503,-0.06419139,-0.04612921,54.653336,55.336464,54.23305,54.985924,0,0,0,0,0,0,0,0,0,0,0,0,-0.17784694,-0.10873052,-0.05683845,-0.057596516,0.1798032,0.110671915,0.085738815,0.073792025,-0.003940031,-0.00027270988,0.0013000257,0.0045785457,85,4,132,2,10,3666.1528,181.65579,1836.0698,19.361979,-68323.195,-123.676216,171.02493,167.57489,162.92877,162.92877,-8.265503,1,0,0,0,0,124.20977,0,0,0,0,0,0,2,-31,97,0
True,37882187,9499.995,1203.1134,5201.189,-1.4901437,0.09140996,-2.125306,0.031497955,-0.0037385272,19.069729,0.0030496554,-0.05225795,0.010621429,1.4353026,0.0010606709,-0.0018745468,0.5013442,0.5657352,0.4599724,0.49385867,-0.023951681,-0.020761795,-0.052299324,-0.04972658,54.095493,54.358948,53.73128,53.9952,0,0,0,0,0,0,0,0,0,0,0,0,-0.01112125,0.048382476,-0.051526155,-0.05202463,0.026407674,0.05264899,0.07341774,0.07196731,0.0011248626,0.004853487,-0.0012888387,0.0006745085,85,4,132,2,10,3668.387,181.65181,1836.3651,19.069756,-66213.2,-121.52649,170.5396,167.20499,162.69815,162.69815,-10.566204,1,0,0,0,0,124.327065,0,0,0,0,0,0,2,0,121,0
True,37882281,9499.995,1203.1134,5138.1167,-0.8375442,0.07458498,-2.5385776,0.011981726,-0.00242961,18.831438,-0.0059216004,-0.0129843075,0.0110406205,1.4325379,0.000734006,-0.00082100974,0.5003562,0.55896187,0.45670325,0.48265964,-0.02316367,-0.021844516,-0.04900311,-0.047870312,53.52437,53.593937,53.180923,53.2491,0,0,0,0,0,0,0,0,0,0,0,0,-0.029078415,0.031005722,-0.017073704,-0.017345626,0.03717674,0.03792806,0.05189235,0.050915983,0.0010676533,0.00446127,-0.0014782511,2.5644898E-05,85,4,132,2,10,3670.2395,181.6499,1836.6187,18.831442,-64382.586,-119.61508,170.13834,166.89635,162.5097,162.5097,-10.92383,1,0,0,0,0,124.425766,0,0,0,0,0,0,2,0,127,0
True,37882390,9499.995,1203.1134,5056.277,-4.7313213,0.07804522,-2.7400877,-0.32571554,-0.014030157,18.536356,-0.010568991,-0.22383998,-0.016379766,1.4207513,-0.00028729282,-0.0017682443,0.484732,0.5594204,0.44459894,0.50174457,-0.031908218,-0.01968497,-0.05853226,-0.03788553,52.076553,53.203342,51.802834,52.994305,0,0,0,0,0,0,0,0,0,0,0,0,-0.5348709,-0.41411984,0.011073731,0.009979151,0.53582186,0.41458744,0.05957057,0.03917776,0.00016291812,0.00448782,-0.0021795668,0.0011314116,85,4,132,2,10,3672.3772,181.64845,1836.9424,18.539223,-62057.14,-117.15084,169.8049,166.64267,162.29376,162.29376,-11.007808,1,0,0,0,0,124.54147,0,0,0,0,0,0,2,-127,127,0
True,37882515,9499.995,1203.1134,4965.9463,-7.849533,0.08440562,-2.7702694,-0.50703764,-0.019600324,18.20464,-0.0019109203,-0.4870253,-0.01534726,1.3800322,-0.0012553445,-0.0037419419,0.45906186,0.5795791,0.43028077,0.52301,-0.045088556,-0.025958752,-0.065061286,-0.03330745,50.54846,52.979862,50.187332,52.67669,0,0,0,0,0,0,0,0,0,0,0,0,-0.5663903,-0.41807008,-0.07879025,-0.07001412,0.5681821,0.41887522,0.10218059,0.077532984,-0.001323536,0.0056551322,-0.0030091517,0.0023635179,85,4,132,2,10,3674.4224,181.64835,1837.3411,18.21171,-59507.28,-114.38895,169.67226,166.58516,162.09332,162.09332,-11.021971,1,0,0,0,0,124.65488,0,0,0,0,0,0,2,-61,0,0
True,37882625,9499.995,1203.1134,4895.6543,-3.0742402,-0.015359631,-2.5345616,0.103256226,-0.016225956,17.947714,0.0061422815,-0.3423495,0.0077527747,1.3287145,-0.001176489,-0.0021955415,0.46651605,0.56039226,0.44930595,0.50978124,-0.024583368,-0.019563196,-0.05841461,-0.039711755,50.219566,51.8541,49.83044,51.572468,0,0,0,0,0,0,0,0,0,0,0,0,0.16821694,0.22009163,-0.2945056,-0.27598807,0.17000377,0.22095937,0.30024293,0.27883047,-0.0008918941,0.004544098,-0.0019068457,0.0015970506,85,4,132,2,10,3676.4019,181.649,1837.8057,17.948017,-55289.89,-107.81189,169.43524,166.4324,161.96745,161.96745,-10.995058,1,0,0,0,0,124.767365,0,0,2,0,0,0,2,0,0,0
True,37882718,9499.995,1203.1134,4995.6924,-3.6882937,-0.08214567,0.738008,0.09919834,-0.02059496,18.007105,-0.009070185,-0.101916,0.004978151,1.3055861,-0.00097054715,-0.0019435893,0.45246148,0.5367278,0.4519038,0.50997794,0.078044586,0.061534412,0.15956639,0.0878597,51.558083,51.957233,51.826096,51.95253,0,0,0,0,0,0,0,0,0,0,0,0,-0.007461869,0.053274423,-0.124801025,-0.12026573,0.07840049,0.08139194,0.20257524,0.14894016,-0.0017057359,0.0031737834,-0.0017563291,0.00160845,85,4,132,2,10,3678.2693,181.64915,1838.28,18.00739,120202.83,229.9392,169.11867,166.2146,161.88171,161.88171,-5.611499,1,0,0,0,0,124.87486,0,0,215,0,0,0,2,0,0,0
True,37882843,9499.995,1203.1134,5284.699,-4.511508,-0.10268529,6.3893824,-0.18302155,-0.089283474,18.791805,-0.033319212,-0.17239237,-0.009393421,1.2930567,-0.004096971,-0.0021353068,0.39530057,0.47763956,0.49708846,0.56834245,0.28747833,0.15720302,0.29952654,0.17012256,54.787285,54.933372,54.782845,54.89725,0,0,0,0,0,0,0,0,0,0,0,0,-0.49149024,-0.38470757,-0.02449002,-0.025205739,0.5693913,0.4155872,0.30052605,0.1719797,-0.0050156936,-0.0002477765,0.000861641,0.0049900487,85,4,132,2,10,3680.337,181.64806,1838.858,18.792908,222113.94,401.64362,168.87067,166.0204,161.80815,161.80815,1.5087595,1,0,0,0,0,124.991776,0,0,174,0,0,0,2,-127,0,0
True,37882937,9499.995,1203.1134,5318.6406,-6.3278933,-0.25192636,4.3041763,-0.35290813,-0.13343687,19.230616,0.027558144,-0.3477535,0.001433949,1.2657253,-0.005339321,-0.0030013989,0.3691427,0.46279898,0.5180683,0.6037613,0.25347412,0.04970471,0.16612998,-0.0055017956,55.159264,55.789906,54.750645,55.38697,0,0,0,0,0,0,0,0,0,0,0,0,-0.9120893,-0.7009616,-0.05741049,-0.057277683,0.94665515,0.70272166,0.17577012,0.057541315,-0.006530389,-0.0011071339,0.0020771995,0.0070421956,85,4,132,2,10,3682.1892,181.64705,1839.4427,19.234316,42187.258,75.73111,168.8165,166.00514,161.74446,161.74446,-2.0899038,1,0,0,0,0,125.09369,0,0,9,0,0,0,2,-127,0,0
True,37883046,9499.995,1203.1134,5180.5107,-9.850024,0.3973426,-1.1024253,-0.52296686,0.027059898,19.047724,0.054676067,-0.52123183,-0.031940598,1.222548,0.0026643588,-0.00477614,0.64960754,0.70245785,0.47895515,0.57136756,-0.04096884,-0.016646972,-0.08947733,-0.033060927,52.57673,55.24182,52.29631,55.098408,0,0,0,0,0,0,0,0,0,0,0,0,-0.9431906,-0.6685938,-0.09316401,-0.084840804,0.94407994,0.66880107,0.12917323,0.09105486,0.009710193,0.012770541,-0.00018899143,0.0051653236,85,4,132,2,10,3684.046,181.63908,1840.1107,19.054916,-65626.45,-120.921074,168.87967,166.11526,161.61823,161.61823,-8.702263,1,0,0,0,0,125.196495,0,0,0,0,0,0,2,-127,0,0
True,37883156,9499.995,1203.1134,5077.628,-11.102659,-0.798703,-3.012309,-0.44729567,-0.1513823,18.632221,-0.09207594,-0.7489062,-0.030136857,1.1439369,-0.005407651,-0.006167813,0.54392165,0.6554479,0.59857506,0.67634887,-0.1287298,-0.044692572,-0.072333455,-0.026648693,50.525017,54.58915,50.857178,54.670174,0,0,0,0,0,0,0,0,0,0,0,0,-1.2305648,-0.91657776,-0.28625742,-0.23634808,1.2372798,0.91766673,0.29525486,0.23784567,0.0035903528,0.010048386,0.0067417063,0.01124787,85,4,132,2,10,3686.1096,181.64072,1841.0222,18.638203,-62631.055,-117.75354,169.06827,166.35138,161.49081,161.49081,-10.65296,1,0,0,0,0,125.31629,0,0,0,0,0,0,2,-127,0,0
True,37883281,9499.995,1203.1134,4956.142,-13.069367,0.22786273,-2.742093,-0.38977194,0.0025183633,18.27526,0.068507016,-0.80233127,-0.025339935,1.0554173,-0.0032276832,-0.0077663865,0.4148623,0.58633953,0.5832921,0.6647434,-0.08741688,-0.029142411,-0.12245703,-0.035781972,49.41275,53.602966,49.257095,53.54912,0,0,0,0,0,0,0,0,0,0,0,0,-1.2485116,-0.9049779,-0.37631845,-0.32344592,1.2515682,0.90544707,0.39574146,0.32541913,-0.003882952,0.0060466006,0.0058562234,0.010575458,85,4,132,2,10,3687.9941,181.64645,1842.0406,18.279417,-59271.008,-114.14077,169.53453,166.6021,161.43398,161.43398,-10.961874,1,0,0,0,0,125.43241,0,0,0,0,0,0,2,-127,0,0
True,37883375,9499.995,1203.1134,4870.921,-13.73236,-0.60485834,-2.7793226,-0.24162006,0.008470044,17.985628,0.03743965,-0.8821924,-0.022879219,0.9809978,0.0006529577,-0.009932103,0.39301288,0.6195557,0.4369946,0.56745094,-0.0942613,-0.027826447,-0.1779632,-0.03476363,48.380634,52.979477,48.02261,52.96127,0,0,0,0,0,0,0,0,0,0,0,0,-1.2949791,-0.9320445,-0.5356632,-0.43255517,1.2984052,0.9324598,0.56445193,0.43394986,-0.005148165,0.007970013,-0.0026201569,0.0049383976,85,4,132,2,10,3689.3354,181.64864,1842.9005,17.987251,-56918.926,-111.534485,169.97672,166.83194,161.42,161.42,-11.008525,1,0,0,0,0,125.520325,0,0,0,0,0,0,2,-127,0,0
True,37883484,9499.995,1203.1134,5047.09,-14.7969,-0.3357365,-1.5145922,-0.13842201,0.014108956,17.766987,-0.0015432235,-0.9186262,-0.016498445,0.8907253,0.0016352506,-0.012024865,0.38436761,0.6554322,0.3579177,0.53155714,0.44064885,0.06484149,0.8299373,0.017153505,50.53882,53.09934,52.469994,52.82047,0,0,0,0,0,0,0,0,0,0,0,0,-1.2808912,-0.92308885,-0.63057685,-0.4977145,1.3545676,0.9253634,1.0423162,0.49801,-0.005648777,0.010047477,-0.0072018206,0.002858732,85,4,132,2,10,3690.7556,181.64742,1843.9708,17.76753,104187.24,197.30916,170.65897,167.13048,161.48578,161.48578,-6.2096853,1,0,0,0,0,125.620026,0,0,162,0,0,0,2,-78,0,0
True,37883593,9499.995,1203.1134,5300.7456,-10.320999,-0.14763579,6.483944,0.44035816,-0.039688267,18.29264,-0.052201815,-0.8065409,0.03918649,0.80635285,-0.0020611857,-0.01103817,0.35597146,0.612471,0.39132148,0.56934595,0.3587471,0.21228781,0.9459494,0.2762657,52.27883,55.38104,55.404095,55.73755,0,0,0,0,0,0,0,0,0,0,0,0,0.33438984,0.3630696,-0.7810043,-0.6877417,0.49042434,0.42057776,1.2266979,0.74115545,-0.007293083,0.007559765,-0.005266428,0.005048193,85,4,132,2,10,3692.0337,181.64647,1845.0964,18.297985,284150.03,512.29016,170.85802,167.23024,161.91843,161.91843,1.4000425,1,0,0,0,0,125.71483,0,0,238,0,0,0,2,0,0,0
True,37883718,9499.995,1203.1134,5700.489,-10.10805,0.24808756,10.210796,0.8192282,-0.13099158,19.53672,-0.0266411,-0.4876728,-0.0018662643,0.71809304,-0.009339884,-0.009334174,0.28873026,0.48142692,0.50455105,0.66220266,0.72333616,0.21688189,0.8996648,0.36047596,58.70356,58.249832,59.757286,59.21212,0,0,0,0,0,0,0,0,0,0,0,0,-0.304917,-0.21549997,-0.70440483,-0.5991231,0.78497744,0.3057417,1.1426212,0.6992077,-0.011186749,-2.8464943E-05,0.0012940168,0.010428246,85,4,132,2,10,3693.895,181.6485,1846.9122,19.554329,338559.6,567.7476,170.72844,167.12973,163.11768,163.11768,5.8432264,1,0,0,0,0,125.852234,0,0,238,0,0,0,2,-68,0,0
True,37883812,9499.995,1203.1134,5919.911,-11.266314,-0.13579905,9.326067,0.43849945,-0.15002033,20.490318,0.015527451,-0.3960232,-0.008869328,0.6730744,-0.010112779,-0.009533722,0.24193692,0.44320044,0.50232166,0.6606715,0.92257744,0.2464232,0.6912207,0.27307814,62.67686,60.815113,61.49861,61.08999,0,0,0,0,0,0,0,0,0,0,0,0,-0.81526744,-0.6444097,-0.44871,-0.3885612,1.2311825,0.68991905,0.82409143,0.4749226,-0.013896361,-0.0022420064,0.0011648498,0.010339532,85,4,132,2,10,3695.3013,181.65443,1848.4971,20.495556,266971.53,430.82816,170.82864,167.15248,163.35872,163.35872,5.2255487,1,0,0,0,0,125.95793,0,0,185,0,0,0,2,-127,0,0
True,37883921,9499.995,1203.1134,5876.6787,-11.759549,-0.5369158,5.8253827,0.045289993,-0.14028734,21.037823,0.049206484,-0.40978378,-0.0054881684,0.63160664,-0.0070067532,-0.010058879,0.23799637,0.46328008,0.47284892,0.6459653,0.36747262,0.08931982,0.3345768,0.058829702,60.856274,61.29445,60.797714,61.102787,0,0,0,0,0,0,0,0,0,0,0,0,-0.9460848,-0.7312458,-0.27553582,-0.24223134,1.0149447,0.7366807,0.43343008,0.24927285,-0.0141245425,-0.0010792762,-0.00054278225,0.009487465,85,4,132,2,10,3696.6396,181.6577,1850.2118,21.038338,88607.88,143.95264,171.03104,167.31796,163.40672,163.40672,-0.42522526,1,0,0,0,0,126.06243,0,0,98,0,0,0,2,-101,0,0
True,37884031,9499.995,1203.1134,5730.567,-6.599466,-0.48539227,0.96083546,0.1867714,-0.07654618,21.054935,0.051481012,-0.3173979,0.031936295,0.58832544,-0.0016841039,-0.008140053,0.3368221,0.5347163,0.43927804,0.58537287,-0.03030165,-0.022041034,-0.07627489,-0.05257635,59.020878,60.565243,58.488136,60.158844,0,0,0,0,0,0,0,0,0,0,0,0,0.08351171,0.13877854,-0.27876365,-0.26525187,0.08883915,0.14051794,0.28901044,0.27041233,-0.008401945,0.0030573085,-0.002487857,0.0059767812,85,4,132,2,10,3697.9414,181.6555,1852.075,21.055902,-82583.03,-137.56427,170.96985,167.34428,163.33109,163.33109,-7.4210453,1,0,0,0,0,126.17013,0,0,0,0,0,0,2,0,0,0
True,37884140,9499.995,1203.1134,5656.4854,-4.745912,-0.033797763,-2.1615446,0.15747547,-0.0052711237,20.760324,0.008716481,-0.10279247,0.020580009,0.56733906,0.0015571474,-0.0057649054,0.4500086,0.6002166,0.41215706,0.52281976,-0.028054008,-0.021292396,-0.073922895,-0.051159695,58.751053,59.27567,58.24731,58.872215,0,0,0,0,0,0,0,0,0,0,0,0,-0.037385616,0.021800626,-0.1395236,-0.13385293,0.0467409,0.030473486,0.15789689,0.14329661,-0.0018477738,0.0068501644,-0.004059229,0.0023524947,85,4,132,2,10,3699.1672,181.65077,1853.9232,20.760923,-80168.805,-135.30135,170.74165,167.20337,163.23322,163.23322,-10.313528,1,0,0,0,0,126.27623,0,0,0,0,0,0,2,0,0,0
True,37884250,9499.995,1203.1134,5635.77,-5.8930874,0.34778056,-2.0114722,-0.1950264,0.003174223,20.529806,-0.036362663,-0.20161057,-0.0039623817,0.5545108,-0.0001374646,-0.0050401683,0.48957625,0.61957586,0.40952584,0.51785153,0.0123979775,-0.003318397,0.04181692,-0.016350994,58.13701,59.00609,58.157288,58.746098,0,0,0,0,0,0,0,0,0,0,0,0,-0.4135755,-0.31605318,-0.03891936,-0.03533176,0.4137613,0.31607062,0.057125926,0.038931843,0.00044342875,0.007971179,-0.004211679,0.0020646378,85,4,132,2,10,3700.3447,181.64891,1855.7942,20.530731,11300.965,19.15052,170.59343,167.10538,163.08333,163.08333,-8.908669,1,0,0,0,0,126.38342,0,0,63,0,0,0,2,-88,0,0
True,37884359,9499.995,1203.1134,5758.2065,-4.3214335,0.28300014,1.6652322,-0.089520454,-0.0643049,20.739227,-0.03222105,-0.25774246,0.028091246,0.5210307,-0.0052816523,-0.0042945696,0.4515841,0.56374764,0.46838596,0.5669632,0.08997052,0.08405191,0.1820852,0.05926394,59.14742,60.322742,59.54527,60.00052,0,0,0,0,0,0,0,0,0,0,0,0,0.17127302,0.23339064,-0.115694046,-0.11400927,0.19346613,0.24806434,0.21573162,0.12849252,-0.0017565414,0.004738394,-0.0008013621,0.0049101375,85,4,132,2,10,3701.5818,181.65245,1857.9235,20.739521,143804.2,238.62686,170.48933,167.04321,162.94444,162.94444,-3.3903456,1,0,0,0,0,126.50302,0,0,138,0,0,0,2,0,0,0
True,37884468,9499.995,1203.1134,6036.7803,-2.0246973,-0.22632939,5.73574,0.04813862,-0.10378578,21.431377,0.017277896,-0.063173324,0.0063797086,0.50484496,-0.0058992016,-0.0027580066,0.3877666,0.44177598,0.5341319,0.59335417,0.21707125,0.20487559,0.28870058,0.23641723,62.38119,62.610634,62.72776,62.723183,0,0,0,0,0,0,0,0,0,0,0,0,-0.014989854,0.050877746,-0.05578758,-0.059443995,0.21758819,0.21109845,0.2940413,0.24377592,-0.005451955,-0.0023244917,0.0030079111,0.0064392127,85,4,132,2,10,3702.7727,181.65712,1860.043,21.431683,331885,525.7805,170.32013,166.93369,162.87253,162.87253,2.3347178,1,0,0,0,0,126.61854,0,0,222,0,0,0,2,0,0,0
True,37884593,9499.995,1203.1134,6456.9507,-2.1728446,-0.6341416,9.867689,-0.05593109,-0.14550044,22.623787,0.005917829,-0.069690555,-0.0100103,0.49978262,-0.0040957737,-0.0026267094,0.33297816,0.3636705,0.544765,0.58417785,0.39573178,0.2689551,0.4267493,0.34598204,67.04367,66.55604,67.198494,67.0273,0,0,0,0,0,0,0,0,0,0,0,0,-0.33010694,-0.24952424,-0.013042286,-0.016526712,0.51533896,0.36687762,0.42694855,0.34637654,-0.008624531,-0.0068472624,0.0036239885,0.005907543,85,4,132,2,10,3704.0095,181.6552,1862.2904,22.624323,438981.44,650.20276,170.20735,166.85573,162.86214,162.86214,7.0154696,1,0,0,0,0,126.73504,0,0,241,0,0,0,2,-127,0,0
True,37884687,9499.995,1203.1134,6724.7417,-4.698085,-0.24836496,10.472563,-0.21178627,-0.18984185,23.687122,-0.023160845,-0.24069455,-0.021115264,0.48455346,-0.005181963,-0.004152196,0.31466615,0.37667784,0.5494493,0.5994409,0.47144097,0.21742715,0.40093094,0.23342772,70.19419,69.694534,69.71415,69.72574,0,0,0,0,0,0,0,0,0,0,0,0,-0.61518216,-0.48534918,-0.03949253,-0.03991873,0.7750521,0.53182554,0.40287128,0.23681639,-0.009684905,-0.006094061,0.0038953945,0.006791871,85,4,132,2,10,3705.0913,181.64859,1864.3331,23.688831,340563.88,483.85416,170.23108,166.86632,162.89108,162.89108,6.9668016,1,0,0,0,0,126.83475,0,0,181,0,0,0,2,-127,0,0
True,37884796,9499.995,1203.1134,6636.287,-8.488039,0.46961927,4.485343,-0.2815094,-0.16538492,24.156094,0.00165878,-0.44430396,-0.022413883,0.44587645,-0.00702781,-0.006519882,0.3497409,0.49472523,0.5413792,0.62562543,0.07603605,0.019389879,0.049233478,0.012839383,68.06944,69.890625,67.86285,69.78466,0,0,0,0,0,0,0,0,0,0,0,0,-0.8466012,-0.6471263,-0.119533405,-0.10943583,0.85000885,0.6474167,0.12927556,0.110186435,-0.0076538697,0.0007415861,0.0034278184,0.008308988,85,4,132,2,10,3706.2754,181.64476,1866.7483,24.158298,-13270.391,-19.083763,170.32057,166.97069,162.84386,162.84386,-1.6033974,1,0,0,0,0,126.94674,0,0,0,0,0,0,2,-127,0,0
True,37884921,9499.995,1203.1134,6449.5176,-11.421682,0.23710701,-2.0070546,-0.14377594,-0.06411074,23.806614,0.047585998,-0.6259643,0.0023485404,0.38397127,-0.004752274,-0.007996901,0.3983684,0.6039621,0.47246623,0.6079073,-0.1603336,-0.03968171,-0.102306664,-0.042916387,64.75227,68.66356,65.35102,68.73444,0,0,0,0,0,0,0,0,0,0,0,0,-1.1962365,-0.871511,-0.2814893,-0.24961859,1.2069336,0.8724139,0.2995044,0.253281,-0.0048380494,0.007067051,-0.0005649552,0.00728241,85,4,132,2,10,3707.3457,181.64948,1869.2378,23.807133,-107826.06,-159.5585,170.49089,167.19533,162.73044,162.73044,-9.192795,1,0,0,0,0,127.05962,0,0,0,0,0,0,2,-127,0,0
True,37885031,9499.995,1203.1134,6286.6494,-13.831479,-0.27514344,-3.1788907,0.13778925,0.025387906,23.362436,0.024740364,-0.75800925,-0.0058955993,0.3048536,-0.00023860087,-0.009510988,0.43536243,0.6473006,0.39299536,0.5601996,-0.079723194,-0.029512102,-0.3571371,-0.03135237,63.786644,67.78596,62.057117,67.92303,0,0,0,0,0,0,0,0,0,0,0,0,-1.1809437,-0.9109979,-0.5105746,-0.4088231,1.1836317,0.91147584,0.6230837,0.41002354,-0.0026958734,0.0095766075,-0.005169444,0.0045182593,85,4,132,2,10,3708.254,181.6546,1871.7715,23.362856,-101987.71,-154.76358,170.79224,167.51904,162.68317,162.68317,-10.706266,1,0,0,0,0,127.17382,0,0,0,0,0,0,2,-127,0,0
True,37885125,9499.995,1203.1134,6171.029,-15.021976,-0.3470156,-3.1838186,0.4507451,0.02887427,22.94071,0.012528421,-0.8176279,-0.022491088,0.22616652,0.000676573,-0.01142495,0.41509867,0.6503073,0.3604457,0.5405271,-0.12188534,-0.038044248,-0.31985167,-0.04765999,62.060192,66.56939,61.092243,66.743996,0,0,0,0,0,0,0,0,0,0,0,0,-1.2980552,-0.9816186,-0.6767929,-0.5447748,1.303765,0.98235554,0.7485678,0.54685557,-0.0038692653,0.009750713,-0.0070553496,0.0033784471,85,4,132,2,10,3708.885,181.65596,1873.9816,22.945156,-97702.44,-151.09932,171.30042,167.83014,162.71796,162.71796,-10.955317,1,0,0,0,0,127.27313,0,0,0,0,0,0,2,-127,0,0
True,37885234,9499.995,1203.1134,6042.783,-16.141075,-0.23769806,-2.9814491,0.7475896,0.017772883,22.494839,0.0003670723,-0.8539489,-0.012455075,0.1406339,-3.928237E-05,-0.013202648,0.38359585,0.65933806,0.33595482,0.5354745,-0.15308331,-0.03979264,-0.32429317,-0.053688064,60.41245,65.27686,59.768414,65.537056,0,0,0,0,0,0,0,0,0,0,0,0,-1.4412501,-1.0813773,-0.8406745,-0.67536175,1.4493572,1.0821092,0.9010548,0.6774924,-0.0056934655,0.010273647,-0.008474335,0.0030857027,85,4,132,2,10,3709.3657,181.65681,1876.2439,22.507265,-93114.33,-147.0738,172.14299,168.26938,162.8091,162.8091,-11.010302,1,0,0,0,0,127.37493,0,0,0,0,0,0,2,-127,0,0
True,37885359,9499.995,1203.1134,5749.146,-15.983215,-0.42509976,-2.8556957,1.0839252,0.005459969,21.952744,0.031589124,-0.8335427,-0.0003751847,0.04178786,0.0002070988,-0.014098341,0.33473602,0.65198344,0.33185554,0.5582933,-0.99711114,-0.36416677,-0.3291139,-0.06405139,53.50918,60.89421,57.990677,63.666885,0,0,0,0,0,0,0,0,0,0,0,0,-1.6085188,-1.2319906,-1.0018638,-0.8068131,1.892502,1.2846861,1.0545365,0.80935156,-0.0085227415,0.009847771,-0.008711845,0.004407808,85,4,132,2,10,3709.705,181.6568,1878.8105,21.979488,-84310.64,-139.50322,173.5495,169.3131,162.97974,162.97974,-11.022524,1,0,0,0,0,127.49133,0,0,0,78,0,0,2,-127,0,0
True,37885453,9499.995,1203.1134,5199.2886,-14.631399,-0.4646931,-7.9630833,1.3948879,0.04787324,21.002436,0.043774486,-0.82425445,0.008693556,-0.030169716,0.0031890676,-0.013705985,0.35666755,0.6650776,0.32062128,0.54635847,-1.0542725,-0.24234718,-1.5461553,-0.39064097,50.394695,59.05292,48.557167,58.643093,0,0,0,0,0,0,0,0,0,0,0,0,-1.7331333,-1.2994434,-1.1860154,-0.9861118,2.0286057,1.3218492,1.948648,1.0606681,-0.007252775,0.010606002,-0.00936275,0.0037163123,85,4,132,2,10,3709.824,181.65402,1880.6973,21.048758,-66356.305,-121.65247,175.6143,170.8752,163.86993,163.86993,-11.024353,1,0,0,0,0,127.57914,0,0,0,115,0,0,2,-127,0,0
True,37885562,9499.995,1203.1134,5277.882,-16.412064,-0.19424736,-4.446468,1.6381085,0.05093438,20.138865,-0.017509526,-0.9217028,-0.0063327486,-0.14302611,0.00276182,-0.014092128,0.38087198,0.6639181,0.29015496,0.5123487,-0.19309273,-0.05381287,-0.92875266,-0.09490497,53.147022,58.386173,49.83177,58.78571,0,0,0,0,0,0,0,0,0,0,0,0,-1.7911031,-1.3814598,-1.4352273,-1.1352619,1.8014815,1.3825076,1.7095201,1.1392219,-0.0058511943,0.010538857,-0.011127949,0.0017458089,85,4,132,2,10,3709.7913,181.64981,1883.3402,20.20544,-68428.02,-123.783264,178.3591,173.30965,166.59511,166.59511,-11.02491,1,0,0,0,0,127.70764,0,0,0,0,0,0,2,-127,0,0
True,37885687,9499.995,1203.1134,5195.603,-17.268702,0.1735468,-2.9710486,1.8226578,0.016566416,19.50382,-0.021846313,-0.9262574,-0.0036158585,-0.25236574,-0.0013574088,-0.014783438,0.35291293,0.66564924,0.3286599,0.56027544,-0.19054678,-0.042818252,-0.46470854,-0.07612047,51.329018,56.63393,50.651237,57.136314,0,0,0,0,0,0,0,0,0,0,0,0,-1.9158747,-1.4433652,-1.5552299,-1.2266155,1.925327,1.4440002,1.6231741,1.2289752,-0.0074701905,0.010639101,-0.008896999,0.0045226514,85,4,132,2,10,3709.5337,181.64816,1885.666,19.588804,-66083.055,-121.4003,180.68576,175.62096,168.26387,168.26387,-11.024985,1,0,0,0,0,127.82535,0,0,0,0,0,0,2,-127,0,0
True,37885796,9499.995,1203.1134,5064.3306,-17.57414,0.05766417,-2.2519965,1.8364563,0.0062028076,18.936834,0.007979941,-0.8939487,0.0059296805,-0.3571043,-0.004320523,-0.014643822,0.3206161,0.6597569,0.33824196,0.58491045,-0.18455343,-0.03425809,-0.3527092,-0.058201093,49.817585,54.967392,49.732388,55.544018,0,0,0,0,0,0,0,0,0,0,0,0,-1.989568,-1.5038832,-1.5945057,-1.2578781,1.9981093,1.5042734,1.63305,1.2592238,-0.009340368,0.010297902,-0.008341819,0.005949989,85,4,132,2,10,3709.0708,181.65384,1887.8268,19.025673,-62355.617,-117.491806,182.99246,178.07068,169.75998,169.75998,-11.024997,1,0,0,0,0,127.93994,0,0,0,0,0,0,2,-127,0,0
True,37885890,9499.995,1203.1134,4938.717,-16.37899,-0.5128977,-2.0352182,1.8808374,-0.0016119778,18.504923,0.04726033,-0.85857797,-0.0012440644,-0.44107538,-0.002547123,-0.013863376,0.301849,0.62676567,0.33492583,0.5775919,-0.14102799,-0.03979111,-0.39148092,-0.062276255,48.843735,53.560955,48.38448,54.17757,0,0,0,0,0,0,0,0,0,0,0,0,-2.0002027,-1.5749745,-1.6416873,-1.3006698,2.0051682,1.5754771,1.6877187,1.3021599,-0.010427095,0.008387513,-0.008533955,0.005525958,85,4,132,2,10,3708.5342,181.65767,1889.5541,18.60026,-58827.312,-113.66513,184.94193,180.08742,170.99405,170.99405,-11.024997,1,0,0,0,0,128.03613,0,0,0,0,0,0,2,-127,0,0
True,37886015,9499.995,1203.1134,4793.787,-15.57543,-0.7427588,-2.04813,1.8842812,0.024435893,17.99953,0.052407764,-0.8461712,-0.000743147,-0.5387763,0.0022955826,-0.014102312,0.31169602,0.6437394,0.3222008,0.5590432,-0.14653817,-0.038448136,-0.4351757,-0.070282124,47.423298,52.101936,46.824112,52.668957,0,0,0,0,0,0,0,0,0,0,0,0,-2.0316813,-1.573998,-1.6808251,-1.3466907,2.0369592,1.5744675,1.7362462,1.3485234,-0.009856895,0.009370394,-0.009271234,0.00445126,85,4,132,2,10,3707.7375,181.65628,1891.5026,18.097908,-54880.945,-109.24939,187.37042,182.50395,172.51657,172.51657,-11.024997,1,0,0,0,0,128.15092,0,0,0,0,0,0,2,-127,0,0
True,37886109,9499.995,1203.1134,4668.2183,-16.64035,-0.31353128,-1.9274206,1.7438326,0.054943323,17.544107,0.006139258,-0.8882647,0.0053980267,-0.6262959,0.003946415,-0.014372257,0.34379083,0.6634939,0.29183388,0.54195684,-0.12381603,-0.03178942,-0.536936,-0.0622369,46.31486,51.094357,45.07378,51.581722,0,0,0,0,0,0,0,0,0,0,0,0,-1.9366353,-1.4621673,-1.693979,-1.3266435,1.9405892,1.4625129,1.7770383,1.3281026,-0.007998414,0.010514293,-0.011030674,0.0034612864,85,4,132,2,10,3706.903,181.65218,1893.1007,17.630646,-51515.367,-105.318726,189.38113,184.60509,173.8748,173.8748,-11.024998,1,0,0,0,0,128.25194,0,0,0,0,0,0,2,-127,0,0
True,37886218,9499.995,1203.1134,4552.4077,-16.963463,-0.17963767,-1.9539032,1.6082749,0.022305325,17.018698,-0.014832135,-0.9037485,-0.009069605,-0.73038024,0.001989294,-0.014755449,0.34703273,0.65846425,0.300952,0.5344144,-0.10479855,-0.03079999,-0.42092854,-0.060977273,45.025352,49.75962,44.182045,50.1735,0,0,0,0,0,0,0,0,0,0,0,0,-1.8244847,-1.3964303,-1.6698368,-1.3040886,1.827492,1.3967699,1.7220731,1.3055135,-0.0078106895,0.01022305,-0.010502376,0.00302428,85,4,132,2,10,3705.7942,181.64717,1894.7861,17.094534,-48605.242,-101.892296,191.21921,186.49326,175.40945,175.40945,-11.024998,1,0,0,0,0,128.36824,0,0,0,0,0,0,2,-127,0,0
True,37886343,9499.995,1203.1134,4436.4346,-17.211834,0.15152267,-1.9109616,1.4014106,-0.0009573549,16.515572,-0.023810701,-0.90882885,0.0059737144,-0.83593214,-0.002218379,-0.014819265,0.32628182,0.66911834,0.32679144,0.57542217,-0.1311759,-0.025783444,-0.3186764,-0.056826316,43.618427,48.487225,43.276157,48.80043,0,0,0,0,0,0,0,0,0,0,0,0,-1.7435415,-1.2866983,-1.5905669,-1.248827,1.748469,1.2869567,1.6221768,1.2501192,-0.009012289,0.010839984,-0.009005256,0.005400244,85,4,132,2,10,3704.545,181.64584,1896.2866,16.574923,-45720.516,-98.35445,192.5989,187.9106,176.72018,176.72018,-11.024998,1,0,0,0,0,128.48433,0,0,0,0,0,0,2,-127,0,0
True,37886437,9499.995,1203.1134,4340.7866,-17.230293,0.10998717,-1.8909607,1.1308427,-0.0053835735,16.118591,0.007003652,-0.8777692,0.00029733835,-0.9241758,-0.0045110085,-0.014339239,0.31292647,0.65826553,0.34996772,0.6007817,-0.106956586,-0.024519306,-0.27022776,-0.043964144,42.777184,47.375492,42.43447,47.641514,0,0,0,0,0,0,0,0,0,0,0,0,-1.5967399,-1.2068179,-1.4460696,-1.1231236,1.6003181,1.2070669,1.4711018,1.1239839,-0.009785645,0.010211542,-0.007662438,0.0068695582,85,4,132,2,10,3703.3845,181.64958,1897.4053,16.158213,-43375.01,-95.36684,193.34506,188.63873,177.51495,177.51495,-11.024998,1,0,0,0,0,128.58293,0,0,0,0,0,0,2,-127,0,0
True,37886546,9499.995,1203.1134,4240.195,-16.451338,-0.30239898,-1.8545704,0.8562665,-0.007813543,15.750165,0.03282665,-0.84916896,0.0031847246,-1.0126103,-0.0034833746,-0.01376148,0.30478403,0.6486136,0.33036387,0.5890281,-0.09655401,-0.02426012,-0.29230657,-0.042279214,41.945164,46.345615,41.367096,46.514366,0,0,0,0,0,0,0,0,0,0,0,0,-1.4533787,-1.0998734,-1.2960819,-1.00936,1.4565824,1.1001409,1.3286352,1.0102451,-0.01025714,0.009652637,-0.008798271,0.006188564,85,4,132,2,10,3702.0947,181.6542,1898.4131,15.773424,-41011.785,-92.310074,193.68684,188.83905,177.83159,177.83159,-11.024998,1,0,0,0,0,128.68553,0,0,0,0,0,0,2,-127,0,0
True,37886656,9499.995,1203.1134,4153.5835,-17.353619,-0.42148393,-1.7128525,0.5603261,0.009992592,15.420123,0.031178245,-0.85009056,-0.002282049,-1.0928234,-0.0013284514,-0.013533761,0.3338261,0.6562826,0.31621712,0.5730881,-0.0910067,-0.027047776,-0.30927244,-0.038485233,41.16654,45.51826,40.38793,45.605366,0,0,0,0,0,0,0,0,0,0,0,0,-1.3120307,-0.9877573,-1.1410173,-0.88109726,1.3151832,0.9881276,1.1821886,0.8819373,-0.008575432,0.010096718,-0.009617925,0.0052650087,85,4,132,2,10,3700.8457,181.65683,1899.2006,15.430303,-39021.95,-89.68612,193.89038,188.84755,177.7186,177.7186,-11.024998,1,0,0,0,0,128.78023,0,0,0,0,0,0,2,-82,0,0
True,37886765,9499.995,1203.1134,4091.8936,-7.9329815,-0.2687859,-1.4659632,0.91863585,0.0005113445,15.057802,0.0069659385,-0.6402927,0.019552998,-1.197797,-1.1992872E-05,-0.010099201,0.4041234,0.62072164,0.34821692,0.53992796,-0.02605752,-0.0002251502,-0.15216756,-0.056158915,41.346745,44.30134,40.5575,44.040398,0,0,0,0,0,0,0,0,0,0,0,0,-0.03300573,0.027905641,-1.148621,-0.97849643,0.04205202,0.02790655,1.1586566,0.98010665,-0.0045048,0.008037526,-0.0077638775,0.0033437312,85,4,132,2,10,3699.0105,181.65753,1900.1207,15.085798,-37633.773,-87.78787,192.7127,187.92001,177.31918,177.31918,-11.024998,1,0,0,0,0,128.91502,0,0,0,0,0,0,2,0,0,0
True,37886890,9499.995,1203.1134,4034.2693,-10.073176,-0.088500164,-1.4373462,0.6418166,0.002053935,14.831475,0.0024676556,-0.37379378,-0.005660285,-1.2518139,-0.00013122984,-0.00982987,0.41794568,0.6037882,0.3693271,0.5336046,-0.027304994,-0.013769299,-0.14725678,-0.0371674,41.285233,43.07451,40.595978,42.84932,0,0,0,0,0,0,0,0,0,0,0,0,-0.10087878,-0.03252216,-0.761957,-0.64558005,0.10450881,0.035316914,0.77605605,0.64664906,-0.0037044063,0.0070569813,-0.006540768,0.0029773638,85,4,132,2,10,3697.549,181.65704,1900.7367,14.845357,-36349.086,-86.01659,191.62393,187.04909,177.01993,177.01993,-11.024998,1,0,0,0,0,129.02101,0,0,0,0,0,0,2,0,0,0
True,37886984,9499.995,1203.1134,3993.9905,-7.9203424,-0.1752076,-1.6051536,0.10615921,-0.016520634,14.62644,2.6305672E-05,-0.082398064,0.025685493,-1.2743553,-0.00021200463,-0.009128225,0.4156113,0.59481305,0.38192686,0.5320234,-0.02189042,-0.01727934,-0.046604503,-0.030286005,41.418507,41.794033,41.13914,41.616783,0,0,0,0,0,0,0,0,0,0,0,0,-0.030688504,0.030236082,-0.15256746,-0.14379458,0.037695818,0.034825224,0.15952684,0.1469494,-0.0038395822,0.006537266,-0.005810745,0.0028857477,85,4,132,2,10,3696.0583,181.6563,1901.243,14.626835,-35473.492,-84.791885,190.58478,186.2201,176.53445,176.53445,-11.024998,1,0,0,0,0,129.12791,0,0,0,0,0,0,2,0,0,0
True,37887109,9499.995,1203.1134,3940.386,-2.1459727,-0.04777846,-1.6165545,-0.004828453,-0.01995779,14.425022,0.004848981,-0.008357909,0.02777957,-1.2781119,4.9149385E-06,-0.005518941,0.45163584,0.5616435,0.43084395,0.52122945,-0.030799758,-0.005860432,-0.032969594,-0.031111019,41.09295,41.018833,40.799374,40.83827,0,0,0,0,0,0,0,0,0,0,0,0,-0.02709436,0.03384761,-0.01260459,-0.013376695,0.041021086,0.034351207,0.03529688,0.0338649,-0.0017535463,0.004616551,-0.0029765218,0.0022603534,85,4,132,2,10,3694.431,181.65405,1901.7386,14.425036,-34326.004,-83.16453,189.50748,185.37027,175.88408,175.88408,-11.024998,1,0,0,0,0,129.24501,0,0,0,0,0,0,2,0,0,0
True,37887203,9499.995,1203.1134,3790.078,-0.34479502,0.013091984,-1.0633725,-0.007834196,-0.011698174,14.326257,-0.0015235522,-0.00090139074,0.015560056,-1.2784505,0.00033166425,-0.0033429202,0.48010463,0.5366938,0.4536916,0.50599885,0.00017108736,0.00022805012,0.00017201685,0.00022856299,40.844894,40.84927,40.700027,40.704544,0,0,0,0,0,0,0,0,0,0,0,0,-0.028365074,0.032170225,-0.0003879702,-0.0012500786,0.02836559,0.032171033,0.0004243945,0.0012708019,-0.00010503456,0.0031718165,-0.0016527437,0.0013779029,85,4,132,2,10,3693.027,181.6522,1902.1604,14.326264,-31295.893,-78.73607,188.6261,184.67302,175.33052,175.33052,-11.024998,1,0,0,0,0,129.3471,0,0,0,0,0,0,2,0,0,0
True,37887312,9499.995,1203.1134,4632.4556,0.03197153,0.05045058,-0.42918435,-0.0038990974,-0.017675914,14.305086,-0.011004253,-5.7203717E-05,0.005896101,-1.2784822,-0.00048533964,-0.0021491135,0.4955278,0.51170146,0.46791178,0.4964743,0.00027150864,0.0002784469,0.0002728881,0.00027465087,40.798103,40.798317,40.653477,40.65365,0,0,0,0,0,0,0,0,0,0,0,0,-0.02897479,0.031343393,0.0006650797,0.00017576,0.028976062,0.03134463,0.00071888726,0.00032607466,0.0007880591,0.001724612,-0.0008288361,0.00082605705,85,4,132,2,10,3691.423,181.65059,1902.6422,14.305099,270711.56,563.55927,187.67601,183.91933,174.72235,174.72235,-0.8734331,1,0,0,0,0,129.46411,0,0,159,0,0,0,1,0,0,0
True,37887437,9499.995,1203.1134,6779.3105,-0.035904124,0.11985712,-0.09082187,-0.0009047985,-0.025417633,14.283755,-0.012596005,-6.722919E-05,0.0005545113,-1.2784854,-0.0019311918,-0.0018187609,0.5022407,0.4965622,0.48091722,0.49503556,0.00033630247,0.00033799408,0.0003359242,0.00033404457,40.73939,40.739693,40.594994,40.59528,0,0,0,0,0,0,0,0,0,0,0,0,-0.029667323,0.030912811,0.0004954643,-9.0432644E-05,0.029669229,0.030914659,0.00059860665,0.00034606914,0.0011767782,0.000847958,-7.531047E-05,0.0007426962,85,4,132,2,10,3689.8518,181.65004,1903.1149,14.283778,487362.3,692.0438,186.80383,183.2262,174.16302,174.16302,6.944951,1,0,0,0,0,129.5789,0,0,163,0,0,0,1,0,0,0
True,37887531,9499.995,1203.1134,7072.2017,-0.0044909418,0.08335407,1.5272017,0.0006995201,-0.03933102,14.4439125,-0.015986016,-0.00012332489,-0.001599119,-1.2784923,-0.0034837418,-0.0018859206,0.4892468,0.4781828,0.49855167,0.5029631,0.032614883,0.033300072,0.05264788,0.052203756,41.342434,41.345715,41.29083,41.2879,0,0,0,0,0,0,0,0,0,0,0,0,-0.030829022,0.031121569,0.0004953312,-0.00072542223,0.044879384,0.045579016,0.052650213,0.052208796,0.00042435154,-0.00021632016,0.00094641745,0.0012020133,85,4,132,2,10,3688.4934,181.65083,1903.5238,14.443966,41717.367,56.33602,186.10175,182.66872,173.7281,173.7281,-1.1393852,1,0,0,0,0,129.67781,0,0,85,0,0,0,1,0,0,0
True,37887640,9499.995,1203.1134,6869.57,0.015971899,-0.034959987,-1.8395051,0.0015747547,-0.03559642,14.237511,0.02355794,2.7804226E-05,-0.0020343503,-1.2785002,-0.0029548816,-0.002122805,0.4859816,0.4779807,0.5023786,0.50047886,-0.038864404,-0.04605747,-0.09154797,-0.09071656,40.34884,40.392994,40.0065,40.006863,0,0,0,0,0,0,0,0,0,0,0,0,-0.03120371,0.030262865,0.000544023,-0.0013758673,0.049840882,0.05511018,0.09154959,0.090727,0.00023527816,-0.0002280213,0.0011681467,0.0010580793,85,4,132,2,10,3686.9045,181.65207,1904.0022,14.237555,-124150.84,-172.43784,185.33054,182.0556,173.25253,173.25253,-8.38751,1,0,0,0,0,129.79301,0,0,0,0,0,0,1,0,0,0
True,37887765,9499.995,1203.1134,6633.3335,-0.025439978,-0.03676744,-3.8741083,0.0013027191,-0.0021907063,13.750967,0.01818576,0.00044122429,-0.00095470436,-1.2784977,-0.00019058917,-0.0022791806,0.5247258,0.52447104,0.47076622,0.46743858,0.008284754,-0.09152294,-0.096253,-0.09459358,38.701157,39.11498,38.67503,38.65705,0,0,0,0,0,0,0,0,0,0,0,0,-0.030738868,0.029473463,-0.0005954186,-0.0013671885,0.031835753,0.09615161,0.09625485,0.09460346,0.002478797,0.0024640448,-0.00066345185,-0.00085625425,85,4,132,2,10,3685.3433,181.65236,1904.4723,13.750966,-114888.69,-165.25278,184.61328,181.48726,172.82031,172.82031,-10.582369,1,0,0,0,0,129.9096,0,0,0,0,0,0,1,0,0,0
True,37887859,9499.995,1203.1134,6441.293,-0.061864376,-0.025255077,-4.0934424,-0.026191473,0.00995355,13.342927,0.0031111399,-0.010909475,-0.010322305,-1.2785614,0.00081076246,-0.002319825,0.53335404,0.54405636,0.4542216,0.45177075,0.012157171,-0.08819883,-0.10026557,-0.08283377,37.54711,37.97564,37.544224,37.568142,0,0,0,0,0,0,0,0,0,0,0,0,-0.27278903,-0.2030613,0.005270734,0.0054996745,0.27305982,0.22138862,0.10040401,0.08301614,0.0029784255,0.0035981499,-0.0016220361,-0.0017640367,85,4,132,2,10,3684.0698,181.65233,1904.8553,13.342957,-107614.39,-159.40573,184.05038,181.04047,172.4786,172.4786,-10.926628,1,0,0,0,0,130.0078,0,0,0,0,0,0,1,-25,0,0
True,37887984,9499.995,1203.1134,6200.017,-6.0365767,-0.030408248,-4.2119904,-0.5250385,0.0005475404,12.848511,-0.0027162451,-0.3689,-0.020522328,-1.2997507,0.000504994,-0.0050102505,0.4823208,0.5857197,0.43102983,0.47449285,-0.097258486,-0.036848534,-0.09536234,-0.06442677,35.233147,37.19771,35.242622,37.180176,0,0,0,0,0,0,0,0,0,0,0,0,-1.0825881,-0.8008121,0.018829966,0.017439516,1.0869482,0.80165946,0.09720362,0.06674538,2.329424E-05,0.0060107075,-0.002965752,-0.00044753402,85,4,132,2,10,3682.593,181.65196,1905.2524,12.859235,-98855.305,-152.11328,183.63702,180.74445,172.09941,172.09941,-11.00853,1,0,0,0,0,130.1246,0,0,0,0,0,0,1,-127,0,0
True,37888078,9499.995,1203.1134,5978.7,-8.707656,-0.025837928,-4.6341667,-0.76641166,-0.002535956,12.397271,0.0035482121,-0.65248674,-0.012802105,-1.3510518,0.00019083614,-0.006730915,0.4410423,0.6211154,0.41325843,0.49207258,-0.15965527,-0.057919372,-0.10110232,-0.03690558,33.08773,36.664837,33.351665,36.529655,0,0,0,0,0,0,0,0,0,0,0,0,-1.5834659,-1.0801694,-0.09877199,-0.08351638,1.5914943,1.0817212,0.14134209,0.091307215,-0.002366975,0.008060329,-0.003995415,0.0005710237,85,4,132,2,10,3681.3762,181.65187,1905.4927,12.4209385,-91140.61,-145.41553,184.21417,180.82248,171.79796,171.79796,-11.021339,1,0,0,0,0,130.2228,0,0,0,0,0,0,1,-127,0,0
True,37888187,9499.995,1203.1134,5733.7603,-10.914845,-0.08022551,-4.576844,-0.9371398,-0.00035041198,11.858412,0.011527966,-0.88054734,-0.009588469,-1.4408782,0.0005091411,-0.008032141,0.4188209,0.6518888,0.38830167,0.50528145,-0.15268861,-0.07177512,-0.16751346,0.0074132774,31.540833,36.15441,31.314093,35.32699,0,0,0,0,0,0,0,0,0,0,0,0,-1.3619053,-0.8920891,-0.23027019,-0.18356355,1.3704379,0.8949719,0.28475448,0.18371317,-0.0036537275,0.0098422915,-0.0054413937,0.0013363361,85,4,132,2,10,3679.9778,181.65192,1905.6407,11.895384,-82925.62,-137.94582,185.2902,180.96176,171.50092,171.50092,-11.024379,1,0,0,0,0,130.33858,0,0,0,0,0,0,1,-127,0,0
True,37888296,9499.995,1203.1134,5533.9717,-12.238062,-0.08761227,-4.678815,-1.0513797,0.004553984,11.411236,0.010810093,-1.0264864,-0.0056779115,-1.5375227,0.0008215111,-0.008818925,0.4088115,0.65763927,0.36549646,0.5143755,-0.13201621,-0.043932546,-0.14671202,-0.035423756,30.259794,35.38954,29.502073,34.66946,0,0,0,0,0,0,0,0,0,0,0,0,-1.2369123,-0.7923331,-0.32586464,-0.24961752,1.2439374,0.79355013,0.3573684,0.25211853,-0.0042333305,0.010175277,-0.006762713,0.0018632412,85,4,132,2,10,3678.802,181.65227,1905.6362,11.459568,-76376.49,-131.67772,185.66241,181.00504,171.29593,171.29593,-11.024867,1,0,0,0,0,130.43938,0,0,0,0,0,0,1,-127,0,0
True,37888421,9499.995,1203.1134,5394.4,-4.0747337,-0.13032988,-2.8853498,-0.3648802,-0.004950852,11.106168,-0.011306067,-0.68660206,0.045588,-1.6518794,0.00034552466,-0.0055181063,0.44789177,0.6260066,0.3856634,0.50436383,-0.026941482,-0.009782858,-0.042782146,-0.022501888,29.939367,33.232258,29.78529,33.15526,0,0,0,0,0,0,0,0,0,0,0,0,1.0938637,1.0579762,-0.5188214,-0.45983905,1.0941955,1.0580214,0.5205824,0.4603893,-0.0019703507,0.008343559,-0.0055942535,0.0012831725,85,4,132,2,10,3677.4695,181.65215,1905.4977,11.112161,-15123.21,-26.76996,185.35129,180.85393,171.14607,171.14607,-10.049887,1,0,0,0,0,130.55847,0,0,81,0,0,0,1,0,0,0
True,37888515,9499.995,1203.1134,5682.3936,-1.0726926,0.0913597,2.2177303,-0.028439999,-0.021591976,11.391304,-0.043074597,-0.10566462,0.019759402,-1.6862406,-0.0025783037,-0.0023303502,0.4558112,0.54409426,0.4536446,0.5229585,0.14131378,0.1447007,0.27098054,0.17898667,32.794777,33.308506,33.151173,33.357468,0,0,0,0,0,0,0,0,0,0,0,0,0.11141269,0.17167439,-0.1024772,-0.10009231,0.17995101,0.22452258,0.28971025,0.20507242,-0.0015117675,0.0036003478,-0.0016554669,0.002360534,85,4,132,2,10,3676.3257,181.65236,1905.3647,11.391359,203365.16,342.41296,185.05838,180.75931,171.04666,171.04666,-2.9281855,1,0,0,0,0,130.66148,0,0,211,0,0,0,1,0,0,0
True,37888640,9499.995,1203.1134,6576.3896,-0.38452196,-0.02040409,11.195573,-0.009981632,-0.096511275,12.771564,-0.05205758,-0.014274204,0.009659688,-1.6910913,-0.008906866,-0.000617656,0.3760982,0.40839475,0.56806976,0.6117774,0.45383814,0.5160585,0.49781105,0.46887112,38.243504,38.545246,38.438477,38.399162,0,0,0,0,0,0,0,0,0,0,0,0,-0.013365332,0.052772343,-0.007673731,-0.012038451,0.4540349,0.5187497,0.4978702,0.46902564,-0.0061276257,-0.004257463,0.0049742498,0.0075066425,85,4,132,2,10,3674.9102,181.65381,1905.1941,12.771931,471553.56,686.94794,184.57036,180.50415,170.9548,170.9548,6.288129,1,0,0,0,0,130.7801,0,0,255,0,0,0,1,0,0,0
True,37888734,9499.995,1203.1134,7270.269,-0.15090144,-0.035272904,13.837377,-0.0060015917,-0.14421473,14.213864,-0.009431561,-0.005788802,0.0041861217,-1.6919857,-0.012239446,3.931776E-05,0.30818018,0.31349272,0.63872695,0.6584195,0.4233747,0.50892764,0.43278152,0.4220244,42.355927,42.726524,42.436565,42.417915,0,0,0,0,0,0,0,0,0,0,0,0,-0.025175562,0.042186286,0.001003664,-0.0059107877,0.42412257,0.5106731,0.4327827,0.4220658,-0.010060482,-0.009752855,0.009068079,0.010209054,85,4,132,2,10,3673.568,181.65613,1905.0304,14.214597,455724.28,600.16785,184.25674,180.39319,170.95325,170.95325,9.741889,1,0,0,0,0,130.8801,0,0,255,0,0,0,1,0,0,0
True,37888843,9499.995,1203.1134,8066.5454,-0.5624305,-0.26969323,13.455665,-0.05122459,-0.16457723,15.745168,0.016796583,-0.028317524,-0.013026274,-1.6927547,-0.011444319,-0.00012740536,0.28344437,0.27622113,0.6368788,0.64846665,0.56678855,0.40079406,0.48435053,0.42363867,47.534306,46.8793,47.142063,47.00021,0,0,0,0,0,0,0,0,0,0,0,0,-0.3656876,-0.2840711,0.011953299,0.004591203,0.6745196,0.4912558,0.484498,0.42366356,-0.0114928335,-0.011911102,0.008961,0.009632394,85,4,132,2,10,3671.8733,181.65903,1904.8225,15.74611,510016.3,605.2742,183.9002,180.24065,170.93423,170.93423,11.784772,1,0,0,0,0,130.99391,0,0,255,0,0,0,1,-78,0,0
True,37888953,9499.995,1203.1134,8823.43,-3.7556124,-0.3968901,11.79863,-0.28136182,-0.16932333,17.061798,0.030900447,-0.22882672,-0.01492809,-1.7066765,-0.008829566,-0.001949762,0.26360598,0.3074141,0.60816467,0.6356179,1.1903788,0.46460807,0.57621145,0.3528271,53.813686,51.48295,51.021343,51.000084,0,0,0,0,0,0,0,0,0,0,0,0,-1.0619053,-0.8396125,-0.010189869,-0.015903467,1.5951941,0.95958835,0.5763015,0.35318533,-0.012641594,-0.0101048425,0.007297322,0.008887947,85,4,132,2,10,3670.077,181.65904,1904.5728,17.064959,483007.66,523.77094,183.90906,180.20508,170.94632,170.94632,13.4348,1,0,0,0,0,131.1042,0,0,255,0,0,0,1,-127,0,0
True,37889062,9499.995,1203.1134,8871.545,-5.8265386,-0.6437804,8.963015,-0.35232782,-0.15504159,18.032991,0.073134094,-0.3902194,-0.023221876,-1.741521,-0.0034561947,-0.0032028777,0.3488284,0.44762477,0.573791,0.611861,0.57149035,0.063428774,0.08776239,0.049762674,52.6283,52.409813,50.62785,52.342457,0,0,0,0,0,0,0,0,0,0,0,0,-1.0491855,-0.8007745,-0.08699981,-0.08463532,1.1947349,0.8032827,0.123576716,0.098180756,-0.007706709,-0.0019858107,0.0053057373,0.0075114854,85,4,132,2,10,3668.159,181.65256,1904.2428,18.037102,-217691.16,-233.7574,185.59842,180.3349,170.97299,170.97299,3.964507,1,0,0,0,0,131.21458,0,0,255,0,0,0,1,-127,0,0
True,37889171,9499.995,1203.1134,8274.247,-10.762532,0.26546866,-0.76958966,-0.5866842,-0.01496187,17.769424,-0.020886542,-0.64255995,-0.015276916,-1.7989621,0.0015311873,-0.006282539,0.50564545,0.6656901,0.4911246,0.58436716,0.008915842,-0.00084951706,0.009758489,-0.0013521113,49.14553,52.195816,49.004673,52.04675,0,0,0,0,0,0,0,0,0,0,0,0,-0.93360436,-0.67080665,-0.15908238,-0.1371403,0.9336469,0.6708072,0.1593814,0.13714698,0.0013739318,0.010641471,0.000516098,0.0059185103,85,4,132,2,10,3666.214,181.64519,1903.798,17.779112,-187337.69,-215.76971,185.51474,180.43756,170.79237,170.79237,-8.300737,1,0,0,0,0,131.32597,0,0,246,0,0,0,1,-127,0,0
True,37889296,9499.995,1203.1134,7582.7754,-12.77527,0.6020664,-1.1152315,-0.5519762,-0.04020222,17.631357,0.004061491,-0.7842886,-0.012542996,-1.8816329,-0.002963045,-0.007852243,0.4293735,0.64214224,0.55032474,0.6725426,0.23379,0.03564213,0.5534452,0.0016151184,49.729534,52.41948,50.581177,52.22203,0,0,0,0,0,0,0,0,0,0,0,0,-1.1948986,-0.8675672,-0.27924052,-0.23253974,1.2175552,0.868299,0.6199007,0.23254535,-0.003042668,0.009277906,0.0039461143,0.011027336,85,4,132,2,10,3664.3225,181.64143,1903.2109,17.64004,-114781.266,-144.10605,185.41977,180.57407,170.64948,170.64948,-10.325824,1,0,0,0,0,131.4379,0,0,229,0,0,0,2,-127,0,0
True,37889406,9499.995,1203.1134,5743.7046,-9.710945,-0.07469581,9.554492,0.026038647,-0.07241766,18.741415,-0.02449025,-0.90295345,-0.012624796,-1.978217,-0.0052822637,-0.008052623,0.32030976,0.53743815,0.50927925,0.6542693,2.478222,0.4268109,1.3575071,0.39114535,63.279312,57.70803,58.30325,57.996822,0,0,0,0,0,0,0,0,0,0,0,0,-1.5111237,-1.1253995,-0.62612236,-0.5261669,2.9025986,1.203616,1.494943,0.65562665,-0.009358108,0.003214918,0.0015679672,0.009968594,85,4,132,2,10,3662.4148,181.6453,1902.454,18.741573,17252.756,28.556385,188.50177,181.28091,173.15353,173.15353,-6.1279545,1,0,0,0,0,131.5512,0,0,97,0,0,0,2,-127,0,0
True,37889500,9499.995,1203.1134,5210.0503,-13.663707,-0.2588764,4.313778,0.16671658,-0.09703052,19.003952,0.023810217,-0.83065337,-0.026014913,-2.0607882,-0.005864966,-0.009814165,0.28115925,0.51958865,0.4701923,0.63757527,0.2289459,0.007792293,0.057073995,0.0021254683,52.55084,55.653233,52.163406,55.951736,0,0,0,0,0,0,0,0,0,0,0,0,-1.627793,-1.1862423,-0.6756089,-0.5400481,1.6438146,1.186268,0.67801535,0.5400523,-0.011625156,0.002181325,-0.0006967038,0.009001352,85,4,132,2,10,3660.7783,181.64705,1901.6766,19.00493,-66810.98,-122.24605,191.01581,182.03383,173.53305,173.53305,-8.500179,1,0,0,0,0,131.64679,0,0,0,0,0,0,2,-127,0,0
True,37889609,9499.995,1203.1134,5033.2466,-15.653898,-0.06282392,-1.4715276,0.11959648,-0.032264054,18.640211,0.031559475,-0.8422238,-0.019294374,-2.15285,-0.0032153712,-0.011751676,0.3583182,0.63509756,0.39845756,0.59025764,-0.10631074,-0.031349305,-0.20743987,-0.034131743,49.940056,54.458065,49.78655,54.7229,0,0,0,0,0,0,0,0,0,0,0,0,-1.546717,-1.1300435,-0.68321633,-0.54143643,1.5503663,1.1304783,0.71401393,0.54251117,-0.0071571916,0.0088699795,-0.004852969,0.0062598027,85,4,132,2,10,3658.9753,181.64882,1900.6227,18.640621,-61438.715,-116.497375,192.11655,183.04259,173.41574,173.41574,-10.562529,1,0,0,0,0,131.75768,0,0,0,0,0,0,2,-127,0,0
True,37889734,9499.995,1203.1134,4905.725,-16.028522,-0.2645644,-2.6139708,0.105612755,0.0069687814,18.159708,0.028008662,-0.8750868,-0.0012226328,-2.2630236,-0.0013378639,-0.012594864,0.3444653,0.65902907,0.34876743,0.5612526,-0.12820067,-0.031015512,-0.19365202,-0.03670244,48.462772,53.234745,48.45268,53.43512,0,0,0,0,0,0,0,0,0,0,0,0,-1.5401884,-1.105465,-0.72024465,-0.5750639,1.5455147,1.1059,0.745824,0.5762339,-0.007959358,0.010255754,-0.0077319816,0.0045792684,85,4,132,2,10,3657.085,181.65358,1899.2373,18.160015,-57884.918,-112.613914,193.10172,183.91635,173.31598,173.31598,-10.959311,1,0,0,0,0,131.8852,0,0,0,0,0,0,2,-127,0,0
True,37889828,9499.995,1203.1134,4812.3477,-15.723195,-0.50837815,-2.6730547,0.14155293,0.006873697,17.826818,0.033262692,-0.88224524,0.0012433818,-2.3447335,0.00066725817,-0.01248384,0.3232584,0.65579176,0.32777697,0.54833376,-0.12619875,-0.029831704,-0.21150655,-0.037592728,47.53648,52.307083,47.413742,52.496128,0,0,0,0,0,0,0,0,0,0,0,0,-1.5318805,-1.1062682,-0.7638055,-0.6077467,1.5370699,1.1066703,0.792549,0.6089083,-0.009187363,0.010068297,-0.008948155,0.0038307607,85,4,132,2,10,3655.834,181.65454,1898.1244,17.827381,-55346.387,-109.76795,193.72736,184.48782,173.2719,173.2719,-11.009191,1,0,0,0,0,131.9783,0,0,0,0,0,0,2,-127,0,0
True,37889937,9499.995,1203.1134,4704.3867,-16.10696,-0.38196284,-2.530859,0.13455486,0.014119029,17.427658,0.01601326,-0.913568,-0.0029309406,-2.4430084,0.0022441363,-0.012719245,0.34102267,0.6586202,0.30806923,0.5384727,-0.099513575,-0.02805414,-0.24557655,-0.036032964,46.523266,51.305725,46.090878,51.471382,0,0,0,0,0,0,0,0,0,0,0,0,-1.5004113,-1.092678,-0.8077543,-0.63141894,1.5037078,1.093038,0.8442599,0.6324462,-0.008158706,0.01023208,-0.010090008,0.0032594167,85,4,132,2,10,3654.5107,181.65239,1896.7183,17.428185,-52489.215,-106.48904,194.44423,185.1289,173.2485,173.2485,-11.022045,1,0,0,0,0,132.08789,0,0,0,0,0,0,2,-127,0,0
True,37890046,9499.995,1203.1134,4598.483,-16.2445,-0.2434111,-2.5017939,0.11561632,0.004507184,17.023354,0.002130256,-0.94076926,-0.0016693429,-2.546072,0.0017696695,-0.013326895,0.34009513,0.65953135,0.30371508,0.54346067,-0.10880093,-0.027851757,-0.23284039,-0.035603456,45.306274,50.254444,44.986027,50.41104,0,0,0,0,0,0,0,0,0,0,0,0,-1.5320266,-1.1040167,-0.8372402,-0.65130985,1.5358852,1.1043679,0.8690143,0.65228224,-0.008212417,0.010284841,-0.010342285,0.0035484172,85,4,132,2,10,3653.35,181.64928,1895.2028,17.023746,-49753.496,-103.265045,195.15874,185.74893,173.2539,173.2539,-11.024459,1,0,0,0,0,132.19879,0,0,0,0,0,0,2,-127,0,0
True,37890156,9499.995,1203.1134,4579.061,-14.888071,-0.14559032,-1.9316316,0.24843359,-0.008298427,16.684767,-0.0009515844,-0.8989151,0.03791372,-2.6488633,0.000509019,-0.013299269,0.37427908,0.65448385,0.32135826,0.55544126,0.011468482,-0.023398984,0.14022905,-0.10757568,45.57239,49.609665,46.017498,48.964897,0,0,0,0,0,0,0,0,0,0,0,0,0.24299298,0.25056842,-0.86206466,-0.715449,0.24326347,0.2516586,0.87339544,0.7234914,-0.006232962,0.009992562,-0.0093200505,0.0042425618,85,4,132,2,10,3652.3882,181.64673,1893.6334,16.686617,5912.339,12.337673,195.21399,186.0162,173.2844,173.2844,-9.82801,1,0,0,0,0,132.3082,0,0,62,0,0,0,2,0,0,0
True,37890281,9499.995,1203.1134,4691.2515,-8.282249,0.088907555,1.2977953,0.9865966,-0.021358505,16.752766,-0.012605869,-0.63641965,-0.002240357,-2.734861,-0.0017473481,-0.009976465,0.40465775,0.58388233,0.40167525,0.5656542,0.10368995,0.032126255,0.5337005,0.0046883007,46.800713,49.469288,48.679466,49.21652,0,0,0,0,0,0,0,0,0,0,0,0,-0.07060679,-0.004376376,-1.0558155,-0.8884638,0.1254469,0.03242297,1.1830395,0.8884762,-0.0044738576,0.005904313,-0.004666537,0.0048342943,85,4,132,2,10,3651.5012,181.64514,1891.9757,16.781805,64557.273,131.45532,194.3746,185.74556,173.6428,173.6428,-5.811739,1,0,0,0,0,132.4207,0,0,98,0,0,0,2,0,0,0
True,37890375,9499.995,1203.1134,4767.3945,-10.989368,-0.010960422,3.0008054,0.6515913,-0.0377078,17.029194,-0.008261727,-0.37422964,-0.010910206,-2.7912912,-0.0033563334,-0.011004114,0.37043503,0.5502387,0.421327,0.5784594,0.13831028,0.051698025,0.4219311,0.07924693,48.372524,49.741386,49.591293,49.761005,0,0,0,0,0,0,0,0,0,0,0,0,-0.09846603,-0.028824149,-0.65787226,-0.56004834,0.16978014,0.059190515,0.7815508,0.5656273,-0.0064555556,0.0039561465,-0.0035279281,0.0055762194,85,4,132,2,10,3650.7148,181.6459,1890.2467,17.041698,89992.055,180.3037,193.56381,185.42793,173.85892,173.85892,-3.9676704,1,0,0,0,0,132.53308,0,0,114,0,0,0,2,0,0,0
True,37890484,9499.995,1203.1134,4855.473,-7.8102036,-0.07378501,4.0287,0.26558733,-0.06947598,17.448376,-0.016755987,-0.12501518,0.020446341,-2.8176444,-0.004987706,-0.0100255525,0.3493571,0.5330558,0.44511962,0.58315814,0.110138915,0.07384286,0.20632127,0.10428153,50.05987,50.479115,50.39624,50.50291,0,0,0,0,0,0,0,0,0,0,0,0,0.0121156005,0.0737176,-0.2387065,-0.22445196,0.110803284,0.10434104,0.3155143,0.24749407,-0.007676095,0.0029611513,-0.0021493994,0.00584846,85,4,132,2,10,3650.0676,181.6474,1888.5214,17.450535,126112.234,248.1595,192.83252,185.15576,173.84686,173.84686,-2.4907227,1,0,0,0,0,132.64,0,0,137,0,0,0,2,9,0,0
True,37890593,9499.995,1203.1134,4991.0806,-3.8039904,-0.005557973,4.730005,0.05277157,-0.09448657,17.916897,-0.00917129,-0.00025835124,0.029988144,-2.8213875,-0.006417547,-0.0073191724,0.34893635,0.5020127,0.4887774,0.59000295,0.12406725,0.101371974,0.16190769,0.15398458,51.777744,51.66983,51.848938,51.820778,0,0,0,0,0,0,0,0,0,0,0,0,-0.06677293,-0.0022715158,-0.03420451,-0.036672965,0.14089467,0.10139742,0.16548125,0.15829137,-0.007700458,0.0011635758,0.00038010255,0.006245043,85,4,132,2,10,3649.521,181.64914,1886.922,17.917223,162748.12,311.6445,192.20978,184.92789,173.73486,173.73486,-1.0699997,1,0,0,0,0,132.73558,0,0,157,0,0,0,2,0,0,0
True,37890703,9499.995,1203.1134,5241.221,-0.8285365,-0.15218933,6.493695,-0.009665966,-0.10779313,18.677507,0.011304133,0.0041348212,0.026617661,-2.82094,-0.006131737,-0.003776322,0.3371036,0.44881907,0.5304845,0.5906795,0.18091261,0.16957152,0.22742836,0.23424995,54.2982,54.22093,54.453396,54.465225,0,0,0,0,0,0,0,0,0,0,0,0,-0.03621871,0.028804215,0.0031195676,-0.0012812112,0.18450248,0.17200054,0.22744974,0.23425345,-0.008385643,-0.0019166544,0.0027965866,0.0062842444,85,4,132,2,10,3648.8455,181.65094,1884.8888,18.677822,248747.23,453.70822,191.5006,184.66379,173.59094,173.59094,1.5220728,1,0,0,0,0,132.85278,0,0,199,0,0,0,2,0,0,0
True,37890828,9499.995,1203.1134,5538.168,0.03930807,-0.25968453,8.361071,-0.010697842,-0.11852682,19.65591,0.0030698553,0.0016152568,0.016044818,-2.8206115,-0.004947308,-0.0013286165,0.3419102,0.40245163,0.5407328,0.58454436,0.19339845,0.1992921,0.27349424,0.27332413,57.230724,57.256203,57.59381,57.580784,0,0,0,0,0,0,0,0,0,0,0,0,-0.030925922,0.0328922,0.004049396,4.5552213E-05,0.19585548,0.2019882,0.27352422,0.27332413,-0.008107312,-0.0046016052,0.0033903643,0.005928777,85,4,132,2,10,3648.1448,181.65002,1882.7762,19.656271,295174.5,509.6036,190.86047,184.43983,173.48935,173.48935,3.582591,1,0,0,0,0,132.96889,0,0,210,0,0,0,2,0,0,0
True,37890937,9499.995,1203.1134,5842.9517,0.038472652,-0.0057217143,9.277668,-0.006501198,-0.14686269,20.69191,-0.028476357,-0.00057694793,0.005353706,-2.8205657,-0.0064459937,-0.0001333109,0.37368813,0.38437057,0.5555805,0.5853157,0.20200254,0.21765439,0.28880888,0.28349134,60.3421,60.43623,60.77161,60.74576,0,0,0,0,0,0,0,0,0,0,0,0,-0.029154018,0.034051944,0.0028092635,-0.00064489583,0.20409553,0.22030199,0.28882253,0.2834921,-0.0062671825,-0.0056486055,0.0042506307,0.0059734695,85,4,132,2,10,3647.4387,181.64766,1880.6506,20.69243,336521.3,550.6606,190.29166,184.24536,173.41455,173.41455,4.9012957,1,0,0,0,0,133.07986,0,0,218,0,0,0,2,0,0,0
True,37891031,9499.995,1203.1134,6095.6396,0.05640745,0.21739091,9.448345,-0.0021429062,-0.18222722,21.626602,-0.0245498,-0.0016995462,-0.0009537032,-2.820685,-0.009436354,4.0949086E-05,0.37942913,0.36759767,0.5898463,0.6080852,0.20661266,0.22441445,0.26252523,0.25572795,63.081467,63.19498,63.335407,63.30763,0,0,0,0,0,0,0,0,0,0,0,0,-0.030078284,0.034661215,0.0023135128,-0.0024822843,0.20879054,0.22707541,0.26253542,0.25574,-0.005934745,-0.0066198558,0.0062359683,0.0072927177,85,4,132,2,10,3646.785,181.64806,1878.6832,21.62737,339921.94,533.05176,189.81992,184.08401,173.3537,173.3537,5.2538996,1,0,0,0,0,133.17776,0,0,211,0,0,0,2,0,0,0
True,37891140,9499.995,1203.1134,6399.685,0.15406919,0.045730837,9.28758,0.002064705,-0.18501234,22.694315,0.015106717,-0.0013800055,-0.0051232874,-2.8208802,-0.009893378,-0.00034776542,0.3609259,0.34095976,0.62175816,0.6181549,0.22602157,0.22984764,0.2722382,0.26985952,66.26581,66.29631,66.48579,66.480156,0,0,0,0,0,0,0,0,0,0,0,0,-0.032116957,0.033857223,0.0027636073,-0.0039101653,0.22829203,0.2323279,0.27225223,0.26988786,-0.0070061907,-0.008162349,0.008084919,0.00787615,85,4,132,2,10,3645.9746,181.65228,1876.2441,22.695068,358206.7,535.11945,189.29193,183.89818,173.27637,173.27637,5.546668,1,0,0,0,0,133.29366,0,0,211,0,0,0,2,0,0,0
True,37891265,9499.995,1203.1134,6740.582,-0.015943527,-0.3297474,9.740379,0.0031881332,-0.1781246,23.78534,0.013588864,-0.00054026645,-0.0035745054,-2.8209858,-0.0077005667,-0.0008406017,0.34465417,0.3323976,0.5997269,0.5920968,0.24720119,0.24667192,0.32939228,0.3283669,69.62578,69.62454,70.113464,70.11116,0,0,0,0,0,0,0,0,0,0,0,0,-0.032760233,0.0319948,0.0019864873,-0.0034966522,0.24936251,0.24873821,0.32939827,0.32838553,-0.007948421,-0.008658148,0.006808445,0.006366361,85,4,132,2,10,3645.1467,181.65485,1873.7516,23.786007,421420.12,597.75543,188.81476,183.72687,173.21521,173.21521,6.8380003,1,0,0,0,0,133.40666,0,0,227,0,0,0,2,0,0,0
True,37891375,9499.995,1203.1134,7134.076,0.040514946,-1.0261518,9.505622,0.0017185211,-0.2388331,24.873251,0.056986634,0.007310916,0.04191433,-2.8208263,-0.005583113,0.0012061269,0.44415322,0.40807167,0.6037344,0.5678245,1.1928997,0.17282848,0.27672547,0.37153703,79.41812,72.15967,72.9559,73.47544,0,0,0,0,0,0,0,0,0,0,0,0,-0.053935666,0.022178357,-8.56071E-05,-0.0056205546,1.1941184,0.1742457,0.27672547,0.37157956,-0.0021868348,-0.0042761713,0.0070406348,0.004960038,85,4,132,2,10,3644.284,181.65125,1871.1549,24.874397,382137.34,512.0941,188.43547,183.56374,173.1789,173.1789,8.522845,1,0,0,0,0,133.51898,0,0,237,0,0,0,2,0,0,0
True,37891484,9499.995,1203.1134,7476.785,-0.16995597,0.44043836,10.308347,0.0008211136,-0.13866155,26.04675,-0.09162806,-0.029344037,0.026499135,-2.8207958,-0.0036091427,0.00085766177,0.67860514,0.66352177,0.6786246,0.6636035,0.15495639,0.286376,0.636524,0.37856224,75.66563,76.80523,79.13508,77.3421,0,0,0,0,0,0,0,0,0,0,0,0,-0.019555654,0.043828983,-0.016870417,-0.019627415,0.15618548,0.28971055,0.63674754,0.37907073,0.011389326,0.01051591,0.0113797225,0.010509409,85,4,132,2,10,3643.4097,181.6413,1868.5236,26.047117,487638.28,623.4626,188.10759,183.42194,173.1553,173.1553,9.788779,1,0,0,0,0,133.62778,0,0,243,0,0,0,2,0,0,0
True,37891578,9499.995,1203.1134,7750.36,1.1995528,1.8866297,11.848686,0.10797405,-0.107739866,27.23017,0.037023194,0.049737733,-0.0137191545,-2.8202236,-0.009908026,-0.0009476041,0.52159923,0.52623355,0.74150836,0.73962027,0.64139736,0.3359549,0.25580212,0.28806236,82.66876,80.32504,79.94415,79.92789,0,0,0,0,0,0,0,0,0,0,0,0,0.2500963,0.3190333,-0.0036027345,-0.015588964,0.6884321,0.46330115,0.2558275,0.28848386,0.0022977516,0.0025661066,0.015023168,0.014913771,85,4,132,2,10,3642.603,181.64618,1866.1106,27.230597,556964.56,687.2448,187.81511,183.33055,173.16005,173.16005,11.320674,1,0,0,0,0,133.72318,0,0,255,0,0,0,2,90,0,0
True,37891703,9499.995,1203.1134,8234.357,4.306368,-1.2348425,10.527122,0.12275982,-0.18478915,28.525675,0.002240845,0.2551436,0.023674227,-2.8015256,-0.0049357777,0.0014639936,0.36377487,0.33716345,0.5902232,0.5803569,0.31850812,0.72625816,0.3690501,0.5725104,84.70118,86.704216,84.98971,85.69909,0,0,0,0,0,0,0,0,0,0,0,0,0.49594027,0.6240013,0.06458142,0.063838765,0.58941,0.95751166,0.37465814,0.5760586,-0.00684122,-0.008382179,0.006257806,0.00568616,85,4,132,2,10,3641.4324,181.65387,1862.7327,28.526535,530143.44,615.2941,187.54614,183.35847,173.14984,173.14984,12.660687,1,0,0,0,0,133.85138,0,0,255,0,0,0,2,117,0,0
True,37891812,9499.995,1203.1134,8557.971,7.290383,-0.32672322,10.511098,-0.06838608,-0.24908188,29.615177,-0.022265632,0.4112789,0.030132338,-2.7663867,-0.0064615053,0.004161605,0.39518553,0.29878417,0.61409247,0.55045015,0.33932868,0.86600125,0.29876202,0.5984298,88.406845,90.66065,88.28293,88.67755,0,0,0,0,0,0,0,0,0,0,0,0,0.7648067,0.96265745,0.1688427,0.18547603,0.8367038,1.2948619,0.3431714,0.62651384,-0.0050223544,-0.010604568,0.0076407753,0.0039533824,85,4,132,2,10,3640.3733,181.64752,1859.902,29.616302,565563.94,631.69916,187.42636,183.52689,173.15402,173.15402,13.368127,1,0,0,0,0,133.95526,0,0,255,0,0,0,2,127,0,0
True,37891921,9499.995,1203.1134,8421.6455,9.333571,0.5382675,9.464637,-0.46582794,-0.24184473,30.592226,-0.0043353564,0.43115687,0.0075063882,-2.7169592,-0.008878854,0.006418884,0.4406141,0.31760943,0.6611197,0.5617937,0.028312715,0.048887238,0.040130593,0.10169282,88.41912,86.49271,88.22303,86.53288,0,0,0,0,0,0,0,0,0,0,0,0,-0.08038237,-0.020256827,0.2808875,0.3088416,0.085222855,0.05291787,0.28373978,0.3251531,-0.0023917705,-0.009514473,0.010365501,0.0046106167,85,4,132,2,10,3639.126,181.64555,1856.889,30.596725,-194859.64,-220.45361,187.34866,184.01154,173.18787,173.18787,4.395152,1,0,0,0,0,134.06335,0,0,255,0,0,0,2,0,0,0
True,37892015,9499.995,1203.1134,7823.3506,8.530082,0.30102068,1.0595431,-0.5448599,-0.12385245,30.493393,0.04123373,0.18288817,0.0076205647,-2.6840687,-0.0062242495,0.007387397,0.5276426,0.39979568,0.62389815,0.51435584,0.0016754508,-0.00094227283,0.0016519099,-0.0011834763,87.342064,86.44595,87.03899,86.12995,0,0,0,0,0,0,0,0,0,0,0,0,0.047463182,0.1158624,0.22417681,0.24078053,0.047492746,0.11586623,0.2241829,0.24078344,0.002647698,-0.0047554,0.008208908,0.0018621013,85,4,132,2,10,3637.755,181.65063,1853.8593,30.498512,-165795.97,-201.98114,186.963,183.7669,173.14474,173.14474,-8.110903,1,0,0,0,0,134.17224,0,0,255,0,0,0,2,0,0,0
True,37892140,9499.995,1203.1134,6802.6743,7.6266913,-0.7023483,1.8930539,-0.2042532,-0.053804204,30.64398,0.02005114,0.19283496,0.005271023,-2.6657016,-0.0010978172,0.007862996,0.5203208,0.38572517,0.56191957,0.4483367,0.15838256,0.29757047,0.23778215,0.39819452,89.4047,89.718956,90.08707,90.44553,0,0,0,0,0,0,0,0,0,0,0,0,0.3680218,0.47109485,0.13210279,0.14165185,0.4006558,0.55720603,0.27201378,0.42263946,0.002223719,-0.005570166,0.004617911,-0.0019630045,85,4,132,2,10,3636.1533,181.65393,1850.5826,30.644709,59280.125,82.707535,186.63332,183.58583,173.02844,173.02844,-7.708808,1,0,0,0,0,134.29181,0,0,255,0,0,0,3,127,0,0
True,37892250,9499.995,1203.1134,5657.303,8.802631,-0.44950166,7.803672,-0.19504738,-0.17734687,31.600174,-0.038431212,0.3407852,0.013801799,-2.6369264,-0.0037098904,0.008462202,0.487456,0.3279078,0.5876611,0.46821997,0.18645698,0.49403375,0.18274176,0.37856972,92.633224,93.63376,92.65401,92.70172,0,0,0,0,0,0,0,0,0,0,0,0,0.6667935,0.84314,0.17039484,0.18920477,0.69237256,0.9772177,0.24985786,0.423218,0.00032065436,-0.008918136,0.006109357,-0.0008109808,85,4,132,2,10,3634.6323,181.64851,1847.6852,31.601274,370327.2,625.4733,186.53152,183.64174,173.0303,173.0303,2.1597986,1,0,0,0,0,134.3968,0,0,255,0,0,0,3,127,0,0
True,37892359,9499.995,1203.1134,5725.5527,11.03807,0.44236773,7.342068,-0.31434727,-0.22057016,32.33493,-0.013017159,0.44462568,0.0044148783,-2.5944848,-0.007352844,0.009479755,0.50741535,0.2962241,0.6617529,0.51773334,0.2520929,0.7061584,0.19017205,0.45087263,95.473785,97.22806,95.17117,95.3453,0,0,0,0,0,0,0,0,0,0,0,0,0.8747474,1.111751,0.22735497,0.25655228,0.91034824,1.3170611,0.29640463,0.5187535,0.0014764182,-0.010752812,0.010402188,0.0020577908,85,4,132,2,10,3632.949,181.64534,1844.7329,32.337208,413386.1,689.9646,186.5776,183.90372,173.00473,173.00473,6.7663145,1,0,0,0,0,134.50311,0,0,255,0,0,0,3,127,0,0
True,37892468,9499.995,1203.1134,5921.046,12.1315775,0.17278196,7.737065,-0.66342163,-0.19140315,33.1169,0.0036759605,0.51574045,0.010364795,-2.5414355,-0.0076346416,0.009634212,0.5010473,0.28218728,0.6605565,0.49830785,0.29727826,0.78572243,0.2670704,0.6097489,98.33231,100.12982,98.446396,98.96128,0,0,0,0,0,0,0,0,0,0,0,0,0.9378367,1.1772801,0.33066478,0.38162062,0.9838252,1.4153968,0.425048,0.7193247,0.0011076704,-0.011565626,0.010332871,0.00093229115,85,4,132,2,10,3631.0298,181.65005,1841.6667,33.124104,439152.5,708.791,186.7074,184.71619,173.0304,173.0304,7.99422,1,0,0,0,0,134.6136,0,0,255,0,0,0,3,127,0,0
True,37892578,9499.995,1203.1134,6109.923,12.934839,-0.20789388,7.9736485,-1.1808014,-0.20433168,33.875282,0.010839822,0.5533836,0.012191072,-2.482867,-0.007866102,0.010562307,0.48690498,0.26762372,0.65674335,0.47644752,0.32967728,0.9847703,0.32370955,0.69750375,100.9922,104.22193,101.44492,102.06135,0,0,0,0,0,0,0,0,0,0,0,0,0.9174273,1.1507479,0.45434567,0.52771163,0.97486407,1.5145934,0.557869,0.87463766,0.00028874725,-0.012408942,0.010111939,-0.00033428147,85,4,132,2,10,3628.9766,181.65605,1838.682,33.896465,453957.97,709.99115,186.88593,185.88408,173.13312,173.13312,8.535237,1,0,0,0,0,134.72173,0,0,255,0,0,0,3,18,0,0
True,37892687,9499.995,1203.1134,6214.474,12.48364,-0.5900351,8.88696,-1.5831871,-0.21527342,34.76282,0.0128820995,0.35994226,0.009983123,-2.43024,-0.006625656,0.011094847,0.4527578,0.24155389,0.65049875,0.47104,0.18888654,0.5493962,0.33624846,0.6438292,102.1096,103.84472,103.70462,104.59042,0,0,0,0,0,0,0,0,0,0,0,0,0.23052485,0.3241824,0.48230344,0.56042427,0.29802656,0.63791096,0.5879453,0.8535757,-0.0016885772,-0.013918541,0.0097501315,-0.00064758956,85,4,132,2,10,3626.681,181.65865,1835.6333,34.799515,469683.16,722.1146,186.78113,186.07088,173.30637,173.30637,8.854049,1,0,0,0,0,134.83281,0,0,255,0,0,0,3,0,0,0
True,37892796,9499.995,1203.1134,6316.7207,12.48842,-0.45437264,9.032291,-1.2290287,-0.2538097,35.63482,-0.00077113113,0.17337155,0.0037321395,-2.4033978,-0.0068107476,0.011905522,0.45700485,0.24908695,0.65555286,0.46899056,0.18370095,0.5218607,0.28237927,0.46445137,104.13875,106.65204,105.15349,105.886086,0,0,0,0,0,0,0,0,0,0,0,0,0.21472733,0.306164,0.33549738,0.3811086,0.28258425,0.6050413,0.4385163,0.60079855,-0.0014426485,-0.013482332,0.010042962,-0.0007663332,85,4,132,2,10,3624.4119,181.65695,1832.86,35.65691,479744.12,725.5215,186.61914,185.94037,173.44128,173.44128,9.086722,1,0,0,0,0,134.9345,0,0,255,0,0,0,3,1,0,0
True,37892906,9499.995,1203.1134,6470.0195,9.919633,-0.43282643,8.727726,-0.5961323,-0.26010928,36.67975,0.0042153057,0.15456422,-0.014621283,-2.3872921,-0.0057041873,0.010559948,0.46714973,0.23016313,0.6564301,0.48848137,0.18938112,0.45349497,0.2610995,0.38756666,107.077835,108.99027,107.83766,108.247375,0,0,0,0,0,0,0,0,0,0,0,0,0.44503665,0.56458944,0.18848617,0.20309134,0.4836557,0.72416776,0.32202482,0.43755457,-0.0008552,-0.014578134,0.01009379,0.0003629513,85,4,132,2,10,3621.501,181.65189,1829.5559,36.685516,493651.06,728.9809,186.46536,185.80605,173.47583,173.47583,9.365941,1,0,0,0,0,135.0562,0,0,255,0,0,0,3,117,0,0
True,37893031,9499.995,1203.1134,6625.9653,10.968308,0.75726044,8.384445,-0.34960747,-0.24032882,37.619705,-0.024792865,0.3238731,-0.0056364005,-2.359786,-0.007865678,0.009162387,0.5281873,0.3067148,0.6676829,0.49017096,0.21379094,0.4493254,0.20154843,0.39017156,110.42374,111.27487,110.38616,110.70788,0,0,0,0,0,0,0,0,0,0,0,0,0.6254676,0.7729746,0.1697811,0.19039926,0.66099644,0.89408225,0.26352873,0.4341494,0.0026792362,-0.010145336,0.0107457675,0.0004608445,85,4,132,2,10,3618.5632,181.64998,1826.4363,37.622093,507233.53,731.45526,186.4646,185.79333,173.45627,173.45627,9.676681,1,0,0,0,0,135.1715,0,0,255,0,0,0,3,122,0,0
True,37893125,9499.995,1203.1134,6794.7104,11.188698,0.48029694,8.273462,-0.6170368,-0.22613515,38.36126,0.006807383,0.40600145,0.007836459,-2.3239167,-0.009139227,0.0090640895,0.55831337,0.37509266,0.6737531,0.522466,0.24296923,0.5924233,0.22935636,0.45706245,113.06271,114.75814,113.077805,113.42242,0,0,0,0,0,0,0,0,0,0,0,0,0.6296677,0.78421605,0.24538168,0.27452174,0.6749189,0.98283273,0.33588168,0.53316814,0.004423719,-0.006185852,0.011097472,0.0023319982,85,4,132,2,10,3615.9722,181.65945,1823.8569,38.366886,520420.12,731.89435,186.49191,185.8233,173.44801,173.44801,9.975427,1,0,0,0,0,135.2677,0,0,255,0,0,0,3,97,0,0
True,37893234,9499.995,1203.1134,6951.8325,10.444062,-0.3205001,8.840027,-1.1809921,-0.2247708,39.27803,-0.0011117132,0.34941262,0.0092737675,-2.2777529,-0.008375541,0.009403279,0.4827214,0.33149412,0.6645947,0.54530805,0.18054454,0.37630522,0.27980092,0.49320745,115.11187,115.58717,116.233925,116.63054,0,0,0,0,0,0,0,0,0,0,0,0,0.114804514,0.19179678,0.34625065,0.3849481,0.21395423,0.42236432,0.44517195,0.6256506,4.6491623E-05,-0.008710466,0.010566842,0.0036554523,85,4,132,2,10,3612.7769,181.67186,1820.8672,39.296425,532442.8,731.6796,186.43297,185.79553,173.48831,173.48831,10.345239,1,0,0,0,0,135.3804,0,0,255,0,0,0,3,0,0,0
True,37893343,9499.995,1203.1134,7072.9673,10.710255,-0.0064493213,9.111769,-1.0192566,-0.28193554,40.222054,-0.023888426,0.14349946,0.01264262,-2.251675,-0.010141772,0.010905067,0.44074714,0.2633192,0.64625645,0.50247884,0.16264138,0.32255772,0.2444455,0.3672884,117.18223,118.269005,118.037346,118.53959,0,0,0,0,0,0,0,0,0,0,0,0,0.14340071,0.22111018,0.248852,0.27462488,0.21683168,0.39106673,0.34882793,0.45860615,-0.0023840666,-0.012658201,0.009504333,0.0011739545,85,4,132,2,10,3609.493,181.68265,1817.9818,40.235954,540765.3,730.3787,186.24396,185.62958,173.54227,173.54227,10.617246,1,0,0,0,0,135.4903,0,0,255,0,0,0,3,0,0,0
True,37893468,9499.995,1203.1134,7215.2227,7.3499775,0.6314001,8.754443,-0.40729904,-0.30423436,41.30201,-0.00720286,0.0065156287,-0.03563758,-2.2438695,-0.012724554,0.009420451,0.5102966,0.3285896,0.67094433,0.54325414,0.16210334,0.23069438,0.2205295,0.25019443,119.93527,120.651276,120.47743,120.669205,0,0,0,0,0,0,0,0,0,0,0,0,0.057618633,0.12584639,0.09331513,0.09149965,0.17203894,0.2627874,0.23945975,0.2664009,0.0016432591,-0.008878656,0.010934733,0.0035364479,85,4,132,2,10,3605.5986,181.70282,1814.7499,41.305138,549320.3,727.3766,186.01878,185.41765,173.51718,173.51718,10.901078,1,0,0,0,0,135.6144,0,0,255,0,0,0,3,0,0,0
True,37893562,9499.995,1203.1134,7361.7183,3.075023,1.0082943,8.686359,-0.088027954,-0.27996957,42.21956,-0.028356705,-0.013801529,-0.042800125,-2.2447424,-0.014691287,0.004905567,0.58257174,0.42723042,0.6831868,0.6139814,0.17204852,0.17099944,0.21207207,0.2212648,122.68587,122.72973,122.9635,123.10555,0,0,0,0,0,0,0,0,0,0,0,0,-0.0050333287,0.058741953,0.023010751,0.015392712,0.17212214,0.1808077,0.21331681,0.22179955,0.0058284216,-0.003166765,0.011644058,0.0076343417,85,4,132,2,10,3602.0872,181.73225,1811.9181,42.220573,556974.9,722.82275,185.80466,185.20459,173.4379,173.4379,11.183253,1,0,0,0,0,135.72238,0,0,255,0,0,0,3,0,0,0
True,37893687,9499.995,1203.1134,7551.1973,0.6712434,0.30670267,8.24028,0.019506454,-0.25485003,43.183228,0.01509287,-0.008090156,-0.02138119,-2.2461069,-0.0153565155,0.0009063953,0.50274116,0.4349973,0.6773087,0.63757586,0.2165669,0.20457292,0.24996494,0.24613105,125.96222,125.872665,126.1808,126.17329,0,0,0,0,0,0,0,0,0,0,0,0,-0.032859836,0.033276442,0.0011794165,-0.0083388835,0.21904564,0.20726167,0.24996771,0.24627227,0.0012057573,-0.0027170181,0.011303481,0.009001389,85,4,132,2,10,3598.156,181.77928,1808.771,43.183983,565410.4,715.41205,185.56915,184.96136,173.3392,173.3392,11.532035,1,0,0,0,0,135.84029,0,0,255,0,0,0,3,0,0,0
True,37893796,9499.995,1203.1134,7710.065,0.028018951,-0.74308425,8.295756,0.03023529,-0.3029858,44.059055,0.01038585,-0.0041784495,-0.009717924,-2.2467718,-0.014102017,-0.00051281415,0.41903615,0.38273045,0.6419703,0.61307365,0.2195136,0.21003106,0.25646916,0.25794637,128.57475,128.47859,128.8306,128.87035,0,0,0,0,0,0,0,0,0,0,0,0,-0.03699006,0.028351488,-0.0020232236,-0.00953285,0.22260837,0.21193597,0.25647715,0.25812247,-0.0036412627,-0.005743578,0.009255998,0.0075817443,85,4,132,2,10,3594.5051,181.81793,1805.8481,44.06011,571880.7,708.6094,185.36166,184.74605,173.24512,173.24512,11.877114,1,0,0,0,0,135.9475,0,0,255,0,0,0,3,0,0,0
True,37893890,9499.995,1203.1134,7839.233,-0.21557474,-0.047389496,8.334507,0.02083397,-0.32538563,44.930237,-0.024465535,-0.0012668903,-0.0060533276,-2.247009,-0.014492811,-0.0011967684,0.4307604,0.41471577,0.6080248,0.5956745,0.16661488,0.17184478,0.23166831,0.22804646,130.5087,130.58012,131.09088,131.05508,0,0,0,0,0,0,0,0,0,0,0,0,-0.03451862,0.028108332,-0.00090042234,-0.0064830794,0.17015302,0.17412841,0.23167007,0.2281386,-0.0029623583,-0.0038914382,0.007289216,0.006573651,85,4,132,2,10,3590.8442,181.85027,1802.9148,44.931416,576554.6,702.5928,185.15784,184.53525,173.15092,173.15092,12.166141,1,0,0,0,0,136.05289,0,0,255,0,0,0,3,0,0,0
True,37894000,9499.995,1203.1134,7977.5303,-0.050367594,0.79384464,8.074066,0.014097214,-0.33183506,45.763092,0.0014878558,-0.0004787352,-0.0121177165,-2.2471128,-0.016848957,-0.0022439554,0.46129757,0.43208826,0.6666899,0.6623719,0.19494027,0.18470547,0.206879,0.21245481,133.249,133.1116,133.19968,133.25719,0,0,0,0,0,0,0,0,0,0,0,0,-0.03472522,0.031015597,0.0029915872,-0.006334422,0.19800895,0.18729141,0.20690063,0.21254922,-0.0011940747,-0.0028854683,0.010688234,0.010438051,85,4,132,2,10,3587.1707,181.89041,1799.9691,45.764294,580702.7,695.477,184.95135,184.32388,173.0532,173.0532,12.4342985,1,0,0,0,0,136.1567,0,0,255,0,0,0,3,0,0,0
True,37894125,9499.995,1203.1134,8154.9673,0.9953711,-0.10974459,8.0369835,0.0028076172,-0.33154535,46.71886,-0.0051343017,0.047969412,0.020775195,-2.2441437,-0.016174799,-0.0015462898,0.43219838,0.45537078,0.65757996,0.6435203,0.18943746,0.17800386,0.21959668,0.24748403,136.08702,135.70901,136.27597,136.33797,0,0,0,0,0,0,0,0,0,0,0,0,-0.002898705,0.06135828,0.01358353,0.0052548493,0.18945964,0.18828227,0.2200164,0.2475398,-0.0028790906,-0.0015372708,0.010160413,0.009345803,85,4,132,2,10,3582.7468,181.94319,1796.4299,46.720036,585383.4,685.7249,184.70802,184.08601,172.93735,172.93735,12.797219,1,0,0,0,0,136.27919,0,0,255,0,0,0,3,7,0,0
True,37894234,9499.995,1203.1134,8279.078,0.71668196,0.4817934,7.85896,-0.10354996,-0.33910838,47.52781,-0.013187153,0.024010235,0.025856357,-2.2403774,-0.017535921,0.0008926671,0.44685405,0.5021103,0.65890074,0.6658561,0.16351414,0.18096538,0.20037769,0.21297732,138.0362,138.16547,138.29741,138.33861,0,0,0,0,0,0,0,0,0,0,0,0,-0.021321261,0.043484673,0.02661016,0.017528074,0.16489835,0.18611659,0.20213687,0.21369739,-0.0020304397,0.0011692271,0.010236938,0.010639928,85,4,132,2,10,3578.9458,181.9899,1793.4022,47.52913,588241.56,678.7425,184.5025,183.87927,172.83804,172.83804,13.06631,1,0,0,0,0,136.38228,0,0,255,0,0,0,3,0,0,0
True,37894328,9499.995,1203.1134,8424.845,0.71947956,0.25452542,7.575426,-0.08245087,-0.3160871,48.307053,0.0014408068,0.0036492937,-0.0030210325,-2.2390866,-0.017713673,0.00224118,0.456242,0.44798467,0.6521117,0.6627397,0.15829381,0.19426595,0.22709753,0.22459643,140.17686,140.6171,140.8388,140.79544,0,0,0,0,0,0,0,0,0,0,0,0,-0.017170504,0.04751422,0.02053215,0.011134512,0.15922236,0.19999215,0.22802381,0.22487226,-0.001486823,-0.0019649714,0.009843584,0.010459363,85,4,132,2,10,3575.0674,182.04434,1790.3247,48.30816,590378.3,669.44073,184.2935,183.66931,172.73085,172.73085,13.345269,1,0,0,0,0,136.48557,0,0,255,0,0,0,3,0,0,0
True,37894453,9499.995,1203.1134,8579.171,-0.13857913,0.076137826,7.3187685,-0.049505234,-0.34714845,49.19809,0.0140028335,-0.02292265,-0.010292563,-2.239623,-0.018506885,0.0009089235,0.4480778,0.43264845,0.66142863,0.6494059,0.22866322,0.18010487,0.21570864,0.20895854,143.62096,143.06505,143.21477,143.22557,0,0,0,0,0,0,0,0,0,0,0,0,-0.16824324,-0.09663185,0.008806594,-0.0003587566,0.28388846,0.20439051,0.21588834,0.20895885,-0.0019595772,-0.0028530285,0.010383401,0.009686813,85,4,132,2,10,3570.4983,182.11061,1786.7085,49.19934,591866.4,659.09973,184.05228,183.42679,172.60852,172.60852,13.664485,1,0,0,0,0,136.60504,0,0,255,0,0,0,3,-28,0,0
True,37894562,9499.995,1203.1134,8719.575,-1.4933126,-0.6124667,7.4127493,0.11292648,-0.343737,49.982513,-0.0075919125,-0.08735354,-0.00050961785,-2.2476382,-0.016590865,0.00038516702,0.4242388,0.44149986,0.6223043,0.636441,0.1697234,0.16705643,0.25054082,0.21915823,144.99028,145.3581,145.79851,145.8149,0,0,0,0,0,0,0,0,0,0,0,0,-0.027686182,0.035608076,-0.035935834,-0.042653017,0.17196675,0.17080921,0.2531049,0.22327027,-0.0033399984,-0.0023404807,0.008116566,0.008935634,85,4,132,2,10,3566.3096,182.16612,1783.3715,49.98382,592210.44,648.7335,183.87384,183.23058,172.49266,172.49266,13.972653,1,0,0,0,0,136.71304,0,0,255,0,0,0,3,0,0,0
True,37894671,9499.995,1203.1134,8517.301,-1.949499,0.98842806,4.173646,0.21125984,-0.3170092,50.4494,0.012067994,-0.031657502,-0.008676651,-2.253858,-0.01863933,-0.00037771088,0.52377725,0.5262241,0.6635875,0.66968524,-0.016448582,-0.014122549,-0.025469577,-0.022323402,143.46707,143.65529,142.78604,142.9853,0,0,0,0,0,0,0,0,0,0,0,0,-0.06069147,0.0036147488,-0.03790486,-0.046986487,0.06288092,0.014577819,0.04566703,0.052019842,0.0024238713,0.0025655553,0.010508485,0.010861784,85,4,132,2,10,3562.1262,182.22461,1780.012,50.45084,-198707.81,-222.59149,183.64781,182.99805,172.358,172.358,1.5653791,1,0,0,0,0,136.81964,0,0,255,0,0,0,3,0,0,0
True,37894781,9499.995,1203.1134,7936.4546,-1.571462,-0.09817508,-0.47312933,0.13697433,-0.1717481,50.302113,0.036760397,-0.007088271,-0.0003141649,-2.2556646,-0.015497026,-0.00059565343,0.53926563,0.56239843,0.6385701,0.652192,0.00084511924,0.0009981963,0.001014078,0.0011073,143.36583,143.40463,142.86171,142.89717,0,0,0,0,0,0,0,0,0,0,0,0,-0.054872956,0.009460664,-0.021118633,-0.031127099,0.054879464,0.009513179,0.021142967,0.031146787,0.0033207387,0.0046602674,0.00905899,0.009848237,85,4,132,2,10,3557.9666,182.29205,1776.6432,50.302593,-171067.27,-205.43188,183.38367,182.71759,172.13757,172.13757,-8.547198,1,0,0,0,0,136.92595,0,0,255,0,0,0,4,0,0,0
True,37894890,9499.995,1203.1134,6921.3887,-0.9089662,-0.50248885,0.8105242,0.062252045,-0.12584594,50.371334,-0.014405042,-0.00014243866,-0.0074220668,-2.2559412,-0.013098343,-0.0010834953,0.5620068,0.555069,0.5755623,0.591446,0.11235212,0.10973706,0.173731,0.1712275,145.5326,145.49425,146.06906,146.04306,0,0,0,0,0,0,0,0,0,0,0,0,-0.04148248,0.020422978,-0.007369078,-0.01389125,0.11976558,0.11162133,0.17388722,0.17179005,0.004637588,0.0042358525,0.0054083616,0.0063286535,85,4,132,2,10,3553.6575,182.35368,1773.1361,50.37153,72477.36,99.34448,183.11356,182.43245,171.90384,171.90384,-7.3505445,1,0,0,0,0,137.03645,0,0,255,0,0,0,4,0,0,0
True,37895015,9499.995,1203.1134,6440.167,-0.4283272,0.5859445,3.9254792,0.011205673,-0.222204,50.92121,-0.0407919,0.0037293895,0.013017753,-2.2556515,-0.016464641,-0.00055280334,0.53456813,0.57192796,0.6321859,0.6379929,0.10542698,0.10364051,0.15041982,0.15131783,146.97726,146.93867,147.26038,147.2553,0,0,0,0,0,0,0,0,0,0,0,0,-0.034774385,0.026988281,0.0021071099,-0.0065566557,0.11101399,0.10709679,0.15043457,0.15145981,0.0030487254,0.0052120835,0.008689094,0.009025551,85,4,132,2,10,3548.8613,182.42244,1769.2225,50.92169,449258.78,666.369,182.84085,182.16246,171.72452,171.72452,4.884227,1,0,0,0,0,137.15865,0,0,255,0,0,0,4,0,0,0
True,37895109,9499.995,1203.1134,6536.589,-0.106380224,0.61634934,5.3124104,-0.008874893,-0.27722806,51.519176,0.019543078,0.0017220785,0.0074453354,-2.2553499,-0.01932672,0.0005736258,0.5068934,0.5235056,0.65791875,0.66544515,0.16981624,0.16847688,0.16983336,0.17258078,149.5582,149.52194,149.2745,149.29071,0,0,0,0,0,0,0,0,0,0,0,0,-0.033272352,0.03433091,0.006411481,-0.003948081,0.1730451,0.17193915,0.16995434,0.17262593,0.001446195,0.0024081431,0.010180041,0.010616116,85,4,132,2,10,3544.5723,182.49724,1765.7207,51.51992,491864.4,718.88763,182.6063,181.92767,171.58365,171.58365,8.690108,1,0,0,0,0,137.26675,0,0,255,0,0,0,4,0,0,0
True,37895234,9499.995,1203.1134,6631.2793,0.041990995,-0.6341756,5.9549685,-0.010286331,-0.3095036,52.23829,-0.026762795,0.00061063695,-0.0036781775,-2.255197,-0.017400388,0.0010353598,0.47871011,0.47634864,0.61587965,0.6281098,0.12347786,0.12631656,0.19287883,0.20079303,151.0544,151.08243,151.73248,151.75923,0,0,0,0,0,0,0,0,0,0,0,0,-0.02889103,0.032508258,0.0055015637,-0.0016715236,0.12681276,0.13043259,0.19295728,0.20079999,-0.00018578395,-0.00032252818,0.0077443235,0.00845293,85,4,132,2,10,3539.7058,182.57407,1761.7479,52.239204,507356.94,730.7234,182.35074,181.67336,171.4289,171.4289,9.637568,1,0,0,0,0,137.38786,0,0,255,0,0,0,4,0,0,0
True,37895328,9499.995,1203.1134,6683.296,0.13505578,1.2062211,6.122104,-0.0032787323,-0.31078938,52.7921,0.0002470049,-0.00079190364,-0.0075381706,-2.2552085,-0.020331575,0.0006161974,0.547424,0.5322721,0.6745264,0.67257226,0.13732567,0.13907647,0.15025769,0.14938305,152.80109,152.81079,152.66772,152.68369,0,0,0,0,0,0,0,0,0,0,0,0,-0.031547673,0.034173653,0.0061382037,-0.004224417,0.14090279,0.1432135,0.15038301,0.14944278,0.0037931576,0.0029157735,0.011142276,0.0110290535,85,4,132,2,10,3535.9866,182.6364,1758.7125,52.79301,512640.34,732.7435,182.1586,181.48155,171.31909,171.31909,9.849475,1,0,0,0,0,137.47926,0,0,255,0,0,0,4,0,0,0
True,37895437,9499.995,1203.1134,6788.2944,0.114486694,-0.6009394,5.97629,0.0035533905,-0.29343158,53.4252,-0.009607295,-0.00088984653,-0.0037118965,-2.2552934,-0.018307528,-0.00013965089,0.4821314,0.47597674,0.65037024,0.647268,0.1368897,0.13904254,0.2049985,0.20867647,154.65811,154.6895,155.31349,155.3375,0,0,0,0,0,0,0,0,0,0,0,0,-0.03136837,0.03121166,0.0041682064,-0.0050529484,0.14043775,0.14250262,0.20504087,0.20873764,1.2326986E-05,-0.0003440641,0.009742685,0.009562943,85,4,132,2,10,3531.5022,182.71606,1755.053,53.426003,521170.16,733.2344,181.9241,181.24933,171.17786,171.17786,10.073697,1,0,0,0,0,137.58824,0,0,255,0,0,0,4,0,0,0
True,37895562,9499.995,1203.1134,6868.8613,0.08591485,-0.03945041,5.891795,0.0047245026,-0.34539965,54.1044,0.019398328,-0.00040292373,-0.0037922305,-2.2553673,-0.019670676,-0.0005295715,0.46960315,0.46099508,0.6570943,0.6553405,0.1636944,0.16262609,0.18351327,0.18244661,156.9716,156.95334,156.9552,156.95576,0,0,0,0,0,0,0,0,0,0,0,0,-0.033642545,0.032705083,0.004255224,-0.0053797914,0.16711576,0.16588208,0.1835626,0.1825259,-0.0007131323,-0.0012115911,0.010132272,0.010030657,85,4,132,2,10,3526.7485,182.79767,1751.1733,54.105507,527169.6,733.1858,181.68015,181.00713,171.03523,171.03523,10.240682,1,0,0,0,0,137.70233,0,0,255,0,0,0,4,0,0,0
True,37895656,9499.995,1203.1134,6944.603,-0.06953931,-0.66920495,5.8290095,0.004842758,-0.34655416,54.710823,-0.0008669072,-0.00070436887,-0.005258299,-2.2554119,-0.018000936,-0.0009003403,0.4523,0.43841454,0.63873696,0.63627344,0.13524093,0.13902557,0.19268277,0.1913884,158.3301,158.38698,158.84102,158.84694,0,0,0,0,0,0,0,0,0,0,0,0,-0.031635676,0.031239122,0.0036021841,-0.004613667,0.13889177,0.14249207,0.19271643,0.19144401,-0.0017150864,-0.0025191382,0.00906866,0.008925926,85,4,132,2,10,3522.4534,182.86557,1747.6677,54.71192,532799,732.76636,181.46268,180.79079,170.90237,170.90237,10.411538,1,0,0,0,0,137.80426,0,0,255,0,0,0,4,0,0,0
True,37895781,9499.995,1203.1134,7014.138,-0.040075302,1.2211078,5.992528,0.0058403015,-0.33407483,55.403145,-0.0026891138,0.00033872717,0.0016260861,-2.255452,-0.020560706,-0.0013454735,0.52978647,0.5298548,0.6712095,0.6667743,0.14452322,0.13390519,0.14662102,0.15242606,160.4766,160.31308,160.19533,160.2487,0,0,0,0,0,0,0,0,0,0,0,0,-0.034257118,0.031506717,0.004199096,-0.005938782,0.14852782,0.13756189,0.14668113,0.15254171,0.0027718395,0.0027757958,0.0109501,0.010693125,85,4,132,2,10,3517.5132,182.94785,1743.6356,55.404152,537576.44,732.1572,181.21725,180.54893,170.75777,170.75777,10.557506,1,0,0,0,0,137.92006,0,0,255,0,0,0,4,0,0,0
True,37895890,9499.995,1203.1134,7132.563,-0.10953283,-1.3722247,5.7736635,-0.0021972656,-0.31195864,56.04376,0.003614628,0.0014989491,0.008661472,-2.2553415,-0.016950374,-0.00060968567,0.45369026,0.47549886,0.63899326,0.64521945,0.14413002,0.1391997,0.2261096,0.23758048,162.34335,162.26428,163.30869,163.29906,0,0,0,0,0,0,0,0,0,0,0,0,-0.031764913,0.030419933,0.004355338,-0.0044735833,0.14758886,0.14248484,0.22615154,0.23762259,-0.0016345829,-0.00037173554,0.009083509,0.009444252,85,4,132,2,10,3512.627,183.03108,1739.6472,56.044624,544907,729.5893,180.97055,180.30486,170.60944,170.60944,10.778855,1,0,0,0,0,138.03325,0,0,255,0,0,0,4,0,0,0
True,37895984,9499.995,1203.1134,7098.27,-1.132112,1.600417,4.9508896,-0.01662445,-0.3136833,56.531906,-0.012465615,-0.040142316,0.0060404604,-2.257182,-0.020393161,5.877483E-05,0.5688106,0.600895,0.6679059,0.6791892,0.07097367,0.06914699,0.08103965,0.07144263,162.35117,162.51527,162.0712,162.10847,0,0,0,0,0,0,0,0,0,0,0,0,-0.09623049,-0.031334523,-0.0004804256,-0.010795084,0.119572446,0.07591547,0.081041075,0.0722536,0.005031567,0.0068894476,0.010758691,0.011412438,85,4,132,2,10,3508.3848,183.10051,1736.1779,56.532776,285358.53,383.90878,180.77388,180.10194,170.47974,170.47974,7.22676,1,0,0,0,0,138.13055,0,0,137,0,0,0,4,-13,0,0
True,37896093,9499.995,1203.1134,7059.446,-0.7600171,-1.2984644,0.9952138,0.13619232,-0.18852305,56.60482,0.018680854,-0.02875867,-0.015218561,-2.2614274,-0.015412066,-0.00025200518,0.5475894,0.5302483,0.6309534,0.639024,0.010970684,0.009593132,0.028459875,0.021644048,161.48416,161.59792,161.18797,161.22209,0,0,0,0,0,0,0,0,0,0,0,0,-0.04325247,0.017187992,-0.022103818,-0.031295836,0.044622105,0.019683883,0.036035307,0.038051203,0.0038027354,0.0027985834,0.008617684,0.009085294,85,4,132,2,10,3503.377,183.19113,1732.0654,56.6053,31535.584,42.65286,180.48737,179.80527,170.25122,170.25122,-1.3979502,1,0,0,0,0,138.24506,0,0,74,0,0,0,4,0,0,0
True,37896203,9499.995,1203.1134,7022.454,-1.2219338,1.2366163,-0.9090687,0.12935829,-0.14283332,56.475258,-0.011214008,-0.010266575,-0.004333833,-2.2633705,-0.017473055,-0.0015891612,0.65408003,0.64508396,0.6567439,0.64911294,-0.006919371,-0.005546449,-0.010412127,-0.010042806,160.8727,160.94641,160.23296,160.28499,0,0,0,0,0,0,0,0,0,0,0,0,-0.049698614,0.013519907,-0.015634794,-0.026700115,0.05017798,0.014613384,0.018784545,0.028526375,0.009969179,0.009448253,0.010111969,0.009669837,85,4,132,2,10,3499.1006,183.26468,1728.5413,56.475586,-61232,-83.25424,180.25537,179.5648,170.0422,170.0422,-5.914834,1,0,0,0,0,138.34306,0,0,34,0,0,0,4,0,0,0
True,37896312,9499.995,1203.1134,6978.688,-0.6965875,-1.0077869,-1.9206859,0.06811905,-0.09571275,56.239174,0.00779007,-0.00022014574,0.0017309734,-2.2637272,-0.014269812,-0.0013410684,0.55849135,0.5732141,0.5975194,0.60787094,-0.011701079,-0.011922507,-0.035400417,-0.032272797,160.11285,160.11162,159.13911,159.1875,0,0,0,0,0,0,0,0,0,0,0,0,-0.04022363,0.01927283,-0.0073037595,-0.015486285,0.041890994,0.022662485,0.036146015,0.03579607,0.004434023,0.0052865595,0.0066805407,0.007280305,85,4,132,2,10,3494.0854,183.35594,1724.3926,56.239296,-103432.484,-141.51935,179.95863,179.26208,169.79105,169.79105,-8.626667,1,0,0,0,0,138.45856,0,0,13,0,0,0,4,0,0,0
True,37896437,9499.995,1203.1134,6941.2188,-0.13750064,0.9232735,-2.4848022,0.022182465,-0.09337866,55.923737,0.0036860819,0.0024749294,0.005614903,-2.263605,-0.016671795,-0.0014766878,0.6469443,0.6513661,0.6278874,0.62496763,-0.019444417,-0.016275944,-0.025831867,-0.02792738,159.09187,159.1357,158.39697,158.35141,0,0,0,0,0,0,0,0,0,0,0,0,-0.03746811,0.027244233,0.001692801,-0.008184116,0.042213086,0.0317357,0.025887273,0.029101862,0.009555973,0.0098120235,0.0084400475,0.008270875,85,4,132,2,10,3489.0437,183.44617,1720.2128,55.923817,-126718.73,-174.30313,179.67981,178.97989,169.54886,169.54886,-10.492176,1,0,0,0,0,138.57536,0,0,0,0,0,0,4,0,0,0
True,37896531,9499.995,1203.1134,6901.857,-0.08192158,-0.78925115,-2.5867743,-0.003973007,-0.0689635,55.6476,-0.016206576,0.0026826945,0.012250926,-2.2632904,-0.014081432,3.1859607E-05,0.58443666,0.6202543,0.57799757,0.5971898,-0.013353916,-0.014537696,-0.04375022,-0.04056541,158.4298,158.39825,157.3642,157.39703,0,0,0,0,0,0,0,0,0,0,0,0,-0.029351942,0.028477725,0.003565199,-0.003767004,0.032246914,0.031973824,0.04389524,0.04073994,0.0059364103,0.008010466,0.0055494606,0.006661445,85,4,132,2,10,3484.609,183.52528,1716.5342,55.64764,-125099.5,-173.07997,179.41577,178.72092,169.32837,169.32837,-10.915121,1,0,0,0,0,138.67865,0,0,0,0,0,0,4,0,0,0
True,37896640,9499.995,1203.1134,6869.3135,-0.061858058,0.90540063,-2.782931,-0.006175995,-0.10296056,55.35573,0.025067324,-5.6266843E-05,-0.015805466,-2.2631428,-0.01736599,-0.000894107,0.6584813,0.6333938,0.654792,0.6555863,-0.021573193,-0.021770474,-0.025712967,-0.025704678,157.41415,157.42014,156.762,156.75073,0,0,0,0,0,0,0,0,0,0,0,0,-0.031438746,0.03572004,0.007967952,-0.0038119415,0.038128693,0.041831505,0.026919229,0.025985792,0.010224037,0.008771323,0.00999888,0.010044899,85,4,132,2,10,3480.1165,183.61072,1712.807,55.355827,-123846.4,-172.12799,179.16895,178.46861,169.11789,169.11789,-11.003001,1,0,0,0,0,138.78384,0,0,0,0,0,0,4,0,0,0
True,37896750,9499.995,1203.1134,6836.9097,0.075558186,0.066444255,-2.8815186,0.0032520294,-0.09043294,55.06631,-0.03926955,-0.00025670632,-0.00021898374,-2.2631664,-0.016308982,-0.0018487105,0.63595724,0.63501114,0.6050639,0.58240676,-0.013802434,-0.01324837,-0.029423585,-0.02974079,156.78778,156.79752,155.96274,155.95972,0,0,0,0,0,0,0,0,0,0,0,0,-0.030073604,0.028962089,0.0036052472,-0.00403429,0.03308971,0.03184842,0.029643636,0.030013165,0.008919761,0.008864973,0.0071176663,0.005804926,85,4,132,2,10,3475.578,183.69548,1709.0431,55.066387,-122518.73,-171.1141,178.90604,178.21255,168.89117,168.89117,-11.020704,1,0,0,0,0,138.89066,0,0,0,0,0,0,4,0,0,0
True,37896875,9499.995,1203.1134,6789.02,-0.05190122,-0.44792265,-2.6552176,-0.0014400482,-0.077917874,54.740936,0.020718502,0.00077194837,0.01424263,-2.2631257,-0.015960762,-0.0006140681,0.5406228,0.5758584,0.5802751,0.58980465,-0.017400337,-0.01658147,-0.03649929,-0.038100418,155.74364,155.75148,154.85754,154.82993,0,0,0,0,0,0,0,0,0,0,0,0,-0.032000758,0.029995058,0.0028989536,-0.004548699,0.036425546,0.034273148,0.036614235,0.038370986,0.0033993274,0.00543968,0.0056814216,0.0062335543,85,4,132,2,10,3470.3894,183.79881,1704.7405,54.740997,-120640.516,-169.6705,178.60251,177.91653,168.64682,168.64682,-11.024343,1,0,0,0,0,139.01344,0,0,0,0,0,0,4,0,0,0
True,37896968,9499.995,1203.1134,6757.4443,-0.07572508,-0.80753183,-2.7921329,-0.007566452,-0.07890183,54.472637,0.019912511,0.0006019959,0.0059366636,-2.263051,-0.014368996,0.0004292983,0.5258461,0.5482069,0.51763374,0.5379809,-0.01664503,-0.016843943,-0.034036063,-0.03367123,154.99223,154.98734,154.13884,154.13979,0,0,0,0,0,0,0,0,0,0,0,0,-0.030107899,0.031569622,0.00251222,-0.001319831,0.034402654,0.03578211,0.03412865,0.033697087,0.0025436692,0.0038384944,0.0020520203,0.003230922,85,4,132,2,10,3466.1367,183.87442,1701.2135,54.4727,-119426.32,-168.7446,178.35504,177.67047,168.43701,168.43701,-11.02486,1,0,0,0,0,139.11462,0,0,0,0,0,0,4,0,0,0
True,37897093,9499.995,1203.1134,6724.711,-0.85195255,0.9120167,-2.7564757,-0.04418564,-0.081698,54.15387,-0.031581365,-0.031541985,-0.005672478,-2.2638187,-0.016174663,0.00091232423,0.6082956,0.63350695,0.53945875,0.56735724,-0.013111926,-0.014927587,-0.027513256,-0.024070082,154.11058,154.23723,153.32123,153.5254,0,0,0,0,0,0,0,0,0,0,0,0,-0.108554065,-0.0485496,0.0029532367,-0.0024132733,0.109343074,0.050792683,0.0276713,0.024190757,0.0073179863,0.008777872,0.0033165477,0.004932966,85,4,132,2,10,3461.2095,183.95938,1697.125,54.15395,-118123.85,-167.71858,178.09174,177.40564,168.19861,168.19861,-11.024977,1,0,0,0,0,139.23253,0,0,0,0,0,0,4,-22,0,0
True,37897187,9499.995,1203.1134,6684.6265,-2.4118402,-0.09623658,-2.8142245,0.13622856,-0.07517606,53.887978,0.01504918,-0.107559845,-0.016242187,-2.2723298,-0.015845835,-0.0012235926,0.57876515,0.56468624,0.56716835,0.5826752,-0.017628608,-0.015914356,-0.03711304,-0.033073947,153.06319,153.59695,152.18507,152.76166,0,0,0,0,0,0,0,0,0,0,0,0,-0.024870273,0.037330393,-0.040726222,-0.046961576,0.030484393,0.040581092,0.055099938,0.05743932,0.005607996,0.004792746,0.004922025,0.0058204792,85,4,132,2,10,3457.0303,184.04097,1693.6274,53.888206,-116589,-166.5309,177.90408,177.19963,167.99335,167.99335,-11.024995,1,0,0,0,0,139.33342,0,0,0,0,0,0,4,0,0,0
True,37897296,9499.995,1203.1134,6650.181,-2.3562212,-0.29026207,-2.5444896,0.35461044,-0.06759599,53.58529,-0.022250367,-0.053794134,-0.0062401015,-2.2813008,-0.014651109,-0.0025323853,0.5623595,0.5883139,0.52430934,0.52819544,-0.014596876,-0.01176287,-0.0381573,-0.030220477,152.41364,152.71582,151.48784,151.8642,0,0,0,0,0,0,0,0,0,0,0,0,-0.073443204,-0.014116577,-0.06905885,-0.07057898,0.07487972,0.018375061,0.07889933,0.07677675,0.0046580136,0.006160926,0.0024387985,0.0026639588,85,4,132,2,10,3452.3047,184.12453,1689.6378,53.586506,-115239.54,-165.46307,177.63652,176.92783,167.76987,167.76987,-11.024998,1,0,0,0,0,139.4485,0,0,0,0,0,0,4,0,0,0
True,37897406,9499.995,1203.1134,6629.546,-2.7692423,0.9517371,-2.470441,0.24193764,-0.08518961,53.33663,0.00613968,-0.012409226,0.009185035,-2.284463,-0.017473834,-0.0021292814,0.58019954,0.65091574,0.57941294,0.6283484,-0.009360657,-0.007945598,-0.015129588,-0.01166924,151.87404,151.9592,151.23228,151.34319,0,0,0,0,0,0,0,0,0,0,0,0,-0.07048942,-0.0065309154,-0.040076587,-0.047152624,0.07110823,0.010285202,0.042837337,0.048575107,0.005691055,0.009785946,0.0056314655,0.008466754,85,4,132,2,10,3448.3293,184.20251,1686.2437,53.33725,-58907.023,-84.84342,177.42531,176.70813,167.59421,167.59421,-10.281765,1,0,0,0,0,139.54631,0,0,54,0,0,0,4,0,0,0
True,37897515,9499.995,1203.1134,6697.1704,-1.4681437,-0.6485391,-0.035116613,0.097229004,-0.12375447,53.338364,0.017319752,0.004163025,0.0053900173,-2.284726,-0.016367326,-0.0011857961,0.51895726,0.5655571,0.54679054,0.58880115,0.0691441,0.068030305,0.0827171,0.08153537,153.2191,153.18994,152.96547,152.94318,0,0,0,0,0,0,0,0,0,0,0,0,-0.050916035,0.01423287,-0.013458001,-0.019362785,0.08586821,0.06950322,0.08380475,0.083802946,0.002144765,0.0048431754,0.0037413463,0.0061754137,85,4,132,2,10,3443.58,184.29733,1682.154,53.338593,233325.75,332.78076,177.15735,176.42479,167.36534,167.36534,-1.7149277,1,0,0,0,0,139.6639,0,0,171,0,0,0,4,0,0,0
True,37897640,9499.995,1203.1134,6784.4556,-0.56563914,-0.22834343,3.1979375,0.01862526,-0.20089704,53.727272,-0.06451095,0.004329413,-0.00053767115,-2.284149,-0.016568929,-0.001136226,0.52840877,0.5287219,0.54309124,0.5567121,0.08435584,0.082713105,0.13956802,0.14033823,154.76567,154.72227,155.16898,155.15775,0,0,0,0,0,0,0,0,0,0,0,0,-0.033070937,0.024833195,-0.00043109123,-0.0041628317,0.090606816,0.08636056,0.13956869,0.14039996,0.0026920624,0.0027101971,0.0035270117,0.004316196,85,4,132,2,10,3438.872,184.37607,1678.0854,53.727654,420035.5,591.3191,176.9101,176.17593,167.1784,167.1784,5.408265,1,0,0,0,0,139.78018,0,0,231,0,0,0,4,0,0,0
True,37897734,9499.995,1203.1134,6864.283,-0.13269973,1.489253,4.5978737,-0.006111145,-0.26190668,54.2216,0.039337084,0.0029334114,0.00482291,-2.2837613,-0.02144622,-0.0008004215,0.53195053,0.5498147,0.67101264,0.6758679,0.15194137,0.16880825,0.14710853,0.14484134,157.07423,157.31514,156.71455,156.6696,0,0,0,0,0,0,0,0,0,0,0,0,-0.034126718,0.034539565,0.006797969,-0.004512597,0.15572673,0.17230557,0.14726551,0.14491163,0.0028971508,0.003931593,0.010938693,0.011220004,85,4,132,2,10,3434.753,184.45929,1674.5228,54.222237,479069.8,666.8153,176.70694,175.97568,167.06451,167.06451,8.354234,1,0,0,0,0,139.88107,0,0,243,0,0,0,4,0,0,0
True,37897843,9499.995,1203.1134,6922.0815,0.08293438,-1.2469718,5.1168594,-0.009744644,-0.29750356,54.727936,-0.0004666397,0.0015692331,-0.0009524369,-2.2835758,-0.0183308,-0.0008734093,0.45015398,0.44353086,0.60683584,0.60701317,0.11738015,0.11357649,0.15582001,0.16494125,158.03398,157.97319,158.20161,158.30656,0,0,0,0,0,0,0,0,0,0,0,0,-0.030536668,0.03289662,0.0054175593,-0.0014190372,0.12128721,0.118244685,0.15591416,0.16494736,-0.0018393546,-0.0022228733,0.0072203316,0.007230606,85,4,132,2,10,3430.6245,184.53781,1670.9525,54.72875,384790.88,530.7827,176.50665,175.77931,166.93701,166.93701,8.141437,1,0,0,0,0,139.98126,0,0,197,0,0,0,4,0,0,0
True,37897953,9499.995,1203.1134,6916.8984,0.09381759,0.4918088,3.0622354,-0.006887436,-0.26331168,55.066353,-0.033807926,0.0005319443,0.0027293991,-2.2834623,-0.018803103,-0.0006585391,0.52413374,0.5285795,0.6062388,0.6084785,0.054749254,0.05389482,0.08781468,0.08784115,158.03595,158.01886,158.07466,158.06252,0,0,0,0,0,0,0,0,0,0,0,0,-0.028592307,0.029976517,0.004469431,-0.002496978,0.061765693,0.06167044,0.08792835,0.08787663,0.0024445131,0.0027019493,0.0071857385,0.0073155053,85,4,132,2,10,3425.6934,184.62231,1666.6897,55.066982,279432.6,385.80612,176.25409,175.53099,166.75558,166.75558,3.911477,1,0,0,0,0,140.09998,0,0,173,0,0,0,4,0,0,0
True,37898078,9499.995,1203.1134,6973.1387,0.014802694,0.27394667,2.5518684,-0.0072307587,-0.20134795,55.360718,0.06503457,-0.000120277226,0.0031797364,-2.2834105,-0.019621825,0.00012257043,0.52059627,0.53258544,0.65863836,0.66387874,0.09089503,0.10923308,0.11883892,0.115742974,159.30191,159.58057,159.31012,159.27594,0,0,0,0,0,0,0,0,0,0,0,0,-0.032430757,0.035393905,0.0066397926,-0.005024337,0.0965073,0.11482419,0.11902427,0.115851976,0.0022396743,0.0029339157,0.010221735,0.010525357,85,4,132,2,10,3420.7678,184.72797,1662.4329,55.36108,284194.25,389.3108,175.99567,175.2765,166.5805,166.5805,3.774104,1,0,0,0,0,140.2179,0,0,175,0,0,0,4,0,0,0
True,37898171,9499.995,1203.1134,6999.8594,0.035885334,-0.74175256,2.9089613,0.0027313232,-0.24311745,55.650692,-0.023589998,-0.0020955547,-0.015264173,-2.2835367,-0.017968757,-0.0010958222,0.52204484,0.45833412,0.57032186,0.57077384,0.071796566,0.078095704,0.10480708,0.09240903,159.96785,160.07169,159.944,159.89345,0,0,0,0,0,0,0,0,0,0,0,0,-0.029740384,0.032460008,0.0028672756,-0.0023217818,0.07771253,0.08457299,0.1048463,0.09243819,0.002323553,-0.0013656765,0.0051047355,0.0051309243,85,4,132,2,10,3416.5688,184.80574,1658.8038,55.65122,301500.16,411.33362,175.78268,175.06247,166.41406,166.41406,4.190604,1,0,0,0,0,140.31787,0,0,181,0,0,0,4,0,0,0
True,37898296,9499.995,1203.1134,7040.727,0.04059267,0.2002881,2.855977,0.012979507,-0.25090653,55.980396,-0.015128164,-0.00033247852,0.005387706,-2.2836876,-0.018897472,-0.0020915072,0.47797513,0.4944367,0.588586,0.57435703,0.07051646,0.06826268,0.10102084,0.100003056,160.88884,160.85905,160.92032,160.85997,0,0,0,0,0,0,0,0,0,0,0,0,-0.03301934,0.028239928,0.00059180474,-0.0051057106,0.07786429,0.07387345,0.10102258,0.100133315,-0.0002283454,0.00072487816,0.006162945,0.005338531,85,4,132,2,10,3411.657,184.89694,1654.5596,55.98096,305760.3,414.75653,175.52966,174.81635,166.23701,166.23701,4.3623896,1,0,0,0,0,140.43416,0,0,182,0,0,0,4,0,0,0
True,37898406,9499.995,1203.1134,7092.66,0.061697125,-0.8730598,2.8472538,0.0049972534,-0.2530509,56.29344,0.03833573,0.00065007096,0.0031248461,-2.283674,-0.017535832,-0.0017873276,0.46023414,0.46904343,0.5912919,0.6029963,0.097472884,0.090803966,0.11944802,0.12352054,162.13882,162.03569,162.03412,162.09447,0,0,0,0,0,0,0,0,0,0,0,0,-0.033862997,0.031173795,0.0024359063,-0.0044937287,0.103187524,0.09600607,0.119472854,0.123602256,-0.0012556538,-0.00074554235,0.006319724,0.0069978684,85,4,132,2,10,3406.8787,184.98723,1650.4299,56.294018,307593.28,414.19144,175.28094,174.56982,166.06192,166.06192,4.496909,1,0,0,0,0,140.54666,0,0,182,0,0,0,4,0,0,0
True,37898500,9499.995,1203.1134,7115.9243,0.037802458,-0.1644094,3.0446725,-0.0021476746,-0.26496115,56.5819,-0.028811522,0.0018579462,0.005331576,-2.2835572,-0.017261917,-0.0010684937,0.5490151,0.55386436,0.5821836,0.5929691,0.0715742,0.073810704,0.096919805,0.095567964,162.65623,162.6725,162.57152,162.57738,0,0,0,0,0,0,0,0,0,0,0,0,-0.0317935,0.030830732,0.0030737314,-0.0027884133,0.078317896,0.07999096,0.09696854,0.09560864,0.0038852915,0.0041660927,0.0057919957,0.006416902,85,4,132,2,10,3402.7537,185.05426,1646.8649,56.582523,311206.2,417.67188,175.0746,174.37048,165.91039,165.91039,4.6213255,1,0,0,0,0,140.64328,0,0,183,0,0,0,4,0,0,0
True,37898625,9499.995,1203.1134,7155.0347,0.005073428,0.91422766,2.8684072,-0.0013008118,-0.23477396,56.92117,-0.02309157,7.5932665E-05,-0.0049321437,-2.2834597,-0.01897073,-0.0011069963,0.6239961,0.60827225,0.6695064,0.6687613,0.0676362,0.06759137,0.09204382,0.09129719,163.5637,163.55876,163.46483,163.46844,0,0,0,0,0,0,0,0,0,0,0,0,-0.030897731,0.03182663,0.006004174,-0.0048231827,0.07435943,0.074709624,0.09223945,0.0914245,0.008227136,0.007316634,0.01085142,0.010808252,85,4,132,2,10,3397.6873,185.1461,1642.486,56.921658,312298.1,416.8363,174.82626,174.12306,165.73541,165.73541,4.698756,1,0,0,0,0,140.76128,0,0,183,0,0,0,4,0,0,0
True,37898718,9499.995,1203.1134,7199.498,-0.033854008,-0.39600596,2.7318196,0.0013141632,-0.1927762,57.19272,0.03410905,0.0012444479,0.011566513,-2.2834053,-0.017638119,-0.0008252012,0.5925661,0.595035,0.67102194,0.6636168,0.08379927,0.078991115,0.11440784,0.11604583,164.49648,164.4241,164.52997,164.54564,0,0,0,0,0,0,0,0,0,0,0,0,-0.034052607,0.031093543,0.00519852,-0.0065051457,0.09045384,0.084890544,0.11452588,0.11622802,0.006407153,0.0065501183,0.010939229,0.01051018,85,4,132,2,10,3393.3098,185.23395,1638.7032,57.19304,286868.25,380.5536,174.6001,173.90451,165.58493,165.58493,4.452506,1,0,0,0,0,140.86267,0,0,173,0,0,0,4,0,0,0
True,37898828,9499.995,1203.1134,7200.9175,0.01949501,0.360942,2.2649546,-0.005935669,-0.2406455,57.432457,-0.012511537,0.0004237718,0.0011560111,-2.2832952,-0.018801257,1.0073185E-05,0.58781016,0.6004946,0.63798034,0.66014355,0.0532616,0.057016585,0.06692891,0.065517,164.73933,164.79572,164.44907,164.43233,0,0,0,0,0,0,0,0,0,0,0,0,-0.03126609,0.033330847,0.0055956407,-0.004400233,0.061760556,0.0660442,0.06716241,0.0656646,0.006131757,0.0068662614,0.009024821,0.010308944,85,4,132,2,10,3388.6218,185.32033,1634.6523,57.43296,221769.14,294.11145,174.37083,173.6763,165.4083,165.4083,2.8699617,1,0,0,0,0,140.97078,0,0,150,0,0,0,4,0,0,0
True,37898953,9499.995,1203.1134,7225.325,-0.07000661,-0.69884014,1.517005,-0.00074386597,-0.22868446,57.625633,-0.004218997,5.455401E-05,-0.0009541502,-2.2832966,-0.016886512,-0.00023420993,0.6085279,0.5896754,0.6633946,0.65043133,0.050646372,0.049434274,0.07171727,0.072012804,165.23193,165.21376,165.03616,165.05725,0,0,0,0,0,0,0,0,0,0,0,0,-0.031698152,0.031736992,0.005608411,-0.0048721405,0.059748035,0.05874508,0.07193623,0.07217743,0.0073314384,0.006239768,0.010497306,0.009746224,85,4,132,2,10,3383.2285,185.41878,1629.9926,57.626087,203979.95,269.59146,174.09041,173.39912,165.1954,165.1954,1.8212652,1,0,0,0,0,141.09468,0,0,145,0,0,0,4,0,0,0
True,37899046,9499.995,1203.1134,7237.331,0.031079233,-0.46934792,1.4432833,-0.00047683716,-0.18130654,57.760254,0.020550257,0.00061493827,0.005769913,-2.283262,-0.015506828,9.021256E-06,0.65242964,0.65425754,0.6788766,0.6766024,0.04583693,0.045685735,0.06758656,0.06780527,165.49606,165.49332,165.32935,165.31508,0,0,0,0,0,0,0,0,0,0,0,0,-0.032528,0.031585313,0.005827299,-0.0061930288,0.056205828,0.055541143,0.06783731,0.0680875,0.00987361,0.009979457,0.011394322,0.011262562,85,4,132,2,10,3378.937,185.4912,1626.2853,57.760536,184815.97,243.8666,173.86731,173.18169,165.02953,165.02953,1.2940388,1,0,0,0,0,141.193,0,0,138,0,0,0,4,0,0,0
True,37899156,9499.995,1203.1134,7245.86,-0.008495569,0.22090945,1.1996801,-0.0035934448,-0.11392841,57.878754,-0.009646703,0.00045994707,0.005158626,-2.2831926,-0.014783443,0.0005396386,0.6585345,0.6600446,0.679398,0.67887366,0.03536306,0.035970986,0.05752942,0.056848112,165.69478,165.70383,165.5214,165.50362,0,0,0,0,0,0,0,0,0,0,0,0,-0.03028753,0.030699074,0.006517549,-0.0058724713,0.046560504,0.04729001,0.05789743,0.057150625,0.010227118,0.010314561,0.011424534,0.011394154,85,4,132,2,10,3374.443,185.56465,1622.4037,57.87887,170287.98,224.4358,173.64062,172.95792,164.85056,164.85056,0.75945187,1,0,0,0,0,141.29568,0,0,133,0,0,0,4,0,0,0
True,37899281,9499.995,1203.1134,7256.0005,-0.012402594,1.0702282,0.93234456,-0.0021343231,-0.15017602,57.98799,-0.0056918035,0.00015080505,0.0015916629,-2.2831535,-0.017997265,0.0008602144,0.61209774,0.6128479,0.65851724,0.65524495,0.03999368,0.040524777,0.048375875,0.0487896,166.06755,166.07733,165.6762,165.67899,0,0,0,0,0,0,0,0,0,0,0,0,-0.032036833,0.032551844,0.0059190076,-0.005402615,0.05124308,0.051979613,0.04873664,0.049087815,0.007538151,0.0075815916,0.010214716,0.010025121,85,4,132,2,10,3369.068,185.66612,1617.761,57.988186,153844.11,202.478,173.37549,172.69684,164.64204,164.64204,0.25001144,1,0,0,0,0,141.41829,0,0,127,0,0,0,4,0,0,0
True,37899390,9499.995,1203.1134,7268.0728,0.03241709,-0.7318962,0.8591118,0.002998352,-0.18604127,58.075462,0.0029850393,-0.0010484369,-0.012975935,-2.2832153,-0.016575437,5.3017393E-05,0.5429741,0.50717556,0.58588135,0.5821553,0.038053636,0.03822056,0.05395796,0.053703096,166.27257,166.27754,165.98718,165.98878,0,0,0,0,0,0,0,0,0,0,0,0,-0.030653963,0.031844232,0.003596867,-0.0029312705,0.048864555,0.04974803,0.05407771,0.053783033,0.003535483,0.0014625341,0.006006241,0.0057903565,85,4,132,2,10,3363.9875,185.76244,1613.3727,58.075756,147684.55,194.04076,173.112,172.43152,164.43047,164.43047,-0.058992386,1,0,0,0,0,141.53401,0,0,125,0,0,0,4,0,0,0
True,37899484,9499.995,1203.1134,7278.958,-0.09444672,-1.2281924,0.6006354,0.010416031,-0.1985907,58.146233,0.041222356,-0.0016208198,-0.012943541,-2.2833295,-0.014783089,-0.001121315,0.52294165,0.5038826,0.59095657,0.56241405,0.046178747,0.04843871,0.05752402,0.05723648,166.55807,166.5972,166.21046,166.2122,0,0,0,0,0,0,0,0,0,0,0,0,-0.03320812,0.032556772,0.002509813,-0.003679584,0.05687931,0.058363102,0.05757875,0.057354633,0.0023754835,0.0012718514,0.0063002966,0.004646562,85,4,132,2,10,3359.7043,185.83394,1609.6736,58.146576,147284.27,193.23232,172.88843,172.2088,164.25482,164.25482,-0.123417854,1,0,0,0,0,141.63142,0,0,125,0,0,0,4,0,0,0
True,37899609,9499.995,1203.1134,7287.79,-0.07551634,-1.4516109,0.6696582,0.022315979,-0.18697542,58.236286,-0.006006267,-0.0025410294,-0.030538745,-2.2835972,-0.010992638,-0.0039227437,0.5319718,0.45867625,0.57011557,0.5290545,0.03202757,0.036342386,0.057739124,0.05170634,166.63953,166.72012,166.46733,166.45291,0,0,0,0,0,0,0,0,0,0,0,0,-0.030562853,0.029695638,0.0007305925,-0.0032948435,0.044270232,0.046931867,0.057743747,0.05181121,0.002898384,-0.0013458654,0.005092781,0.0027137324,85,4,132,2,10,3354.5295,185.89577,1605.2043,58.236588,142305.22,186.46248,172.62326,171.94086,164.0318,164.0318,-0.19276619,1,0,0,0,0,141.74892,0,0,123,0,0,0,4,0,0,0
True,37899718,9499.995,1203.1134,7296.0146,2.6216025,-0.27747598,0.629133,0.14455414,-0.18129608,58.311012,0.0037524132,0.094278365,-0.030587241,-2.2813342,-0.0109605165,-0.007832664,0.5914894,0.36905175,0.54122525,0.46843812,0.027595267,0.05569213,0.041256938,0.06408883,166.90085,166.87323,166.67345,166.60443,0,0,0,0,0,0,0,0,0,0,0,0,0.2910606,0.38845727,0.0012305146,-0.0006173908,0.29236582,0.3924292,0.041275285,0.0640918,0.0063448064,-0.0065356568,0.0034188963,-0.0007983409,85,4,132,2,10,3349.5332,185.94824,1600.8972,58.311474,142026.31,185.89621,172.41125,171.7196,163.82953,163.82953,-0.23683071,1,0,0,0,0,141.86212,0,0,123,0,0,0,4,127,0,0
True,37899828,9499.995,1203.1134,7306.5996,8.919506,0.8731662,0.39210224,-0.27609253,-0.1622217,58.32948,-0.010665545,0.35552773,-0.016639324,-2.2557874,-0.0123336045,-0.010673383,0.6648062,0.4103559,0.61828846,0.41915178,0.035908777,0.12333182,0.021012204,0.1018767,167.33257,166.97572,166.97346,166.76439,0,0,0,0,0,0,0,0,0,0,0,0,0.6582582,0.8587613,0.107871056,0.11634997,0.6592369,0.8675723,0.10989849,0.15464856,0.010590285,-0.004143901,0.007883888,-0.0036539584,85,4,132,2,10,3344.5398,186.0047,1596.6948,58.330357,156442.17,204.47935,172.41428,171.68977,163.65927,163.65927,-0.06922245,1,0,0,0,0,141.97403,0,0,129,0,0,0,4,127,0,0
True,37899937,9499.995,1203.1134,7404.831,8.1714,-2.7599168,1.3195896,-1.6761055,-0.15921897,58.410126,0.08730995,0.29470453,-0.064872675,-2.215059,-0.0063075894,-0.017005365,0.41068476,0.1820354,0.62843704,0.414142,0.091751546,0.17181003,0.14553416,0.26035053,168.81366,168.62682,169.20763,169.65929,0,0,0,0,0,0,0,0,0,0,0,0,0.16221903,0.23547783,0.32617283,0.35009408,0.18636888,0.29149356,0.3571679,0.4362892,-0.0041248575,-0.017365016,0.008471891,-0.003944222,85,4,132,2,10,3339.403,186.05678,1592.5404,58.43439,270956.25,349.54288,172.36423,171.60588,163.55807,163.55807,2.6771803,1,0,0,0,0,142.08723,0,0,171,0,0,0,4,0,0,0
True,37900046,9499.995,1203.1134,7417.6187,10.746653,-2.483593,2.6852198,-2.065321,-0.2132439,58.664303,0.024373278,0.16694324,-0.04318244,-2.1884634,-0.00125517,-0.021831503,0.5431876,0.13014235,0.54467934,0.24879168,0.07770347,0.19221923,0.10694034,0.19536392,169.12254,170.11894,169.17624,169.7016,0,0,0,0,0,0,0,0,0,0,0,0,0.24235786,0.33448082,0.32521337,0.37527695,0.25450966,0.38577926,0.34234482,0.42308375,0.0035478473,-0.020369932,0.0036190264,-0.01352451,85,4,132,2,10,3334.3013,186.06088,1588.5502,58.701035,307210.06,395.53806,172.2109,171.4414,163.5267,163.5267,4.356002,1,0,0,0,0,142.19783,0,0,181,0,0,0,4,0,0,0
True,37900156,9499.995,1203.1134,7441.9043,11.666096,-0.72463524,3.3919911,-1.3937931,-0.23958564,58.992752,-0.03535219,0.048963107,-0.062142484,-2.1778514,0.00013876706,-0.026949387,0.6344684,0.15163861,0.4950218,0.2158718,0.056442313,0.1245547,0.10742411,0.14955354,169.53658,170.33995,170.00157,170.20995,0,0,0,0,0,0,0,0,0,0,0,0,0.15532318,0.24010259,0.20802735,0.23578706,0.16526046,0.27048683,0.23412672,0.2792164,0.008833546,-0.019125171,0.000741899,-0.015431866,85,4,132,2,10,3329.1245,186.04012,1584.6833,59.0097,379728.6,487.3053,172.08533,171.28633,163.50613,163.50613,5.6668825,1,0,0,0,0,142.30762,0,0,206,0,0,0,4,0,0,0
True,37900265,9499.995,1203.1134,7545.5234,8.37051,1.5203255,4.8285217,-0.4164276,-0.25874424,59.54216,0.006585229,-0.04495681,-0.11640237,-2.1781855,-0.004208398,-0.040011868,0.6191043,0.19733544,0.6706816,0.39331415,0.10808268,0.12905417,0.18742898,0.16703849,171.71681,172.28351,172.60713,172.62828,0,0,0,0,0,0,0,0,0,0,0,0,0.04847098,0.111751236,0.0682903,0.065036535,0.1184538,0.17071414,0.19948229,0.17925292,0.007943876,-0.016479053,0.010919511,-0.005150974,85,4,132,2,10,3323.7786,186.03325,1580.8589,59.54417,553095.6,700.3737,171.93176,171.11034,163.46265,163.46265,10.370212,1,0,0,0,0,142.41852,0,0,255,0,0,0,4,0,0,0
True,37900375,9499.995,1203.1134,7609.206,3.2430696,1.2210138,5.45549,0.047599792,-0.32221198,60.078865,-0.0019971877,-0.043154836,-0.10928087,-2.1823206,-0.0068995804,-0.050746474,0.5671644,0.18817165,0.6395571,0.4041781,0.13355789,0.15013708,0.16670097,0.14510463,173.69835,174.21873,173.90163,173.76978,0,0,0,0,0,0,0,0,0,0,0,0,-0.021863101,0.04208893,-0.0026134257,-0.0050423355,0.13533552,0.15592505,0.16672146,0.14519222,0.0049362443,-0.01700969,0.00911618,-0.0045215227,85,4,132,2,10,3319.1033,186.03717,1577.5754,60.07975,565939.06,710.5426,171.75941,170.94122,163.36407,163.36407,11.472247,1,0,0,0,0,142.514,0,0,255,0,0,0,4,0,0,0
True,37900484,9499.995,1203.1134,7681.5264,1.8483506,0.57343405,5.737071,0.2819729,-0.3251201,60.720543,0.016644275,0.04312005,-0.0736157,-2.1836417,-0.0074693067,-0.06131586,0.5846792,0.34394175,0.68346554,0.5195911,0.15931207,0.14306033,0.13220055,0.140369,176.16205,175.67377,175.32605,175.36124,0,0,0,0,0,0,0,0,0,0,0,0,0.17055437,0.2340361,-0.019481234,-0.02779834,0.23338623,0.27429757,0.13362823,0.14309509,0.0059504546,-0.007989675,0.011660203,0.0021654293,85,4,132,2,10,3313.4792,186.04587,1573.6439,60.722065,571408.25,710.45795,171.54758,170.74323,163.23915,163.23915,11.886231,1,0,0,0,0,142.62761,0,0,255,0,0,0,4,41,0,0
