IsRaceOn,TimestampMS,EngineMaxRpm,EngineIdleRpm,CurrentEngineRpm,AccelerationX,AccelerationY,AccelerationZ,VelocityX,VelocityY,VelocityZ,AngularVelocityX,AngularVelocityY,AngularVelocityZ,Yaw,Pitch,Roll,NormalizedSuspensionTravelFrontLeft,NormalizedSuspensionTravelFrontRight,NormalizedSuspensionTravelRearLeft,NormalizedSuspensionTravelRearRight,TireSlipRatioFrontLeft,TireSlipRatioFrontRight,TireSlipRatioRearLeft,TireSlipRatioRearRight,WheelRotationSpeedFrontLeft,WheelRotationSpeedFrontRight,WheelRotationSpeedRearLeft,WheelRotationSpeedRearRight,WheelOnRumbleStripFrontLeft,WheelOnRumbleStripFrontRight,WheelOnRumbleStripRearLeft,WheelOnRumbleStripRearRight,WheelInPuddleDepthFrontLeft,WheelInPuddleDepthFrontRight,WheelInPuddleDepthRearLeft,WheelInPuddleDepthRearRight,SurfaceRumbleFrontLeft,SurfaceRumbleFrontRight,SurfaceRumbleRearLeft,SurfaceRumbleRearRight,TireSlipAngleFrontLeft,TireSlipAngleFrontRight,TireSlipAngleRearLeft,TireSlipAngleRearRight,TireCombinedSlipFrontLeft,TireCombinedSlipFrontRight,TireCombinedSlipRearLeft,TireCombinedSlipRearRight,SuspensionTravelMetersFrontLeft,SuspensionTravelMetersFrontRight,SuspensionTravelMetersRearLeft,SuspensionTravelMetersRearRight,CarOrdinal,CarClass,CarPerformanceIndex,DrivetrainType,NumCylinders,PositionX,PositionY,PositionZ,Speed,Power,Torque,TireTempFl,TireTempFr,TireTempRl,TireTempRr,Boost,Fuel,Distance,BestLapTime,LastLapTime,CurrentLapTime,CurrentRaceTime,Lap,RacePosition,Accelerator,Brake,Clutch,Handbrake,Gear,Steer,NormalDrivingLine,NormalAiBrakeDifference
True,39188984,9499.995,1203.1134,1203.128,-0.0023323335,-0.00024174094,0.12507007,-0.0074899066,-5.889017E-05,0.0018279802,-0.00078767474,1.11435975E-05,-0.00021661559,-0.23939411,-0.001922125,0.00020875316,0.4977211,0.46989188,0.48245376,0.47934857,0.00068823213,0.00022698275,-0.04244021,-0.007864246,0.0052116327,0.0052116327,0.0051931255,0.0051931255,0,0,0,0,0,0,0,0,0,0,0,0,0.037887678,0.031568926,0.009586558,0.009849412,0.03789393,0.03156974,0.043509465,0.01260386,0.0009150654,-0.0006964132,1.3716519E-05,-0.00016619638,85,4,132,2,10,240.65681,463.39722,-1325.3125,0.007709972,-0.056312375,-0.00044695454,142.05392,139.58543,139.45789,139.45789,-11.024998,1,0,0,0,0,223.44728,0,0,0,0,0,255,1,-127,0,0
True,39206203,9499.995,1203.1134,1877.5707,0.0732477,0.004410382,-0.05442893,0.0018081001,-0.00048618135,-0.009448631,8.800265E-05,9.205513E-06,-0.004074756,2.0856643,-0.0133623015,-0.00021723376,0.48064366,0.48365828,0.48128134,0.484128,0.00021044939,0.00028282602,0.00034737348,0.00032839735,-0.027096735,-0.026996981,-0.026982857,-0.02698939,0,0,0,0,0,0,0,0,0,0,0,0,-0.0041361093,0.0046243793,-2.1624859E-05,0.00023015507,0.0041414597,0.00463302,0.00034804593,0.00040101891,-7.382035E-05,0.000100743026,-5.421415E-05,0.00011071935,85,4,132,2,10,159.89914,161.8799,-1275.0598,0.009632352,72562.21,374.9704,105.55344,105.36702,106.74044,106.74044,-7.7775435,1,-51.66482,0,0,0.107662454,0.107662454,0,8,255,0,0,0,1,0,58,0
True,39206312,9499.995,1203.1134,3913.2844,0.014705446,-0.00021877889,-0.09238687,0.0030507073,-0.00060776604,-0.01964525,1.6267644E-05,2.3323406E-05,-0.007026906,2.0856674,-0.013355435,-0.0009208046,0.4755144,0.49150553,0.47671467,0.49085346,0.00030413546,0.00026951454,0.00036073753,0.00031425196,-0.055933274,-0.056028448,-0.055806536,-0.055838745,0,0,0,0,0,0,0,0,0,0,0,0,-0.00445506,0.0038516046,-0.00027008043,-2.903949E-05,0.0044654296,0.0038610226,0.00045063844,0.00031559085,-0.00037083402,0.0005551465,-0.0003188029,0.00050038844,85,4,132,2,10,159.8975,161.87979,-1275.0592,0.019889995,288208.6,712.5903,105.48906,105.302986,106.67285,106.67285,0.028731346,1,-51.665955,0,0,0.22433768,0.22433768,0,8,255,0,0,0,1,0,58,0
True,39206421,9499.995,1203.1134,5918.2,0.028386578,0.0096205035,-0.0014251182,0.00095047476,0.0003888522,-0.015179184,-0.0018128165,-0.0006162734,-0.0048977593,2.085658,-0.013363963,-0.0014715139,0.47627974,0.48673958,0.47234908,0.49634662,0.033543892,0.030676717,0.0678578,0.06005221,0.040432826,0.036586203,0.1261562,0.109230176,0,0,0,0,0,0,0,0,0,0,0,0,-0.007761661,-0.00020581746,0.00029285016,0.0005414689,0.034430165,0.030677408,0.067858435,0.06005465,-0.00032651797,0.00027916953,-0.00057174265,0.0008186586,85,4,132,2,10,159.89543,161.87975,-1275.0583,0.015213884,437738.47,712.59033,105.4357,105.248985,106.61655,106.61655,5.3735056,1,-51.667385,0,0,0.32180208,0.32180208,0,8,255,0,0,0,1,127,58,0
True,39206531,9499.995,1203.1134,6803.5083,1.6861179,-0.31637365,9.606457,0.19698077,-0.02960787,1.2068264,-0.05371188,0.10255745,0.009979943,2.0902622,-0.01801071,-0.0009346932,0.40668824,0.41190296,0.54321945,0.56114906,18.753942,19.475956,18.217615,18.835022,38.7982,39.564667,39.559544,40.43979,0,0,0,0,0,0,0,0,0,0,0,0,1.465946,2.301404,-0.3826587,-0.44484162,18.81115,19.611458,18.221634,18.840275,-0.00435628,-0.0040543154,0.00353444,0.0045732707,85,4,132,2,10,159.94542,161.87976,-1275.0974,1.223155,510066.5,718.95197,108.28821,108.160965,111.10627,111.10627,8.982158,1,-51.626804,0,0,0.43617573,0.43617576,0,8,255,0,0,0,1,77,58,0
True,39206640,9499.995,1203.1134,7887.6733,0.83934593,0.60711336,13.841762,0.2911489,0.037187163,2.8327892,0.021576872,0.16909397,0.008235169,2.107868,-0.021482712,-0.0003402605,0.32264712,0.3407418,0.66680807,0.6868843,21.479856,22.174696,20.163652,16.848194,47.298832,47.632298,46.991337,43.832504,0,0,0,0,0,0,0,0,0,0,0,0,-1.1230632,-1.2327542,-0.17407653,-0.19586241,21.509195,22.208935,20.164404,16.849333,-0.009222761,-0.008174971,0.010695081,0.0118582845,85,4,132,2,10,160.12933,161.8844,-1275.2417,2.8479543,568218.5,690.2166,117.52913,117.34352,122.08669,122.08669,11.226466,1,-51.477314,0,0,0.5512687,0.55126876,0,8,255,0,0,0,1,0,57,0
True,39206750,9499.995,1203.1134,8826.438,-0.16043854,-0.41796973,12.847548,0.2052306,-0.032291904,4.0849514,-0.0121547505,0.13849792,1.2896955E-05,2.1231909,-0.020699788,-0.00042777508,0.2933669,0.33850044,0.60154355,0.6268435,21.763224,19.809528,21.29769,18.946907,52.101364,48.71886,54.96053,49.22279,0,0,0,0,0,0,0,0,0,0,0,0,-0.91882676,-0.90269905,-0.026522106,-0.03253246,21.782612,19.830086,21.297707,18.946936,-0.01091826,-0.00830476,0.006913699,0.008379564,85,4,132,2,10,160.41188,161.89107,-1275.4423,4.0902305,583097.9,632.21484,125.00305,125.014084,130.36337,130.36337,13.157826,1,-51.254402,0,0,0.6510056,0.6510057,0,8,255,0,0,0,1,0,56,0
True,39206859,9499.995,1203.1134,9105.864,-0.17243958,-0.3874881,13.044198,0.11958718,-0.063761555,5.5967646,-0.0069537526,0.11646506,0.0059213703,2.1373594,-0.02060986,0.00011116637,0.2810491,0.32283768,0.58719593,0.61297125,19.146511,18.312042,18.037645,21.29439,51.8395,50.119907,52.188114,56.260998,0,0,0,0,0,0,0,0,0,0,0,0,-0.48747596,-0.4552342,0.05865605,0.056179266,19.152716,18.3177,18.03774,21.294464,-0.0116315335,-0.0092117265,0.006082408,0.0075758137,85,4,132,2,10,160.8717,161.89767,-1275.7523,5.5984044,540723.7,568.1251,133.05817,133.15868,139.8476,139.8476,9.945296,1,-50.89684,0,0,0.7646151,0.7646153,0,8,255,0,0,0,1,0,55,0
True,39206968,9499.995,1203.1134,9197.729,-0.070365906,-0.10934497,13.70219,0.037124634,-0.07096784,7.1545606,0.0105116535,0.10159361,0.008478745,2.149857,-0.021192616,0.00035747886,0.26268935,0.29631144,0.6254049,0.65272546,15.587682,15.369438,13.229426,15.227283,54.511177,53.02733,53.159863,54.238247,0,0,0,0,0,0,0,0,0,0,0,0,-0.26486894,-0.22480406,0.12274886,0.11506359,15.589932,15.371082,13.229996,15.227717,-0.012694672,-0.010747753,0.00829621,0.009879146,85,4,132,2,10,161.47585,161.9056,-1276.1527,7.1550093,546204.94,568.2032,140.53171,140.72015,148.79141,148.79141,10.789382,1,-50.42929,0,0,0.8779092,0.87790936,0,8,255,0,0,0,1,0,54,0
True,39207078,9499.995,1203.1134,9216.029,-0.012028694,-0.027539127,13.660669,-0.03161645,-0.08469884,8.499655,-0.0046956525,0.0915371,0.0010557878,2.159447,-0.021684038,0.000854388,0.28446046,0.30657467,0.6506431,0.65654933,11.602623,11.888871,9.247628,11.210555,54.691223,54.422283,52.59367,54.376553,0,0,0,0,0,0,0,0,0,0,0,0,-0.13093875,-0.08906885,0.15475439,0.14979039,11.603362,11.889205,9.248923,11.2115555,-0.011433996,-0.01015345,0.009758495,0.010100696,85,4,132,2,10,162.12881,161.91362,-1276.5846,8.500135,545900.56,566.4266,146.78961,147.07834,155.85889,155.85889,10.872167,1,-49.92422,0,0,0.9780216,0.97802174,0,8,255,0,0,0,1,0,52,0
True,39207203,9499.995,1203.1134,8962.397,0.10439491,-0.23446114,13.257666,-0.101454735,-0.11412723,10.087813,-0.011762483,0.077264525,0.0067473785,2.1694295,-0.021273665,0.0014466778,0.28814623,0.31557906,0.61592615,0.6185859,7.0898385,6.7134404,7.4131484,7.6217766,51.242367,49.650093,53.218945,53.26721,0,0,0,0,0,0,0,0,0,0,0,0,-0.033633254,0.010240987,0.17500672,0.17340046,7.0899186,6.713448,7.415214,7.623749,-0.011220567,-0.009632044,0.007747017,0.007901121,85,4,132,2,10,163.05777,161.9257,-1277.2023,10.088969,514434.47,548.9728,153.65189,153.99817,163.85677,163.85677,6.8150187,1,-49.204662,0,0,1.0977564,1.0977566,0,8,255,0,0,0,1,0,51,0
True,39207296,9499.995,1203.1134,8801.71,0.22508717,-0.24660698,13.562138,-0.14393663,-0.12297541,11.560625,0.0075930264,0.06555896,0.01073676,2.1771436,-0.020910196,0.0018832715,0.2688543,0.30064714,0.62672997,0.6307621,5.101761,4.7557287,5.327083,4.8508534,51.015923,49.39369,53.116096,50.835754,0,0,0,0,0,0,0,0,0,0,0,0,0.013572867,0.057038542,0.17330594,0.17101954,5.101779,4.7560706,5.3299017,4.853867,-0.012337685,-0.010496691,0.008372985,0.0086066015,85,4,132,2,10,164.01161,161.93845,-1277.8427,11.562176,502590.25,546.2254,159.26398,159.49815,170.60243,170.60243,5.2409925,1,-48.46385,0,0,1.2035208,1.203521,0,8,255,0,0,0,1,0,49,0
True,39207421,9499.995,1203.1134,8820.604,0.52759933,-0.040278472,14.598309,-0.16811705,-0.13178772,13.309174,0.009024434,0.054208707,0.0031255411,2.1844633,-0.021266328,0.0022990166,0.27673978,0.2750854,0.65456104,0.65716255,3.6127324,5.3911867,2.2891104,3.1042216,52.515457,59.33764,47.74304,51.139122,0,0,0,0,0,0,0,0,0,0,0,0,-0.12771475,-0.08210822,0.15523393,0.14897676,3.614989,5.391812,2.2943678,3.1077943,-0.011881068,-0.011976868,0.009985499,0.010136228,85,4,132,2,10,165.25258,161.95453,-1278.6871,13.310888,0,0,165.26656,165.38779,177.52892,177.52892,13.135818,1,-47.49644,0,0,1.3242302,1.3242306,0,8,255,0,0,0,1,-3,46,0
True,39207531,9499.995,1203.1134,7898.6016,-0.6016512,-0.16283844,14.321252,-0.24422455,-0.16036335,14.748908,-0.009180933,-0.0694476,-0.010418426,2.185636,-0.021471836,0.0017660576,0.28910106,0.28825676,0.631376,0.6513614,1.1226506,0.8805777,1.0858252,0.67731667,46.794857,46.099857,45.19843,46.773205,0,0,0,0,0,0,0,0,0,0,0,0,-0.6327246,-0.5462335,0.09265653,0.084383555,1.2886757,1.0362375,1.0897714,0.6825529,-0.011165276,-0.011214167,0.008642174,0.009800114,85,4,132,2,10,166.41782,161.96936,-1279.4866,14.751801,186543.83,225.216,166.3365,169.03319,175.69048,175.69048,13.095,1,-46.58623,0,0,1.4248304,1.4248309,0,8,255,0,0,0,1,-53,43,0
True,39207640,9499.995,1203.1134,8295.95,0.5048361,-0.1413511,13.932251,-0.048111916,-0.17884785,16.202877,0.00011427095,-0.06909133,-0.0047961464,2.1755793,-0.021817688,0.0017330989,0.30430937,0.27180168,0.64602387,0.65078944,0.37201896,0.48912424,0.41907945,0.5094935,47.890377,48.75656,48.37105,48.661465,0,0,0,0,0,0,0,0,0,0,0,0,0.06486571,0.10998175,-0.019696897,-0.026073502,0.37763166,0.50133675,0.41954207,0.51016027,-0.010284625,-0.012167014,0.009490859,0.009766974,85,4,132,2,10,167.7522,161.98659,-1280.3971,16.203936,499759.75,576.3547,163.43979,165.87753,172.6065,172.6065,12.895173,1,-45.545204,0,0,1.5290546,1.5290551,0,8,255,0,0,0,1,0,40,0
True,39207750,9499.995,1203.1134,8370.134,-0.16265154,-0.17943075,7.767209,0.0073566437,-0.17345294,17.330513,0.052399136,-0.016160527,-0.0107309725,2.1708453,-0.020378245,0.00061487773,0.3562118,0.31573126,0.63541245,0.63162476,-0.038678847,-0.04066338,-0.06695534,-0.06319372,49.084408,49.152504,48.728035,48.830036,0,0,0,0,0,0,0,0,0,0,0,0,-0.010563475,0.03230388,-0.009450247,-0.016084194,0.04009539,0.051933143,0.06761897,0.065208495,-0.007279165,-0.0096232295,0.008876041,0.008656584,85,4,132,2,10,169.5189,162.00993,-1281.6093,17.331383,-191255.06,-217.9524,159.88847,162.16931,168.65822,168.65822,-0.11936855,1,-44.164753,0,0,1.6553015,1.655302,0,8,255,0,0,0,1,0,36,0
True,39207875,9499.995,1203.1134,7701.4375,-0.054507956,0.2076702,0.47850248,0.006955147,-0.051379204,17.22174,0.025227487,-0.003048733,-0.008081864,2.169925,-0.014514858,-0.00049146445,0.51600295,0.4883392,0.55377066,0.54485476,0.00020236748,0.00030927616,0.00020408176,0.0003136893,49.064495,49.079494,48.890144,48.905407,0,0,0,0,0,0,0,0,0,0,0,0,-0.019583747,0.02035792,-0.0016893387,-0.0060591633,0.019584792,0.020360269,0.0017016212,0.006067278,0.0019736923,0.00037179515,0.0041457713,0.003629189,85,4,132,2,10,171.1986,162.03137,-1282.7583,17.221817,-160245,-198.29567,156.70468,158.83067,165.04672,165.04672,-9.229661,1,-42.853405,0,0,1.77329,1.7732905,0,8,255,0,0,0,2,0,32,0
True,39207968,9499.995,1203.1134,6658.5723,-0.006816864,0.21193543,5.0333295,0.0044059753,-0.035757206,17.70407,-0.045300964,-0.00093347137,-0.005278865,2.1697636,-0.014910651,-0.001152227,0.5203197,0.5025817,0.5334483,0.52463406,0.4016948,0.4064298,0.6640377,0.6580339,52.925983,52.962364,54.498417,54.471817,0,0,0,0,0,0,0,0,0,0,0,0,-0.02146345,0.020654848,-6.441778E-05,-0.0030262764,0.4022678,0.4069543,0.6640377,0.6580408,0.0022236593,0.0011965223,0.0029683039,0.002457615,85,4,132,2,10,172.6622,162.05342,-1283.7582,17.704105,80199.516,114.22136,154.14334,156.14134,162.15567,162.15567,-6.988452,1,-41.711147,0,0,1.8756343,1.8756348,0,8,255,0,0,0,2,0,28,0
True,39208078,9499.995,1203.1134,5481.096,0.0477705,-0.23529606,11.594805,0.0031614304,-0.16722885,19.287676,-0.0066401884,0.0002892608,-0.0038774163,2.1698065,-0.020173028,-0.0017966739,0.38676366,0.37410834,0.63980573,0.63750255,0.32217193,0.33818433,0.32135946,0.3166841,56.89685,56.98254,56.87043,56.84749,0,0,0,0,0,0,0,0,0,0,0,0,-0.023781473,0.022024725,0.003169467,-0.0040937345,0.32304847,0.33890074,0.32137507,0.31671056,-0.005510032,-0.006242849,0.009130586,0.008997139,85,4,132,2,10,174.47763,162.08,-1284.998,19.2884,366447.44,639.37115,151.73096,153.60109,159.73941,159.73941,3.5721025,1,-40.29444,0,0,1.9939636,1.993964,0,8,255,0,0,0,2,0,24,0
True,39208187,9499.995,1203.1134,5820.8276,-0.017983913,-0.3609732,11.310829,0.0026578903,-0.17976597,20.420795,0.019007487,7.520274E-05,-0.0016366374,2.169802,-0.018869232,-0.002099526,0.34704763,0.33306748,0.64692074,0.64504135,0.32311606,0.3101032,0.37434417,0.3775863,60.226402,60.14403,60.507736,60.52621,0,0,0,0,0,0,0,0,0,0,0,0,-0.023396155,0.021301657,0.0031748882,-0.004586017,0.32396197,0.310834,0.37435764,0.37761414,-0.0078098252,-0.008619361,0.009542823,0.009433933,85,4,132,2,10,176.11736,162.10153,-1286.1177,20.421585,408240.12,670.73645,149.62767,151.39032,157.37674,157.37674,7.0059175,1,-39.014946,0,0,2.0939214,2.0939217,0,8,255,0,0,0,2,0,20,0
True,39208296,9499.995,1203.1134,6168.8765,0.033773422,-0.26823384,11.680937,0.0020523071,-0.18944678,21.618185,-0.006602966,0.0022347053,0.0014032533,2.1699193,-0.018039556,-0.002136818,0.34078518,0.3380043,0.6405068,0.6308309,0.31510204,0.28688684,0.38390836,0.39590982,63.74956,63.570415,64.17202,64.21582,0,0,0,0,0,0,0,0,0,0,0,0,-0.024136988,0.018713411,0.0035950704,-0.002964852,0.31602514,0.28749654,0.38392517,0.39592093,-0.00817246,-0.008333489,0.009171203,0.008610588,85,4,132,2,10,177.87987,162.12177,-1287.3213,21.619017,444808.34,689.5196,147.63034,149.28265,155.14706,155.14706,8.311721,1,-37.639614,0,0,2.1954057,2.195406,0,8,255,0,0,0,2,0,16,0
True,39208421,9499.995,1203.1134,6572.4116,0.07329512,0.21764103,12.151775,4.1007996E-05,-0.21881942,23.050842,-0.03211291,0.0032883189,0.005746967,2.170267,-0.020727385,-0.0016295386,0.32472044,0.33526805,0.64713055,0.63564223,0.31598613,0.3040422,0.36067814,0.36892343,68.0244,67.9373,68.30265,68.336044,0,0,0,0,0,0,0,0,0,0,0,0,-0.024188256,0.018230783,0.0039812834,-0.0024408079,0.31691056,0.3045883,0.3607001,0.3689315,-0.009102702,-0.008491933,0.009554978,0.008889355,85,4,132,2,10,180.04169,162.1482,-1288.7981,23.051882,487175.25,708.75146,145.48349,147.01651,152.75777,152.75777,9.265874,1,-35.952534,0,0,2.3125613,2.3125618,0,8,255,0,0,0,2,0,11,0
True,39208515,9499.995,1203.1134,6924.3765,0.08066368,0.29949322,12.221585,0.000538826,-0.24465337,24.284212,-0.014004827,0.0028163944,0.00727871,2.1705816,-0.023309119,-0.0010206348,0.28467456,0.2886487,0.6442693,0.6409186,0.34966585,0.3346482,0.35117516,0.3601806,71.87146,71.751495,71.864525,71.912186,0,0,0,0,0,0,0,0,0,0,0,0,-0.024663929,0.018401824,0.003475017,-0.0033916945,0.35053462,0.33515376,0.35119236,0.36019656,-0.0114215985,-0.011191472,0.009389199,0.009195063,85,4,132,2,10,182.00696,162.17766,-1290.1416,24.285444,508209.88,701.7179,143.77165,145.2127,150.84956,150.84956,9.999415,1,-34.418465,0,0,2.4130738,2.4130738,0,8,255,0,0,0,2,0,6,0
True,39208625,9499.995,1203.1134,7305.223,-1.5275826,-0.14921868,11.882823,-0.10116291,-0.24601544,25.525547,0.023539774,-0.081476085,-0.011299056,2.1672184,-0.022487657,-0.0011656464,0.26525742,0.2751245,0.6044348,0.60735965,0.46278214,0.3376728,0.42886558,0.35712793,76.08961,75.593575,75.85789,75.75085,0,0,0,0,0,0,0,0,0,0,0,0,-0.34031284,-0.28135046,0.0009825272,-0.004944374,0.574439,0.4395236,0.4288667,0.35716218,-0.012545966,-0.011974603,0.0070812143,0.0072506815,85,4,132,2,10,184.16322,162.21194,-1291.6067,25.526932,532198.94,696.57434,142.14636,143.47507,148.99841,148.99841,10.766332,1,-32.738182,0,0,2.517678,2.5176785,0,8,255,0,0,0,2,-127,1,0
True,39208734,9499.995,1203.1134,7657.7236,-1.7876987,-0.5284991,11.446955,0.022889137,-0.26232213,26.793915,0.013809884,-0.13634019,0.0063232337,2.151434,-0.02084098,-0.0013877855,0.26751965,0.30509502,0.57462245,0.58995754,0.4078718,0.35125902,0.41458368,0.35422125,79.37223,79.574875,79.36246,79.58795,0,0,0,0,0,0,0,0,0,0,0,0,0.0401078,0.08347425,-0.06584924,-0.06942102,0.40983906,0.36104137,0.4197806,0.3609598,-0.0124149695,-0.010239132,0.005353909,0.006242413,85,4,132,2,10,186.54439,162.24664,-1293.1843,26.795208,521798.16,651.33594,140.62085,141.81952,147.22987,147.22987,11.550374,1,-30.895473,0,0,2.6268225,2.6268232,0,8,255,0,0,0,2,0,252,0
True,39208843,9499.995,1203.1134,8013.6436,-1.6352043,-0.5982504,11.435318,0.10881901,-0.24803972,28.056686,0.023658123,-0.052960124,0.0033933707,2.141847,-0.017766517,-0.0009723428,0.3061533,0.343336,0.5808035,0.60377127,0.32245708,0.29997668,0.43077162,0.3861453,82.61399,82.69225,83.445816,83.377174,0,0,0,0,0,0,0,0,0,0,0,0,-0.032643724,0.011191457,-0.055604912,-0.05907072,0.3241052,0.30018538,0.4343456,0.39063734,-0.010177851,-0.008024752,0.005712036,0.007042773,85,4,132,2,10,189.07112,162.27658,-1294.833,28.057995,556566.9,663.9613,139.12431,140.22314,145.56436,145.56436,12.258008,1,-28.948313,0,0,2.7367692,2.73677,0,8,255,0,0,0,2,0,248,0
True,39208968,9499.995,1203.1134,8391.317,-1.1753979,0.11597471,11.888743,0.058956146,-0.26956233,29.51959,-0.03167685,-0.014637709,0.001089232,2.1380334,-0.018735746,-0.00082502334,0.3532607,0.3807656,0.62545687,0.6557476,0.2804404,0.26394185,0.35302135,0.33502313,86.748,86.678474,87.298615,87.23124,0,0,0,0,0,0,0,0,0,0,0,0,-0.033119116,0.009448393,-0.020492375,-0.026796496,0.28238925,0.26411092,0.35361564,0.33609307,-0.0074500516,-0.005857356,0.00829922,0.010054246,85,4,132,2,10,192.07416,162.30782,-1296.7653,29.52088,587530.3,669.20734,137.54353,138.54831,143.82452,143.82452,13.056361,1,-26.64279,0,0,2.860765,2.860766,0,8,255,0,0,0,2,0,243,0
True,39209078,9499.995,1203.1134,8713.743,-0.6973877,0.40575105,11.410622,0.020412445,-0.29361665,30.687708,-0.0031455592,-0.0018344794,0.009878352,2.1372914,-0.021370875,-0.0002172291,0.32716063,0.35457042,0.65369123,0.6617505,0.346408,0.29195842,0.3109234,0.31544542,90.74028,90.27319,90.38111,90.419586,0,0,0,0,0,0,0,0,0,0,0,0,-0.029333314,0.015481721,-0.0037061048,-0.011678783,0.34764776,0.29236862,0.31094548,0.31566152,-0.008961402,-0.007374212,0.0099351,0.01040205,85,4,132,2,10,194.67368,162.3417,-1298.424,30.68912,589579.44,646.7173,136.32846,137.26056,142.48102,142.48102,13.69934,1,-24.651445,0,0,2.963127,2.9631279,0,8,255,0,0,0,2,0,240,0
True,39209187,9499.995,1203.1134,8214.097,-0.18894553,-0.8205433,2.431351,-0.0012197495,-0.19612542,30.904312,0.09483112,0.0017678225,0.006740313,2.137401,-0.015204489,0.0010164129,0.411413,0.4127805,0.5769298,0.5807374,0.00032891237,0.0003335078,0.00018291092,0.0001929657,88.0088,88.000275,87.69586,87.68743,0,0,0,0,0,0,0,0,0,0,0,0,-0.023129718,0.020533508,0.0030124881,-0.0029101192,0.023132058,0.020536216,0.003018036,0.00291651,-0.004082687,-0.0040035024,0.0054875948,0.0057082064,85,4,132,2,10,197.3946,162.37689,-1300.1556,30.904932,-183907.45,-213.39807,135.11542,135.97702,141.10599,141.10599,-4.4746666,1,-22.568506,0,0,3.0674028,3.0674038,0,8,255,0,0,0,2,0,236,0
True,39209281,9499.995,1203.1134,7602.2197,-2.9797902,-0.2566169,-0.11267805,-0.17000389,-0.07959211,30.84243,-0.016439743,-0.13350035,-0.024193212,2.1319675,-0.010694694,-0.00015957608,0.5837259,0.6163531,0.55839133,0.57411534,0.0025299443,-0.0010220266,0.0036319597,-0.0010443759,87.61627,88.22907,87.35214,87.95204,0,0,0,0,0,0,0,0,0,0,0,0,-0.3009267,-0.2437083,0.0018223426,-0.0026546584,0.30093732,0.24371044,0.004063504,0.002852706,0.005895257,0.007784564,0.0044134893,0.0053245276,85,4,132,2,10,200.08942,162.40292,-1301.8535,30.843002,-155320.36,-194.75433,134.0097,134.80025,139.75217,139.75217,-9.6713915,1,-20.511114,0,0,3.170569,3.17057,0,8,255,0,0,0,3,-127,232,0
True,39209406,9499.995,1203.1134,5926.1006,-3.997867,0.4517082,6.1347103,0.11403465,-0.10101763,31.47584,-0.05997373,-0.23928212,-0.0063083973,2.103732,-0.014026231,-0.0030310657,0.64707386,0.62941325,0.6168702,0.6528422,0.36155596,0.3531359,0.5630221,0.44350615,92.96467,93.99591,94.93195,94.86393,0,0,0,0,0,0,0,0,0,0,0,0,0.049504265,0.09218439,-0.11541204,-0.1197848,0.3649293,0.3649698,0.5747293,0.45939755,0.00956348,0.008540824,0.0078017153,0.009885911,85,4,132,2,10,203.2512,162.43887,-1303.7651,31.476208,183123.55,292.0635,132.91891,133.63554,138.39209,138.39209,-4.0429697,1,-18.122728,0,0,3.2897663,3.2897673,0,8,255,0,0,0,3,0,230,0
True,39209515,9499.995,1203.1134,5637.051,-3.752144,0.82183456,7.6400576,0.21698093,-0.14606124,32.352524,-0.013480969,-0.07266372,-0.0028962991,2.088243,-0.018280862,-0.0043057664,0.5886514,0.6363109,0.6878441,0.6931611,0.19122061,0.14617237,0.23278968,0.19057836,93.99216,93.9517,94.21339,94.197,0,0,0,0,0,0,0,0,0,0,0,0,-0.05381949,-0.0080116,-0.08022508,-0.08749982,0.19865009,0.14639176,0.24622571,0.20970534,0.0061804727,0.0089402385,0.011913896,0.0122219585,85,4,132,2,10,206.1944,162.48032,-1305.4907,32.35358,392191.16,664.8441,131.9551,132.61185,137.34888,137.34888,4.909238,1,-15.916591,0,0,3.3965104,3.3965116,0,8,255,0,0,0,3,0,228,0
True,39209625,9499.995,1203.1134,5803.6074,-2.3508708,0.14918461,7.9562144,0.10962105,-0.15248555,33.2025,0.004829922,-0.017848827,0.012759572,2.0840578,-0.018808722,-0.0033807107,0.5122546,0.59502083,0.6690504,0.6900724,0.20686236,0.2010134,0.2543211,0.23454703,96.74589,96.77422,97.01492,96.95144,0,0,0,0,0,0,0,0,0,0,0,0,-0.047267567,-0.0018152416,-0.03206775,-0.041796636,0.21219392,0.2010216,0.25633487,0.23824205,0.001756642,0.0065492988,0.010825001,0.012043003,85,4,132,2,10,209.24475,162.53044,-1307.2362,33.203033,425512.66,700.6192,131.04153,131.641,136.3345,136.3345,7.443475,1,-11.727229,0,0,3.5037217,3.5037231,0,8,255,0,0,0,3,0,228,0
True,39209734,9499.995,1203.1134,5991.8735,-0.9057815,-0.57776594,8.276624,0.033439636,-0.20293956,34.225956,0.006399914,-0.00025902857,0.018579409,2.0831876,-0.017859403,-0.0014361195,0.4100372,0.47904092,0.6305347,0.66834444,0.22296794,0.20224014,0.26454118,0.26267853,99.92217,99.73151,100.177986,100.14848,0,0,0,0,0,0,0,0,0,0,0,0,-0.033099826,0.010915292,-0.0068570296,-0.015671425,0.2254114,0.20253448,0.26463005,0.2631456,-0.0041623563,-0.00016662851,0.008593429,0.010784097,85,4,132,2,10,212.88196,162.58508,-1309.2927,34.226574,447410.7,713.4762,130.07191,130.61357,135.26003,135.26003,8.282796,1,-9.025024,0,0,3.6276393,3.6276405,0,8,255,0,0,0,3,0,228,0
True,39209843,9499.995,1203.1134,6138.155,-0.27120614,-0.37038314,8.456802,0.0009536743,-0.24469699,35.100365,-0.0066239606,0.002432913,0.013317033,2.0833936,-0.017866308,0.00018655087,0.3685129,0.42091572,0.6025377,0.63907593,0.19162212,0.20154987,0.25366214,0.2504758,102.190186,102.27905,102.62821,102.6165,0,0,0,0,0,0,0,0,0,0,0,0,-0.023717113,0.0187633,0.001902042,-0.004901482,0.19308428,0.20242137,0.25366926,0.25052375,-0.00656686,-0.0035324246,0.0069712996,0.0090883,85,4,132,2,10,216.00807,162.62523,-1311.0533,35.10122,462067.03,719.2701,129.32545,129.8221,134.43701,134.43701,8.65495,1,-6.7047744,0,0,3.731121,3.7311223,0,8,255,0,0,0,3,0,228,0
True,39209968,9499.995,1203.1134,6286.174,-0.03968358,0.23349637,8.427925,-0.005619049,-0.2651427,35.988846,-0.021516258,4.1891326E-05,-0.0018412401,2.083523,-0.019390518,0.0008149326,0.42234302,0.42277443,0.5988654,0.6257252,0.17395121,0.19470176,0.23973213,0.23471214,104.621185,104.82796,105.105385,105.06558,0,0,0,0,0,0,0,0,0,0,0,0,-0.019338561,0.023014423,0.0042477576,-0.0018535916,0.17502286,0.19605723,0.23976977,0.23471946,-0.0034497753,-0.0034247935,0.0067585297,0.00831477,85,4,132,2,10,219.25194,162.6673,-1312.8787,35.989822,476252.16,723.90985,128.61981,129.07744,133.66187,133.66187,8.969949,1,-4.2976384,0,0,3.8358126,3.835814,0,8,255,0,0,0,3,0,228,0
True,39210062,9499.995,1203.1134,6431.8335,-0.25353718,0.07569283,9.138071,0.0017080307,-0.28540182,36.76596,0.015857477,-0.0021019,-0.015845105,2.0834224,-0.020299178,-9.60296E-05,0.46048877,0.42898005,0.65312254,0.6568628,0.2174156,0.2579621,0.24453357,0.235973,107.28076,107.698074,107.3873,107.33473,0,0,0,0,0,0,0,0,0,0,0,0,-0.020651078,0.025636332,0.0049925223,-0.0038815194,0.21839416,0.25923285,0.24458453,0.23600492,-0.0012409091,-0.003065452,0.009902153,0.010118861,85,4,132,2,10,222.19125,162.70961,-1314.533,36.76707,489797.9,727.63617,128.03537,128.46269,133.02261,133.02261,9.2525015,1,-2.116361,0,0,3.9285054,3.9285069,0,8,255,0,0,0,3,0,228,0
True,39210171,9499.995,1203.1134,6618.9946,0.06983781,-0.97099066,8.082914,0.015226364,-0.2681381,37.71022,0.026582446,-0.0005594399,-0.012849329,2.0832164,-0.016319605,-0.0020364684,0.5062753,0.50072247,0.6648828,0.66384166,0.22383922,0.21939848,0.29889187,0.30150068,110.0902,110.05082,110.72764,110.75812,0,0,0,0,0,0,0,0,0,0,0,0,-0.024555614,0.021019103,0.002519617,-0.006669759,0.2251821,0.22040303,0.29890248,0.30157444,0.0014104024,0.0010888614,0.010583531,0.010523211,85,4,132,2,10,225.83476,162.7553,-1316.5841,37.711178,506394.53,730.9703,127.385574,127.78035,132.31161,132.31161,9.629111,1,0.5882941,0,0,4.040768,4.040769,0,8,255,0,0,0,3,0,229,0
True,39210281,9499.995,1203.1134,6742.0557,-0.021506548,0.4723015,8.733467,0.013841629,-0.20398226,38.66618,-0.019534303,-0.0002325782,0.011793004,2.0832694,-0.016209723,-0.0023223313,0.66423273,0.6833557,0.69758207,0.7065267,0.16655311,0.14806484,0.2215886,0.226978,112.29321,112.12297,112.738754,112.77894,0,0,0,0,0,0,0,0,0,0,0,0,-0.026216434,0.017839162,0.001672126,-0.009109234,0.1686038,0.1491356,0.22159491,0.22716072,0.010557078,0.011664413,0.012478106,0.012996353,85,4,132,2,10,229.43127,162.79411,-1318.6094,38.66672,516970.03,732.52356,126.80963,127.17146,131.68866,131.68866,9.928979,1,3.2575178,0,0,4.1488204,4.148822,0,8,255,0,0,0,3,0,229,0
True,39210406,9499.995,1203.1134,6940.517,-0.13771844,1.0889717,8.405112,-0.00042152405,-0.111853555,39.71723,-0.00039008446,-0.0002549946,0.0012165747,2.0832973,-0.018810568,-0.0012794036,0.6438353,0.6475231,0.7031462,0.7134828,0.18577178,0.19927035,0.24559902,0.24085133,115.57353,115.676254,116.02084,116.027985,0,0,0,0,0,0,0,0,0,0,0,0,-0.022096798,0.02238506,0.0059449174,-0.0062565734,0.18708132,0.20052373,0.24567096,0.24093258,0.009375945,0.009589493,0.012800489,0.013399385,85,4,132,2,10,233.6918,162.86435,-1321.0071,39.71739,531239.56,731.33563,126.19217,126.51602,131.01956,131.01956,10.284814,1,6.419313,0,0,4.273525,4.273526,0,8,255,0,0,0,3,0,229,0
True,39210515,9499.995,1203.1134,7146.0684,0.023736,-0.75079066,8.33172,0.0014419556,-0.21047427,40.71999,0.013321007,-0.00032701163,-0.002569301,2.083272,-0.018812628,-0.0014961701,0.5035585,0.49557233,0.66214645,0.6615278,0.25314933,0.25855502,0.27895865,0.27867016,119.22476,119.27755,119.37106,119.35977,0,0,0,0,0,0,0,0,0,0,0,0,-0.022790229,0.022882044,0.004939413,-0.005227692,0.25417313,0.2595656,0.27900237,0.2787192,0.0012530871,0.000790637,0.01042499,0.010389149,85,4,132,2,10,237.93666,162.93846,-1323.3955,40.72053,544517.7,728.0528,125.64925,125.94197,130.43405,130.43405,10.696078,1,9.56938,0,0,4.3946123,4.3946137,0,8,255,0,0,0,3,0,230,0
True,39210625,9499.995,1203.1134,7280.215,0.049255133,-0.63184243,8.598818,0.0014514923,-0.28501767,41.61269,-0.02559666,0.0013073559,0.005513574,2.0832956,-0.01867023,-0.0014105856,0.43426013,0.44439226,0.6435726,0.63553476,0.1964521,0.17921072,0.2547752,0.26563343,121.23548,121.03771,121.73609,121.80918,0,0,0,0,0,0,0,0,0,0,0,0,-0.022348993,0.019499615,0.003550204,-0.0041757645,0.19771925,0.18026847,0.25479993,0.26566625,-0.0027597025,-0.0021729916,0.009348836,0.008883126,85,4,132,2,10,241.67198,162.99097,-1325.4972,41.613663,552710.4,725.2251,125.22864,125.4951,129.9819,129.9819,11.018216,1,12.340603,0,0,4.498715,4.498716,0,8,255,0,0,0,3,0,230,0
True,39210750,9499.995,1203.1134,7441.2827,0.09005332,1.0653205,8.483022,-0.0074596405,-0.30315167,42.66895,-0.024141818,0.0013768062,0.012716973,2.0835094,-0.02258986,-1.6313046E-05,0.44471523,0.47836486,0.66060406,0.6663122,0.16701746,0.17109968,0.22070856,0.22081478,123.95251,124.00056,124.39216,124.39059,0,0,0,0,0,0,0,0,0,0,0,0,-0.02098893,0.021202907,0.005120208,-0.003817745,0.16833113,0.17240842,0.22076795,0.22084777,-0.0021542907,-0.00020577759,0.010335624,0.010666352,85,4,132,2,10,246.26367,163.06215,-1328.0809,42.67003,560677.5,719.89764,124.758026,124.993996,129.48233,129.48233,11.338836,1,15.747995,0,0,4.6236997,4.6237006,0,8,255,0,0,0,3,0,230,0
True,39210859,9499.995,1203.1134,7626.627,-0.03194189,0.015058432,7.9775724,-0.006624222,-0.31057245,43.533215,0.043540493,-0.0010657595,-0.0023586452,2.0835173,-0.022873035,0.00063901575,0.42954257,0.42506266,0.65627044,0.6631915,0.24980205,0.2964325,0.25126678,0.24656463,127.39082,127.95652,127.22207,127.18289,0,0,0,0,0,0,0,0,0,0,0,0,-0.021312233,0.02576659,0.006005536,-0.0036647932,0.25070956,0.29755023,0.25133854,0.24659187,-0.003032878,-0.0032922924,0.01008454,0.010485541,85,4,132,2,10,250.33298,163.13812,-1330.3707,43.53432,568161.4,711.9447,124.38083,124.59382,129.0833,129.0833,11.670508,1,18.767872,0,0,4.732005,4.7320065,0,8,255,0,0,0,3,0,230,0
True,39210968,9499.995,1203.1134,7784.417,-0.022181034,-1.299316,8.171207,0.0034065247,-0.30442643,44.422768,-0.0051363055,-0.0015078698,-0.00870974,2.0833669,-0.018540664,-0.00023181924,0.40128526,0.37862018,0.6044977,0.59667695,0.18432117,0.18724245,0.29026535,0.29133457,129.23593,129.27493,130.34256,130.325,0,0,0,0,0,0,0,0,0,0,0,0,-0.019771297,0.020768093,0.0026832523,-0.002980537,0.18537854,0.18839069,0.29027775,0.2913498,-0.0046691447,-0.005981587,0.0070848577,0.006631732,85,4,132,2,10,254.51462,163.20149,-1332.7241,44.423817,574571.56,704.9584,124.045166,124.24077,128.72372,128.72372,12.047147,1,21.871056,0,0,4.841123,4.841124,0,8,255,0,0,0,3,0,230,0
True,39211078,9499.995,1203.1134,7878.801,-0.036981344,1.897636,8.363459,0.006515503,-0.33327916,45.32106,-0.04136563,0.00018136746,-0.00050560944,2.083267,-0.024582135,-0.00074315903,0.5318949,0.5361512,0.6691631,0.66391426,0.1970118,0.17216915,0.16023555,0.1643442,132.07266,131.75714,131.29419,131.50409,0,0,0,0,0,0,0,0,0,0,0,0,-0.024090312,0.021120865,0.0036363082,-0.0054827835,0.1984792,0.17345981,0.16027682,0.16443564,0.0028939322,0.0031403936,0.010831531,0.010527417,85,4,132,2,10,258.70444,163.26846,-1335.0823,45.322285,577959.44,700.84766,123.74031,123.91719,128.41147,128.41147,12.273961,1,24.980679,0,0,4.9482317,4.948233,0,8,255,0,0,0,3,0,231,0
True,39211187,9499.995,1203.1134,8119.287,-0.043921947,-1.144909,7.269967,-0.0009365082,-0.275015,46.08452,0.039566375,0.0015247277,0.008701229,2.083362,-0.020515317,-1.680199E-05,0.42628396,0.450453,0.6503789,0.6544742,0.24658139,0.24401197,0.3368427,0.3636915,134.85283,134.81071,135.82344,136.0424,0,0,0,0,0,0,0,0,0,0,0,0,-0.02335897,0.02119179,0.004387275,-0.0051681823,0.24768533,0.24493046,0.33687124,0.36372823,-0.0032215714,-0.0018220395,0.009743188,0.009980466,85,4,132,2,10,262.92065,163.35086,-1337.455,46.085342,583427.75,686.45776,123.45685,123.61243,128.11632,128.11632,12.631064,1,28.109688,0,0,5.0540724,5.0540733,0,8,255,0,0,0,3,0,231,0
True,39211296,9499.995,1203.1134,8227.684,0.023388147,-0.95583934,8.047451,-0.01052475,-0.32678375,47.093735,0.0012138842,0.0019604296,0.009763904,2.0835917,-0.018600225,0.0011876596,0.39758298,0.42647168,0.6077152,0.6209033,0.1985396,0.20467666,0.24069811,0.23799744,137.17157,137.26112,137.59776,137.34657,0,0,0,0,0,0,0,0,0,0,0,0,-0.020864997,0.022442898,0.0046759127,-0.0019478259,0.19963296,0.20590343,0.24074352,0.23800541,-0.0048835278,-0.003210701,0.0072712786,0.008035392,85,4,132,2,10,267.93262,163.42357,-1340.2753,47.09487,587196.25,681.7512,123.17175,123.30581,127.823814,127.823814,12.97436,1,31.82897,0,0,5.1774774,5.1774783,0,8,255,0,0,0,3,0,231,0
True,39211406,9499.995,1203.1134,8371.172,0.0685513,-0.87933034,7.680004,-0.009531021,-0.34643066,47.886818,0.01841387,-0.0012702065,-0.014208919,2.083664,-0.017214848,0.0011768267,0.40148288,0.380622,0.6094766,0.62739044,0.18805356,0.24027477,0.25053287,0.23937769,139.33826,140.04242,139.87303,139.7899,0,0,0,0,0,0,0,0,0,0,0,0,-0.018310916,0.025915593,0.0057657305,-0.0012311769,0.18894294,0.24166834,0.2505992,0.23938085,-0.0046577007,-0.0058656707,0.0073733367,0.008411251,85,4,132,2,10,272.2175,163.47728,-1342.6868,47.888073,589478.56,672.71344,122.94734,123.06537,127.589325,127.589325,13.238915,1,35.008686,0,0,5.28099,5.280991,0,8,255,0,0,0,3,0,231,0
True,39211515,9499.995,1203.1134,8532.839,0.10954094,-1.7785975,7.523719,0.010944366,-0.33117837,48.685883,0.03896086,-0.0020323158,-0.014655866,2.0833724,-0.012749917,-0.00094206736,0.37778708,0.33178762,0.6070875,0.5790195,0.21164784,0.18726881,0.2923401,0.2975465,141.89572,141.60416,142.80513,142.86041,0,0,0,0,0,0,0,0,0,0,0,0,-0.021662364,0.0204362,0.0019807913,-0.0035299596,0.21275353,0.18838058,0.2923468,0.29756743,-0.0060298294,-0.008693472,0.0072349124,0.0056086704,85,4,132,2,10,276.72388,163.51884,-1345.2238,48.687008,591139.44,661.83026,122.73609,122.84444,127.37193,127.37193,13.555367,1,38.351242,0,0,5.3880706,5.388071,0,8,255,0,0,0,3,0,232,0
True,39211640,9499.995,1203.1134,8640.761,-0.09555936,0.48924983,7.6517253,0.0068588257,-0.3714905,49.644817,0.0046671242,0.00048485806,0.009206668,2.0832927,-0.014935069,-0.00089225033,0.45484248,0.47442654,0.6587687,0.6609497,0.21505955,0.20211753,0.18050691,0.17813623,144.84033,144.66519,144.0826,144.05515,0,0,0,0,0,0,0,0,0,0,0,0,-0.025219584,0.020806996,0.0028981464,-0.0063450914,0.21653321,0.20318569,0.18053018,0.1782492,-0.0015678629,-0.00043382868,0.010229286,0.010355651,85,4,132,2,10,282.01788,163.55692,-1348.204,49.646206,592166.94,654.6802,122.520966,122.61222,127.15735,127.15735,13.82478,1,42.27995,0,0,5.5115905,5.5115914,0,8,255,0,0,0,3,0,232,0
True,39211750,9499.995,1203.1134,8518.043,-0.07123256,-1.2708275,5.188504,-0.0050735474,-0.32410282,50.180115,0.04103092,0.0021750906,0.017025298,2.0834455,-0.0108637335,0.000498679,0.39975926,0.43987647,0.6205238,0.63045174,-0.013707415,-0.013490693,-0.02346086,-0.02233323,142.72736,142.72333,142.01164,142.00719,0,0,0,0,0,0,0,0,0,0,0,0,-0.022504855,0.020322153,0.0037667642,-0.00399724,0.026350744,0.02439239,0.023761323,0.022688128,-0.0047575086,-0.0024344847,0.008013401,0.0085886195,85,4,132,2,10,286.57523,163.5891,-1350.7686,50.181164,-198561.19,-222.39558,122.3426,122.42052,126.97338,126.97338,3.4502306,1,45.66163,0,0,5.616202,5.6162033,0,8,255,0,0,0,3,0,232,0
True,39211859,9499.995,1203.1134,7947.8857,-4.466248,-0.43549937,-0.26486802,-0.12633514,-0.16073346,50.024345,0.017518777,-0.18077525,-0.028858945,2.0756733,-0.0067685614,-0.00011839694,0.49976853,0.54790944,0.5463364,0.6011931,0.0052361144,-0.00021863623,0.0050891265,-0.0006192583,142.06586,142.8786,141.7374,142.52112,0,0,0,0,0,0,0,0,0,0,0,0,-0.4550011,-0.38187048,-0.016507033,-0.020771166,0.45503122,0.38187054,0.017273718,0.020780396,0.0010336228,0.0038212687,0.0037150346,0.0068933927,85,4,132,2,10,291.2238,163.60855,-1353.3602,50.02476,-171198.64,-205.30176,122.21505,122.27884,126.69539,126.69539,-8.174259,1,49.102585,0,0,5.722457,5.7224584,0,8,255,0,0,0,3,-127,233,0
True,39211953,9499.995,1203.1134,7227.985,-5.2616425,0.85682386,-0.4345982,0.52342415,-0.09117723,49.95278,-0.013608161,-0.20589682,-0.006379271,2.0496612,-0.0076719746,-0.0021680503,0.5796184,0.64683837,0.5688459,0.6193213,0.07064966,0.045593977,0.09621865,0.06816654,143.15417,143.74915,143.01898,143.73587,0,0,0,0,0,0,0,0,0,0,0,0,-0.05965684,-0.01565438,-0.13643765,-0.13714443,0.092467904,0.048206538,0.16695288,0.15315114,0.0056574047,0.009549841,0.0050192215,0.007943731,85,4,132,2,10,295.8626,163.63348,-1355.861,49.955612,-28890.984,-38.00796,122.14131,122.20795,126.45985,126.45985,-9.310348,1,52.50981,0,0,5.8279305,5.8279314,0,8,255,0,0,0,4,0,235,0
True,39212078,9499.995,1203.1134,6488.285,-5.244035,-1.1455294,3.3219795,0.6442299,-0.17824301,50.436775,0.011745216,-0.07004732,-0.004728778,2.0343904,-0.0065449243,-0.0022859818,0.4618938,0.5503033,0.5627437,0.6384884,0.13203888,0.11017265,0.19694522,0.1536925,145.7101,145.74329,146.28708,145.9802,0,0,0,0,0,0,0,0,0,0,0,0,-0.118686855,-0.07443998,-0.13169977,-0.1303567,0.17754108,0.13296361,0.23692246,0.20152979,-0.0011595488,0.0039598867,0.0046656616,0.0090542585,85,4,132,2,10,301.2718,163.6625,-1358.695,50.441204,431313.1,635.2273,121.9768,122.02417,126.29086,126.29086,2.3814878,1,56.456764,0,0,5.9495506,5.9495516,0,8,255,0,0,0,4,0,240,0
True,39212187,9499.995,1203.1134,6472.595,-4.348788,-0.68000704,5.3123446,0.4069214,-0.2603948,51.01745,-0.01665636,-0.0163273,-0.0034476586,2.0302207,-0.006759682,-0.0030138895,0.4438736,0.5087519,0.5598536,0.61990905,0.15257052,0.11911698,0.19357607,0.174509,147.84534,147.46828,148.0845,147.95303,0,0,0,0,0,0,0,0,0,0,0,0,-0.08913387,-0.04545053,-0.07233568,-0.07560072,0.1766992,0.12749355,0.20664981,0.19018114,-0.002203025,0.0015538149,0.0044982135,0.007977784,85,4,132,2,10,305.9715,163.67307,-1361.0911,51.01973,481923.53,711.15625,121.86964,121.90132,126.168976,126.168976,8.039805,1,59.86493,0,0,6.053546,6.0535464,0,8,255,0,0,0,4,0,245,0
True,39212296,9499.995,1203.1134,6554.573,-2.4293897,0.9647238,5.963145,0.12537384,-0.30339748,51.748222,-0.010581079,0.008948069,0.010410618,2.0301225,-0.010200275,-0.0023716486,0.48518753,0.5315919,0.6415348,0.6720014,0.13652222,0.13385563,0.16015412,0.15656976,149.80647,149.7185,149.80473,149.76013,0,0,0,0,0,0,0,0,0,0,0,0,-0.046832196,-0.0035492475,-0.015439452,-0.024614764,0.14433147,0.13390267,0.16089661,0.15849283,0.0001892969,0.002876386,0.009230766,0.01099598,85,4,132,2,10,311.5304,163.69092,-1363.873,51.749264,499934.22,728.59796,121.75943,121.77487,126.05191,126.05191,9.391387,1,63.87909,0,0,6.1745005,6.174501,0,8,255,0,0,0,4,0,253,0
True,39212406,9499.995,1203.1134,6655.6753,-0.77757394,-0.45399407,5.878954,0.012512207,-0.31445998,52.36233,0.014081291,0.010971807,0.0127543695,2.0312672,-0.00921461,-0.0011430725,0.45058966,0.4911504,0.6278364,0.65287495,0.16938508,0.16715129,0.19795202,0.19981727,152.05223,151.98149,152.11806,152.11995,0,0,0,0,0,0,0,0,0,0,0,0,-0.028249219,0.016094169,0.0032123467,-0.0055066133,0.17172456,0.16792431,0.19797808,0.19989313,-0.001814127,0.0005345829,0.00843709,0.009887807,85,4,132,2,10,316.39056,163.71303,-1366.2872,52.363274,509989.16,731.93225,121.66809,121.67366,125.96527,125.96527,9.75118,1,67.38336,0,0,6.278738,6.278739,0,8,255,0,0,0,4,0,3,0
True,39212515,9499.995,1203.1134,6733.496,-0.010285854,-0.9775885,6.1270823,-0.029870987,-0.31947467,52.999283,-0.010249031,0.0074442034,0.0105159,2.032216,-0.007012324,4.325154E-05,0.4529889,0.4848034,0.62597424,0.6440448,0.13286024,0.13255803,0.20579855,0.20907365,153.38312,153.34967,154.09917,154.09958,0,0,0,0,0,0,0,0,0,0,0,0,-0.018111423,0.022960003,0.009496371,0.0014594537,0.13408902,0.13453175,0.20601754,0.20907874,-0.001675196,0.0001670532,0.008329198,0.009376194,85,4,132,2,10,321.31577,163.72316,-1368.7319,53.000248,516934.22,733.2052,121.591354,121.589325,125.893394,125.893394,9.967412,1,70.93385,0,0,6.3831015,6.383102,0,8,255,0,0,0,4,0,10,0
True,39212640,9499.995,1203.1134,6857.353,0.2293477,-1.2710052,5.7652335,-0.023757935,-0.31584647,53.708015,0.068940535,0.0021049525,-0.011166094,2.032678,-0.005128889,0.00022346873,0.46965036,0.44955155,0.6576602,0.6612997,0.18578249,0.21515715,0.25644246,0.25729537,156.08963,156.46912,156.86331,156.9178,0,0,0,0,0,0,0,0,0,0,0,0,0.009581719,0.055449717,0.0105567975,0.00020587353,0.18602942,0.22218747,0.25665966,0.25729546,-0.00071039796,-0.0018742383,0.010165058,0.010375932,85,4,132,2,10,327.1065,163.72984,-1371.6091,53.708942,525732.75,732.60394,121.508545,121.49997,125.82819,125.82819,10.168597,1,75.10502,0,0,6.5042505,6.5042505,0,8,255,0,0,0,4,1,18,0
True,39212734,9499.995,1203.1134,6947.4355,0.23467922,-2.745188,5.9512753,-0.019863129,-0.34713516,54.339413,0.07262136,0.004371925,0.024701048,2.0330951,0.00021317859,0.00028793156,0.32434693,0.38981962,0.5710499,0.56486034,0.32987955,0.19726154,0.23842433,0.25716308,160.11423,158.10089,158.53722,158.63504,0,0,0,0,0,0,0,0,0,0,0,0,-0.022990404,0.0228343,0.0050755735,0.00023687702,0.3306797,0.19857876,0.23847835,0.2571632,-0.009124331,-0.0053330734,0.0051469207,0.004788298,85,4,132,2,10,332.18396,163.70876,-1374.1357,54.340527,532541.3,732.31384,121.45517,121.44296,125.79054,125.79054,10.380246,1,78.767204,0,0,6.6092095,6.60921,0,8,255,0,0,0,4,0,25,0
True,39212843,9499.995,1203.1134,7106.884,0.20062399,-4.3973584,5.6467233,-0.049116135,-0.3651744,55.019165,0.11690009,0.006057591,0.04461861,2.033805,0.009765604,0.0050058775,0.17276005,0.276168,0.44946098,0.48798642,0.56632155,0.39503893,0.29558855,0.31493673,165.61589,163.14627,161.4152,161.50725,0,0,0,0,0,0,0,0,0,0,0,0,-0.02033565,0.027643153,0.004829089,0.0061973217,0.5666866,0.39600495,0.295628,0.3149977,-0.017902113,-0.011914179,-0.001897864,0.00033427402,85,4,132,2,10,338.06674,163.63521,-1377.0653,55.0204,510500.72,686.54926,121.41786,121.38429,125.76218,125.76218,10.640695,1,83.01138,0,0,6.729358,6.7293587,0,8,255,0,0,0,4,0,33,0
True,39212953,9499.995,1203.1134,7225.195,-0.025026917,-6.3001447,5.0159616,-0.082818985,-0.3260696,55.504875,0.10659865,0.007329879,0.03074466,2.0345478,0.022638064,0.008672977,0.06260624,0.13275275,0.26679724,0.34527576,0.43453267,0.39959666,0.44330198,0.47683144,165.17543,164.58743,165.03351,165.37302,0,0,0,0,0,0,0,0,0,0,0,0,-0.011356957,0.031600654,0.0056898003,0.017932016,0.43468106,0.40084422,0.4433385,0.4771685,-0.024280675,-0.020218775,-0.01248128,-0.007934287,85,4,132,2,10,342.98294,163.51068,-1379.5145,55.505894,467671.6,618.02295,121.42886,121.385414,125.76577,125.76577,10.950276,1,86.55912,0,0,6.828784,6.828785,0,8,255,0,0,0,4,0,40,0
True,39213062,9499.995,1203.1134,7303.922,1.0029051,-6.084115,5.41463,-0.11541557,-0.33568364,56.071,0.11144079,0.056772545,0.058046512,2.0373487,0.033542704,0.013351618,0.012442735,0.10154844,0.24095279,0.32332122,0.44431755,0.50803214,0.44666824,0.435829,166.88068,167.73456,167.34784,166.06525,0,0,0,0,0,0,0,0,0,0,0,0,0.43190274,0.4988356,0.018134806,0.032798108,0.61964345,0.71199274,0.4470362,0.43706137,-0.02718544,-0.02202569,-0.01397869,-0.009206317,85,4,132,2,10,348.02393,163.31808,-1382.0325,56.072124,517223.44,676.56525,121.47277,121.41293,125.794174,125.794174,11.1118765,1,90.19337,0,0,6.929822,6.929823,0,8,255,0,0,0,4,127,46,0
True,39213171,9499.995,1203.1134,7268.807,2.735877,-4.1991158,6.9577627,-0.52093506,-0.39416665,56.805603,0.019796764,0.14758192,0.06769949,2.0508428,0.040211514,0.020770824,0.06650613,0.22768873,0.3092546,0.35897794,0.22518718,0.24245861,0.23374313,0.31061885,166.1467,165.70494,167.40465,164.94995,0,0,0,0,0,0,0,0,0,0,0,0,0.02295097,0.06366288,0.09496481,0.11206622,0.22635373,0.25067738,0.2522978,0.33021644,-0.024054848,-0.014721416,-0.010021329,-0.0071403906,85,4,132,2,10,353.40717,163.05084,-1384.7533,56.80936,554506.94,728.15204,121.57539,121.531906,125.82908,125.82908,11.219478,1,94.093544,0,0,7.036837,7.036838,0,8,255,0,0,0,4,0,53,0
True,39213281,9499.995,1203.1134,7326.9604,3.9179218,-2.1277308,6.536556,-0.73286057,-0.42583454,57.50751,0.05064428,0.061742455,0.06737789,2.0623755,0.04256693,0.029017897,0.14496723,0.290664,0.39984068,0.4919981,0.19324774,0.24959156,0.25145158,0.17213035,167.49559,168.0181,167.79692,166.7419,0,0,0,0,0,0,0,0,0,0,0,0,0.07849328,0.123833105,0.11275972,0.12356279,0.20858063,0.27862266,0.27557695,0.21188822,-0.019511484,-0.011074774,-0.0047728308,0.0005667098,85,4,132,2,10,358.93048,162.74786,-1387.5939,57.513752,556193.6,725.13434,121.54825,121.50872,125.84671,125.84671,11.216025,1,98.11159,0,0,7.145582,7.145583,0,8,255,0,0,0,4,0,59,0
True,39213406,9499.995,1203.1134,7500.8745,3.04886,-4.9596987,6.8841324,-0.64793396,-0.38054428,58.161873,0.07814951,0.02079939,0.08037925,2.0662942,0.052217323,0.0373699,0.06170287,0.22964692,0.32437608,0.4640338,0.24816427,0.29398423,0.4713554,0.28317818,170.14111,170.80013,171.85213,171.823,0,0,0,0,0,0,0,0,0,0,0,0,0.07235955,0.11553417,0.09382486,0.10430178,0.25849837,0.3158716,0.48060277,0.301776,-0.024332985,-0.014608026,-0.0091452,-0.0010535233,85,4,132,2,10,364.7217,162.39102,-1390.6251,58.16672,563723.6,717.68634,121.536674,121.49356,125.88556,125.88556,11.480424,1,102.33434,0,0,7.2587643,7.2587657,0,8,255,0,0,0,4,0,64,0
True,39213515,9499.995,1203.1134,7485.2285,2.5288386,-1.8299307,6.431717,-0.4506035,-0.40540132,58.95672,-0.00021077506,0.008542215,0.07440455,2.0681412,0.055421114,0.045499817,0.15714632,0.31852886,0.36184248,0.47643802,0.15182666,0.1458768,0.23928449,0.14297546,170.90372,170.79593,170.38629,171.87915,0,0,0,0,0,0,0,0,0,0,0,0,0.042847432,0.08219986,0.057910193,0.0657112,0.1577569,0.1674421,0.24619232,0.15735292,-0.018806241,-0.0094612315,-0.0069744214,-0.00033483282,85,4,132,2,10,370.54828,161.98384,-1393.713,58.95983,564348.75,719.9773,121.52924,121.49515,125.94993,125.94993,11.582292,1,106.60473,0,0,7.3715506,7.3715525,0,8,255,0,0,0,4,0,69,0
True,39213625,9499.995,1203.1134,7543.758,1.8681724,1.2823868,6.3566055,-0.24172974,-0.4084248,59.660763,-0.03679627,-0.0053135795,0.08013321,2.0679848,0.05245448,0.053887393,0.37886542,0.53570926,0.5185424,0.63860565,0.11873744,0.115650535,0.10497741,0.17332035,172.40376,172.37944,172.16026,172.58739,0,0,0,0,0,0,0,0,0,0,0,0,0.011447777,0.053029675,0.028143734,0.024293166,0.11928802,0.1272289,0.108684525,0.17501459,-0.005967386,0.0031148046,0.0021046698,0.009061053,85,4,132,2,10,376.2549,161.58534,-1396.7717,59.662647,566441.2,717.2372,121.51161,121.48584,125.98518,125.98518,11.661494,1,110.79824,0,0,7.4809012,7.480903,0,8,255,0,0,0,4,0,73,0
True,39213734,9499.995,1203.1134,7647.057,-1.2498704,0.40813407,6.0753384,-0.22223473,-0.35136175,60.30314,-0.009438997,-0.08816069,0.022925965,2.0651443,0.05252284,0.059888795,0.3065223,0.45316273,0.53129137,0.58639175,0.16146192,0.10843838,0.1989968,0.16071324,174.70279,174.23438,175.055,174.68077,0,0,0,0,0,0,0,0,0,0,0,0,-0.30078787,-0.23843141,0.015011246,0.010584153,0.34138438,0.26193208,0.19956218,0.16106139,-0.010156482,-0.0016651303,0.0028433353,0.006035812,85,4,132,2,10,381.88498,161.21063,-1399.7991,60.304573,570191.75,712.1819,121.49939,121.472694,125.99092,125.99092,11.827247,1,114.97987,0,0,7.5876374,7.5876393,0,8,255,0,0,0,4,-127,76,0
True,39213859,9499.995,1203.1134,7702.301,-4.7618866,8.728377,6.968685,0.34082222,-0.19405317,61.09175,-0.22457501,-0.11692873,0.07847995,2.0442026,0.04318599,0.06530041,0.66626453,0.7289743,0.5421466,0.655824,0.051101577,0.047907006,0.1166447,0.09857797,175.4436,175.93835,176.04012,176.25804,0,0,0,0,0,0,0,0,0,0,0,0,-0.036443383,-0.008042882,-0.06664507,-0.07143218,0.06276537,0.048577458,0.13434118,0.121738136,0.010674734,0.014306001,0.0034722798,0.010058671,85,4,132,2,10,388.7884,160.78308,-1403.4318,61.09301,572732.1,710.16003,121.57814,121.57572,126.01209,126.01209,11.981738,1,120.031235,0,0,7.716328,7.71633,0,8,255,0,0,0,4,0,80,0
True,39213968,9499.995,1203.1134,7792.776,-4.2399344,9.3712,6.36263,0.19859505,-0.21112502,61.726963,-0.07588017,-0.015956417,0.029680122,2.0364573,0.022824207,0.070465185,0.6445259,0.6802056,0.7202815,0.74513346,0.104686454,0.09279359,0.12414624,0.11827009,178.10603,178.01138,178.11621,178.03366,0,0,0,0,0,0,0,0,0,0,0,0,-0.047039915,-0.006172734,-0.024735056,-0.03795163,0.11476936,0.092998676,0.12658638,0.12421007,0.009415936,0.011482,0.013793297,0.015233204,85,4,132,2,10,394.94324,160.55418,-1406.5833,61.727646,575493,705.3698,121.61143,121.62143,126.10782,126.10782,12.126874,1,124.5041,0,0,7.8289714,7.828973,0,8,255,0,0,0,4,0,84,0
True,39214093,9499.995,1203.1134,7877.8237,-5.8406477,5.172531,5.899092,0.004922867,-0.22268105,62.355125,-0.041910782,-0.13845867,-0.0520795,2.0299575,0.015296023,0.06910829,0.6563804,0.6575505,0.6735462,0.6802827,0.1369918,0.112319596,0.14614944,0.1053297,180.08928,180.32037,179.94176,179.90376,0,0,0,0,0,0,0,0,0,0,0,0,-0.37206805,-0.31357452,-0.016871441,-0.026443345,0.39648628,0.33308357,0.14712004,0.10859833,0.010102384,0.010170139,0.011085484,0.011475794,85,4,132,2,10,401.22302,160.39803,-1409.7338,62.355526,578403.75,701.2629,121.65019,121.64135,126.12012,126.12012,12.307305,1,129.19623,0,0,7.942221,7.9422226,0,8,255,0,0,0,4,-127,85,0
True,39214218,9499.995,1203.1134,7990.0513,-11.412651,2.6753087,5.164494,0.6733074,-0.22587359,62.904167,-0.06781306,-0.4077876,-0.067496955,1.997658,0.013238063,0.061733615,0.52240896,0.5777418,0.6227479,0.667335,0.2543035,0.12508668,0.24822237,0.11728035,182.69954,182.47,182.68364,182.46481,0,0,0,0,0,0,0,0,0,0,0,0,-0.8555964,-0.6976564,-0.1649464,-0.14808162,0.8925892,0.7087814,0.29802963,0.18889904,0.002344638,0.005548738,0.008142266,0.01072561,85,4,132,2,10,407.81274,160.27034,-1412.9146,62.908176,581631.25,695.21094,121.85884,121.87375,126.12352,126.12352,12.528878,1,133.92958,0,0,8.059049,8.059051,0,8,255,0,0,0,4,-127,85,0
True,39214312,9499.995,1203.1134,8005.0664,-17.529303,7.4429784,5.871388,1.6938152,-0.2004621,63.37521,-0.099612705,-0.3769189,-0.014998098,1.9539416,0.004468275,0.058705494,0.6323269,0.70101583,0.66578066,0.71218795,0.13353314,0.06720041,0.16518725,0.07608061,182.61024,183.22427,182.8067,183.03796,0,0,0,0,0,0,0,0,0,0,0,0,-0.18004487,-0.12318218,-0.28058615,-0.2463014,0.224159,0.14032014,0.3256001,0.2577841,0.008709542,0.012687039,0.010635555,0.013324361,85,4,132,2,10,413.3674,160.20016,-1415.4176,63.39816,582622.75,695.193,122.03336,122.11039,126.203896,126.203896,12.619655,1,137.87038,0,0,8.155528,8.155531,0,8,255,0,0,0,4,0,85,0
True,39214421,9499.995,1203.1134,8103.8135,-15.624876,3.551065,5.9094305,1.7820969,-0.2133658,63.922115,-0.07421089,-0.21282083,-0.020676605,1.923669,0.00011016986,0.056498997,0.52700675,0.6591748,0.6105259,0.6899261,0.17008886,0.09029025,0.21402512,0.123423375,185.13625,184.76152,185.46994,185.09953,0,0,0,0,0,0,0,0,0,0,0,0,-0.4166431,-0.33677346,-0.28228825,-0.24922511,0.4500241,0.34866703,0.3542505,0.27811235,0.0026108772,0.0102641955,0.0074341297,0.012034524,85,4,132,2,10,420.16644,160.17361,-1418.2509,63.947304,584948.75,689.3506,122.08487,122.19304,126.28521,126.28521,12.785695,1,142.84418,0,0,8.271212,8.271214,0,8,255,0,0,0,4,-127,85,0
True,39214546,9499.995,1203.1134,8161.1616,-20.146036,6.046269,5.28193,1.6081429,-0.2033689,64.42736,-0.12418279,-0.388029,-0.022954622,1.8901153,-0.00837167,0.053481303,0.5971462,0.70415616,0.61566705,0.7062818,0.22447756,0.087761134,0.20275626,0.093051754,186.80565,186.25589,186.49913,186.4353,0,0,0,0,0,0,0,0,0,0,0,0,-0.82036114,-0.6284795,-0.27902988,-0.23735222,0.850519,0.6345774,0.34491706,0.2549406,0.006672371,0.012868881,0.007732004,0.012982164,85,4,132,2,10,427.1748,160.18733,-1420.9155,64.44775,586540.3,686.4022,122.3304,122.53526,126.357346,126.357346,12.921359,1,147.69383,0,0,8.387981,8.387981,0,8,255,0,0,0,4,-127,83,0
True,39214656,9499.995,1203.1134,8242.753,-17.500935,3.3076444,5.8647,2.2549114,-0.21790606,64.898506,-0.04882205,-0.2759396,-0.0037548142,1.8478041,-0.012989991,0.054733865,0.44044387,0.6368216,0.5908537,0.6976515,0.15333995,0.091458276,0.25876,0.14065495,187.59601,187.80255,188.80356,188.51576,0,0,0,0,0,0,0,0,0,0,0,0,-0.26829237,-0.21059866,-0.3682177,-0.31329727,0.30902094,0.22960055,0.4500456,0.34342247,-0.0024016276,0.008969814,0.006294336,0.012482129,85,4,132,2,10,434.21436,160.26149,-1423.2999,64.938034,588181.94,681.43774,122.52023,122.81442,126.460556,126.460556,13.071761,1,152.50075,0,0,8.502894,8.502894,0,8,255,0,0,0,4,0,83,0
True,39214765,9499.995,1203.1134,8265.383,-18.5828,6.185973,5.614649,1.4704866,-0.19745773,65.46908,-0.10651737,-0.06665788,0.022766048,1.8282475,-0.021968994,0.054884624,0.5923209,0.71269727,0.60455185,0.70889324,0.10041735,0.06038294,0.14437486,0.10878715,188.77321,188.43523,189.10883,188.8791,0,0,0,0,0,0,0,0,0,0,0,0,-0.19804168,-0.14008293,-0.2026984,-0.18865213,0.22204538,0.15254286,0.24885887,0.21777114,0.006392956,0.013363462,0.007087998,0.01313347,85,4,132,2,10,441.32928,160.37636,-1425.4629,65.485886,589037.1,680.6013,122.60132,122.95033,126.54962,126.54962,13.157935,1,157.50832,0,0,8.616934,8.616934,0,8,255,0,0,0,4,0,82,0
True,39214875,9499.995,1203.1134,8329.916,-10.717954,6.4785104,4.517111,0.38379955,-0.19960642,66.01376,-0.06153755,-0.05231193,0.027949885,1.8243642,-0.035160802,0.059298772,0.6279473,0.690982,0.6990039,0.7481147,0.12528512,0.08809104,0.12419993,0.10357638,190.67842,190.2909,190.33066,190.22388,0,0,0,0,0,0,0,0,0,0,0,0,-0.32609946,-0.2656382,-0.05341302,-0.0626053,0.34933826,0.2798637,0.13519827,0.121026814,0.008455936,0.01210602,0.012560487,0.015405934,85,4,132,2,10,448.52118,160.57832,-1427.4421,66.015175,589831.1,676.3467,122.66203,123.06143,126.62349,126.62349,13.253484,1,162.33516,0,0,8.730408,8.730408,0,8,255,0,0,0,4,-127,81,0
True,39214984,9499.995,1203.1134,8402.143,-12.109819,5.485107,4.4344597,0.36989117,-0.21362436,66.48251,-0.05407581,-0.30944014,0.004432706,1.8033993,-0.04275844,0.06136586,0.6286385,0.70751494,0.67674154,0.7319056,0.1802197,0.087545656,0.16624223,0.09194189,192.21782,192.03876,191.94946,191.91235,0,0,0,0,0,0,0,0,0,0,0,0,-0.5840155,-0.46934673,-0.09362811,-0.09502839,0.61119,0.47744173,0.19079491,0.13222598,0.00849596,0.013063375,0.01127062,0.014466789,85,4,132,2,10,455.7341,160.84714,-1429.2782,66.48389,590928.7,671.79816,122.83305,123.28324,126.64664,126.64664,13.399993,1,167.33766,0,0,8.842814,8.842815,0,8,255,0,0,0,4,-12,78,0
True,39215093,9499.995,1203.1134,8447.373,-11.603882,7.1586084,5.4902515,1.0709105,-0.21627557,66.98681,-0.09810475,-0.14365903,-0.01666995,1.7741021,-0.05180236,0.06343649,0.60517985,0.6610589,0.68032384,0.7220672,0.09755688,0.0699929,0.1303134,0.08801165,192.90451,193.08563,193.04692,193.03914,0,0,0,0,0,0,0,0,0,0,0,0,-0.12749109,-0.0834025,-0.14874728,-0.14471947,0.16053449,0.10888059,0.19775574,0.16938056,0.007137567,0.010373294,0.011478178,0.01389676,85,4,132,2,10,463.0274,161.17976,-1430.9775,66.99571,591642.6,668.90356,122.91257,123.38958,126.7064,126.7064,13.511779,1,172.18066,0,0,8.955122,8.955124,0,8,255,0,0,0,4,0,72,0
True,39215203,9499.995,1203.1134,8504.529,-9.483543,8.942933,4.552388,0.57383156,-0.24681759,67.46027,-0.05970503,-0.012830363,-0.0003549112,1.7650174,-0.066421345,0.06292051,0.6670882,0.6934557,0.711977,0.73681337,0.13645093,0.09546834,0.097086765,0.0866182,195.27501,194.56584,194.13455,193.97984,0,0,0,0,0,0,0,0,0,0,0,0,-0.1412615,-0.08980764,-0.06316723,-0.07248076,0.1964018,0.13107103,0.115827195,0.11294323,0.010722429,0.012249261,0.013312139,0.014751144,85,4,132,2,10,470.16153,161.59204,-1432.5011,67.463165,592145.6,665.1445,122.965546,123.45593,126.78051,126.78051,13.617019,1,176.9047,0,0,9.063793,9.063794,0,8,255,0,0,0,4,-8,65,0
True,39215312,9499.995,1203.1134,8561.596,-9.900553,5.6027503,4.4007306,0.056160927,-0.24888873,67.90538,-0.20380786,-0.1677219,-0.021382622,1.758113,-0.072467074,0.06208774,0.67958987,0.70297956,0.66894555,0.6965006,0.09295889,0.06253961,0.12219654,0.0835485,195.47458,195.71803,195.48685,195.8277,0,0,0,0,0,0,0,0,0,0,0,0,-0.39013648,-0.31569442,-0.026128156,-0.033984005,0.4010584,0.3218294,0.124958694,0.0901957,0.011446349,0.012800749,0.010818925,0.012415446,85,4,132,2,10,477.26727,162.06126,-1433.9198,67.90585,592872.5,661.0524,123.04842,123.55879,126.786316,126.786316,13.774575,1,181.73499,0,0,9.171082,9.171083,0,8,255,0,0,0,4,-127,55,0
True,39215421,9499.995,1203.1134,8618.197,-10.015217,7.339167,4.181276,0.73496723,-0.18636459,68.30451,-0.0409337,-0.24047758,-0.009307595,1.7293547,-0.08379279,0.06334027,0.66955143,0.6898125,0.70387924,0.72749865,0.0824809,0.07005239,0.158261,0.0994647,196.11707,196.98425,197.1062,197.11473,0,0,0,0,0,0,0,0,0,0,0,0,-0.06143608,-0.022820195,-0.123792455,-0.12847093,0.10284693,0.07367563,0.20092565,0.16247463,0.0108650625,0.012038298,0.012842961,0.0142114535,85,4,132,2,10,484.4589,162.62428,-1435.2067,68.308716,592847.44,657.0551,123.21109,123.76385,126.85597,126.85597,13.853444,1,186.45897,0,0,9.278674,9.278675,0,8,255,0,0,0,4,0,42,0
True,39215531,9499.995,1203.1134,8666.64,-9.74386,7.530919,4.2387743,0.8812275,-0.19897974,68.73251,-0.107863665,-0.081649445,-0.05278902,1.7114838,-0.094644874,0.060410324,0.6730287,0.6628792,0.7385086,0.75305384,0.0806272,0.072971195,0.12746924,0.09681011,197.78667,198.02786,198.16008,198.0394,0,0,0,0,0,0,0,0,0,0,0,0,-0.10708626,-0.06845909,-0.11163521,-0.1128117,0.13404557,0.1000572,0.1694427,0.14865623,0.011066418,0.010478701,0.014849361,0.015692104,85,4,132,2,10,491.68835,163.26353,-1436.3859,68.73845,592968.2,653.41003,123.260376,123.8,126.90067,126.90067,13.957,1,191.20428,0,0,9.38597,9.385972,0,8,255,0,0,0,4,0,27,0
True,39215656,9499.995,1203.1134,8712.078,-11.274353,8.620956,3.9760625,0.48783875,-0.18147033,69.132065,-0.120864704,-0.20309302,-0.044581335,1.698847,-0.10726568,0.055589236,0.6958678,0.7133841,0.69889873,0.7095746,0.112878375,0.061103042,0.12432236,0.0762252,199.105,199.1094,199.05443,199.06924,0,0,0,0,0,0,0,0,0,0,0,0,-0.41408882,-0.32215208,-0.08022773,-0.083529286,0.42919818,0.32789564,0.14796127,0.113081485,0.012388937,0.013403233,0.012554392,0.013172947,85,4,132,2,10,498.96432,163.99081,-1437.4482,69.13402,593047.5,650.1438,123.35791,123.9099,126.9426,126.9426,14.05416,1,196.01053,0,0,9.49314,9.493143,0,8,255,0,0,0,4,-127,9,0
True,39215765,9499.995,1203.1134,8496.342,-15.002546,3.6873255,-0.22487545,1.2908607,-0.17501712,69.13026,-0.041935638,-0.410635,-0.051534835,1.6631922,-0.111407615,0.05566697,0.5665183,0.6499052,0.61799467,0.680663,-0.004092349,-0.008354627,-0.03349975,-0.013747052,194.9185,196.95773,194.73984,197.10312,0,0,0,0,0,0,0,0,0,0,0,0,-0.9302375,-0.7673179,-0.23681022,-0.20923287,0.9302465,0.76736337,0.23916796,0.20968398,0.0048988312,0.00972743,0.007866867,0.011497825,85,4,132,2,10,506.8128,164.85324,-1438.4214,69.142525,-197522.55,-221.76895,123.59369,124.207756,126.95203,126.95203,-0.65579796,1,201.12169,0,0,9.608048,9.608052,0,8,255,0,0,0,4,-127,242,0
True,39215859,9499.995,1203.1134,7827.156,-23.620384,9.498303,-2.5517926,2.4481688,-0.106101274,68.532364,-0.06437134,-0.5682237,-0.04901487,1.6008052,-0.12472862,0.05649444,0.6466519,0.69910926,0.68694973,0.7461977,-0.0068578958,-0.0018067382,0.004273958,0.0044207573,193.33406,196.25471,193.50517,196.25386,0,0,0,0,0,0,0,0,0,0,0,0,-0.8483737,-0.68632853,-0.36978486,-0.31492436,0.8484014,0.6863309,0.36980957,0.31495538,0.009539045,0.012576636,0.011862077,0.015294865,85,4,132,2,10,514.6038,165.77197,-1439.1146,68.57616,-165398.8,-201.3978,124.3364,124.94804,126.98642,126.98642,-9.2244835,1,206.16391,0,0,9.722459,9.722464,0,8,255,0,0,0,5,0,221,0
True,39215968,9499.995,1203.1134,6574.736,-23.694408,6.140407,0.6639843,3.4730535,-0.14569831,68.35944,-0.10490861,-0.35758224,-0.057643235,1.5499637,-0.13030295,0.056990292,0.6659857,0.71396935,0.6022694,0.69535893,0.16008236,0.05733393,0.18925717,0.09751598,197.47017,197.23006,196.78156,197.99701,0,0,0,0,0,0,0,0,0,0,0,0,-0.417446,-0.31055924,-0.50916654,-0.40829843,0.44708782,0.31580725,0.5432024,0.41978204,0.010658585,0.013437126,0.006955754,0.0123493,85,4,132,2,10,521.86334,166.70355,-1439.4722,68.44777,173658.62,251.54834,124.44388,125.15117,127.09656,127.09656,-4.894059,1,210.88414,0,0,9.829515,9.829518,0,8,255,0,0,0,5,0,205,0
True,39216093,9499.995,1203.1134,6489.048,-18.607489,0.74641824,1.4746199,3.158198,-0.1748355,68.40537,0.022767613,-0.14309017,-0.028968317,1.5245318,-0.13035497,0.057145014,0.35922816,0.5407774,0.5770303,0.67144924,0.20182036,0.109654136,0.24974474,0.19839135,198.85686,197.8422,199.01314,199.21153,0,0,0,0,0,0,0,0,0,0,0,0,-0.42150524,-0.34786627,-0.46510094,-0.41434702,0.46733084,0.36473957,0.5279122,0.4593937,-0.007104501,0.0034082793,0.0054934174,0.010963988,85,4,132,2,10,529.18555,167.67323,-1439.5692,68.47846,462407.38,680.5951,124.49392,125.28369,127.20093,127.20093,5.7763166,1,215.6544,0,0,9.937444,9.937448,0,8,255,0,0,0,5,0,194,0
True,39216203,9499.995,1203.1134,6476.035,-16.017498,0.48788628,2.8953834,2.2138884,-0.3132745,68.70074,-0.067957886,-0.05349517,-0.050083537,1.5134469,-0.13204202,0.05364265,0.46610546,0.59045744,0.4797542,0.633081,0.13555022,0.07537425,0.15497911,0.13797376,198.72336,197.89726,198.69939,198.38867,0,0,0,0,0,0,0,0,0,0,0,0,-0.29841638,-0.23066837,-0.30162024,-0.26037,0.32775936,0.24267091,0.33910662,0.29466808,-0.0009156689,0.006285049,-0.00014269352,0.008740958,85,4,132,2,10,536.68396,168.64581,-1439.4786,68.737114,489894.6,722.22125,124.568985,125.40494,127.257065,127.257065,8.867757,1,220.533,0,0,10.047673,10.047678,0,8,255,0,0,0,5,0,188,0
True,39216312,9499.995,1203.1134,6542.4272,-10.291568,-0.64467317,2.459443,0.8382797,-0.22964752,68.98047,0.0447041,0.037980862,-0.03125504,1.5163178,-0.1312633,0.051780503,0.4392394,0.47704563,0.63603354,0.671306,0.14177644,0.13950835,0.24813497,0.22391139,199.712,199.42383,201.19753,200.69254,0,0,0,0,0,0,0,0,0,0,0,0,-0.32870296,-0.2800651,-0.10485243,-0.11067961,0.35797513,0.3128882,0.2693789,0.24977247,-0.0024713725,-0.0002821684,0.008912027,0.010955691,85,4,132,2,10,544.3052,169.64365,-1439.2086,68.98594,499711.22,729.7665,124.5901,125.4397,127.27373,127.27373,9.468154,1,225.50623,0,0,10.159347,10.15935,0,8,255,0,0,0,5,-39,186,0
True,39216406,9499.995,1203.1134,6546.5205,-5.663924,-1.4804466,2.7692294,0.47021508,-0.36128026,69.295494,0.0524926,-0.028890014,0.007231385,1.5131128,-0.13056399,0.049868006,0.4115391,0.4521492,0.57538486,0.6329789,0.18921138,0.16735724,0.17372139,0.1395005,201.28696,201.08063,200.45439,200.28142,0,0,0,0,0,0,0,0,0,0,0,0,-0.081911206,-0.036029905,-0.06378843,-0.0673148,0.20618048,0.17119169,0.18506238,0.15489246,-0.0040753856,-0.0017238185,0.0053980835,0.008735042,85,4,132,2,10,551.75226,170.59651,-1438.8567,69.29803,501573.97,731.84845,124.611664,125.47275,127.262436,127.262436,9.627496,1,230.3666,0,0,10.268037,10.268042,0,8,255,0,0,0,5,0,186,0
True,39216546,9499.995,1203.1134,6231.9126,-2.3347342,-4.1852098,0.17798561,0.3214414,-0.33227766,69.320496,0.055099327,-0.0066182865,-0.045099128,1.5118573,-0.121973224,0.04775009,0.34640816,0.27329075,0.42860517,0.43030864,-0.4386294,-0.44864282,-0.16567943,-0.15881942,187.49626,187.33784,192.31015,193.03137,0,0,0,0,0,0,0,0,0,0,0,0,-0.056440905,-0.01787042,-0.04313941,-0.038505036,0.44224575,0.4489986,0.17120361,0.16342045,-0.007846855,-0.012080789,-0.0031062365,-0.0030075386,85,4,132,2,10,560.4407,171.65752,-1438.4001,69.32203,479591.06,732.3996,124.56286,125.416176,127.237404,127.237404,9.603469,1,236.03255,0,0,10.39428,10.394286,0,8,255,182,0,0,5,0,187,165
True,39216656,9499.995,1203.1134,5121.757,-1.1935176,-2.8173532,-17.598167,0.16979575,0.17637226,66.907005,0.13982475,0.012399995,-0.030983713,1.512735,-0.111398876,0.04311245,0.5181051,0.43864176,0.4904777,0.42829642,-2.6924088,-2.7501855,-1.0612229,-1.0967652,136.07669,134.88614,166.29884,167.88571,0,0,0,0,0,0,0,0,0,0,0,0,-0.044616938,-0.0037336145,-0.01879363,-0.019874673,2.6927783,2.750188,1.0613893,1.0969453,0.00209542,-0.0025059804,0.00047861785,-0.0031241253,85,4,132,2,10,567.87067,172.52869,-1437.9907,66.90745,243690.03,451.54382,126.40083,127.39447,127.271576,127.271576,5.8862886,1,240.8772,0,0,10.504495,10.5045,0,8,130,255,0,0,5,0,189,129
True,39216750,9499.995,1203.1134,4167.8403,-0.4872442,-4.5130067,-17.024282,0.018124104,0.23907739,65.216484,0.04368058,0.012111752,-0.028132113,1.5147413,-0.101744846,0.040835094,0.55882484,0.45128292,0.30419433,0.25212133,-2.6375666,-2.1344688,-3.123683,-2.8413994,129.69446,141.27617,124.27627,129.35577,0,0,0,0,0,0,0,0,0,0,0,0,-0.021063255,0.014458713,-0.0037206889,0.007687061,2.6376507,2.1345177,3.1236854,2.84141,0.004453335,-0.0017739832,-0.010314517,-0.013331592,85,4,132,2,10,575.09204,173.3191,-1437.5878,65.21693,-39454.445,-90.24866,133.18396,134.33939,132.01602,132.01602,-7.8797936,1,245.57619,0,0,10.614419,10.614425,0,8,247,227,0,0,5,0,191,143
True,39216859,9499.995,1203.1134,4802.8247,-0.17896849,-3.0010521,-14.737667,-0.05985117,0.291893,63.503468,0.05052431,-0.00022904901,-0.06568557,1.5158492,-0.096839264,0.035200216,0.6828861,0.49443483,0.33799586,0.2857351,-0.0017809091,-0.00411084,-0.25333217,-0.015922306,180.9674,180.92616,176.4408,180.08878,0,0,0,0,0,0,0,0,0,0,0,0,-0.0073926677,0.032934267,0.009968398,0.01803029,0.007604155,0.033189833,0.2535282,0.024054337,0.011637222,0.0007247701,-0.008356079,-0.011384033,85,4,132,2,10,581.795,174.01768,-1437.2114,63.50416,282458.94,566.49084,135.50491,135.90158,136.73883,136.73883,-1.362298,1,249.94077,0,0,10.719678,10.719683,0,8,255,0,0,0,4,0,193,0
True,39216984,9499.995,1203.1134,7153.525,-0.044339865,-4.6409554,-3.567354,-0.024547577,-0.021663003,63.22951,0.053558465,-0.0057909973,-0.033030264,1.5154878,-0.092057,0.02930091,0.486454,0.35087433,0.3772598,0.26698628,0.006201272,0.0058857496,0.00436814,0.004562059,180.31339,180.33482,179.64049,179.6695,0,0,0,0,0,0,0,0,0,0,0,0,-0.015152697,0.02966546,0.0018671259,0.01078829,0.01637254,0.030243704,0.004750453,0.011713223,0.00026263297,-0.0075882375,-0.0060811527,-0.012470327,85,4,132,2,10,589.6499,174.77866,-1436.7723,63.229515,513192.28,689.9904,134.70053,135.13647,136.01837,136.01837,7.659133,1,255.05182,0,0,10.844438,10.844443,0,8,255,0,0,0,4,0,195,0
True,39217093,9499.995,1203.1134,7520.3403,-0.086666346,-6.333965,-9.161332,0.015394926,-0.039795816,62.23016,0.084709674,-0.0092967665,-0.03547734,1.5148093,-0.08102474,0.025797095,0.44038585,0.29950136,0.30120158,0.27158165,-2.3638637,-2.7649064,-2.6736436,-2.6704814,131.32103,124.58637,129.83319,127.22235,0,0,0,0,0,0,0,0,0,0,0,0,-0.017170083,0.021379612,-0.0075870254,0.004905945,2.363926,2.7649891,2.6736543,2.670486,-0.0024049878,-0.010563038,-0.010487914,-0.012204073,85,4,132,2,10,596.3148,175.35223,-1436.4009,62.23017,232807.17,294.23724,138.26898,138.8483,136.62541,136.62541,3.571536,1,259.37692,0,0,10.951065,10.951072,0,8,255,255,0,0,4,0,196,129
True,39217203,9499.995,1203.1134,6316.3374,-0.197523,-2.5975275,-20.377249,0.075167656,0.28254482,59.8935,0.089509666,-0.014750483,-0.063693285,1.5136244,-0.07214502,0.020182244,0.68698794,0.5217974,0.32849103,0.26756918,-0.8981355,-2.7054725,-1.2042766,-1.210556,151.54123,122.081436,146.69852,149.05656,0,0,0,0,0,0,0,0,0,0,0,0,-0.022992166,0.016040523,-0.014222164,-0.004326841,0.89842975,2.7055202,1.2043605,1.2105638,0.011874739,0.0023092255,-0.008906782,-0.012436554,85,4,132,2,10,602.7847,175.8613,-1436.0392,59.894207,463489.78,698.4077,141.92342,141.87334,138.20235,138.20235,7.070298,1,263.58014,0,0,11.057505,11.057512,0,8,255,255,0,0,4,0,198,129
True,39217312,9499.995,1203.1134,6892.3647,-0.16496283,-5.7299747,-13.389298,0.12839484,0.2369256,58.57343,0.097351,-0.011107073,-0.043899577,1.5124701,-0.061854023,0.014987592,0.57016796,0.4037747,0.34441972,0.24609149,-0.30899608,-0.3925068,-0.8974261,-0.525591,162.15506,161.00923,153.02832,158.10774,0,0,0,0,0,0,0,0,0,0,0,0,-0.03522508,0.0056173983,-0.023771985,-0.0130899055,0.3109974,0.392547,0.89774096,0.525754,0.005110167,-0.004524991,-0.007983886,-0.013680957,85,4,132,2,10,609.10046,176.31488,-1435.6846,58.57405,511444.28,714.13513,143.77286,144.73892,138.96368,138.96368,8.755067,1,267.6811,0,0,11.16467,11.164677,0,8,255,0,0,0,4,0,200,0
True,39217421,9499.995,1203.1134,7524.944,-0.5057772,-4.917911,-0.009840274,0.12931275,-0.008816922,58.709454,-0.013328991,-0.0077121686,-0.03307857,1.5115281,-0.056843072,0.011004349,0.3735359,0.2662008,0.31423935,0.24691294,0.20654492,0.21144521,0.3512736,0.26140472,171.0631,171.21333,171.28244,173.38176,0,0,0,0,0,0,0,0,0,0,0,0,-0.035503954,0.00307727,-0.02439798,-0.012264763,0.20957416,0.21146761,0.35211986,0.2616923,-0.0062759966,-0.012491338,-0.009732515,-0.013633363,85,4,132,2,10,615.41736,176.69954,-1435.3267,58.709595,559499.5,709.93445,142.72095,143.67961,138.36935,138.36935,11.004109,1,271.77158,0,0,11.273002,11.273007,0,8,255,0,0,0,4,0,202,0
True,39217531,9499.995,1203.1134,7709.255,-0.50326264,-5.1043334,3.5450974,0.1031127,-0.39041334,59.260742,0.14494716,8.580816E-05,-0.018138137,1.5108699,-0.053883,0.006902403,0.2502792,0.17349294,0.5074267,0.4288462,0.5720774,0.5644066,0.34220505,0.41515055,178.33829,178.22852,173.13023,177.19142,0,0,0,0,0,0,0,0,0,0,0,0,-0.040653013,0.0076084104,-0.014629781,-0.012779381,0.57352,0.56445783,0.3425176,0.4153472,-0.013413295,-0.017859675,0.0014606304,-0.0030922703,85,4,132,2,10,622.81573,177.0928,-1434.8993,59.262115,483329.94,599.36115,141.61537,142.55638,137.77953,137.77953,11.734864,1,276.57034,0,0,11.398718,11.398724,0,8,255,0,0,0,4,0,204,0
True,39217656,9499.995,1203.1134,7382.19,-0.37383646,-6.173331,2.340121,0.090551615,-0.3200232,59.455242,0.075172104,-0.0066695614,-0.020219915,1.5107145,-0.040507626,0.0053262715,0.16865133,0.11025019,0.33659226,0.29948372,-0.19146843,-0.2049606,0.14233463,0.0627459,165.6709,165.4907,172.46648,167.83778,0,0,0,0,0,0,0,0,0,0,0,0,-0.030483972,0.008381909,-0.018981645,-0.007954094,0.19387995,0.20513192,0.14359474,0.063248046,-0.018140033,-0.021521807,-0.008437403,-0.010587446,85,4,132,2,10,629.0238,177.34268,-1434.537,59.45617,565485.4,729.5156,140.79646,141.72447,137.3492,137.3492,11.911393,1,280.59473,0,0,11.503517,11.503523,0,8,255,115,0,0,4,0,206,199
True,39217765,9499.995,1203.1134,6851.7886,-0.18492717,-6.8054295,-4.85112,0.07013631,-0.016527021,58.721375,0.17577367,-0.0004615793,-0.017291429,1.5106562,-0.023766438,0.0035689287,0.2573758,0.21705441,0.30177668,0.28289306,-1.4030619,-1.555452,-0.112811,-0.39060378,145.81273,143.35365,164.59102,159.84302,0,0,0,0,0,0,0,0,0,0,0,0,-0.030667864,0.010711102,-0.016619425,-0.0040844064,1.403397,1.5554888,0.114028625,0.39062515,-0.013002358,-0.015337206,-0.010454595,-0.011548698,85,4,132,2,10,635.5421,177.54099,-1434.1532,58.721416,527365.3,739.1233,141.56282,142.4347,136.78865,136.78865,10.568246,1,284.8105,0,0,11.614144,11.61415,0,8,255,0,0,0,4,0,208,0
True,39217875,9499.995,1203.1134,7496.0845,-0.25954267,-3.5684628,1.6790196,0.05327511,-0.084801205,58.8692,-0.012409667,-0.003370067,-0.021557385,1.510467,-0.01808588,0.0015262314,0.44278112,0.40152702,0.31877714,0.2965783,0.18723264,0.2087468,0.22939679,0.19001903,171.27237,171.64355,173.21638,169.20572,0,0,0,0,0,0,0,0,0,0,0,0,-0.027108701,0.015006986,-0.011944982,-0.0019027878,0.18918495,0.20928554,0.22970757,0.19002855,-0.0022662878,-0.004655145,-0.0094695985,-0.010755785,85,4,132,2,10,642.0075,177.66371,-1433.7703,58.869286,561657.5,715.71173,141.03165,141.97177,136.28552,136.28552,11.291997,1,288.99915,0,0,11.724583,11.724588,0,8,255,0,0,0,4,0,211,0
True,39217968,9499.995,1203.1134,7592.155,-0.11192131,-3.545614,4.682433,0.041890144,-0.2779212,59.367672,0.04158721,-0.00029841127,-0.014854383,1.5103611,-0.015866794,-0.00030132703,0.3958662,0.3530754,0.51105285,0.48983642,0.23615965,0.22293943,0.38550153,0.14373824,173.39517,173.19373,175.74489,171.40599,0,0,0,0,0,0,0,0,0,0,0,0,-0.02733387,0.016473876,-0.004818479,-0.005649064,0.23773624,0.22354725,0.38553163,0.14384921,-0.004982941,-0.0074607804,0.0016707294,0.0004414618,85,4,132,2,10,647.4584,177.73978,-1433.4451,59.368336,567339.6,713.78406,140.32074,141.25424,135.93648,135.93648,11.647288,1,292.53036,0,0,11.816954,11.816961,0,8,255,0,0,0,4,0,213,0
True,39218093,9499.995,1203.1134,7717.9023,-0.045997202,-4.248817,5.2270308,0.026394606,-0.3505461,60.09609,0.06185295,0.001012839,0.00674625,1.5103613,-0.0073218923,-0.0005889893,0.28886625,0.31279612,0.5256789,0.5099514,0.2428933,0.2195731,0.4473094,0.21608236,175.59575,175.26157,179.30527,174.28934,0,0,0,0,0,0,0,0,0,0,0,0,-0.025914246,0.01657458,-0.0035277167,-0.0048864977,0.24427177,0.22019778,0.44732332,0.21613762,-0.0111788735,-0.009793192,0.002518151,0.0016069114,85,4,132,2,10,655.3394,177.79001,-1432.9725,60.09711,572741.5,708.72064,139.3919,140.31013,135.50964,135.50964,11.959762,1,297.63013,0,0,11.949124,11.949134,0,8,255,0,0,0,4,0,216,0
True,39218203,9499.995,1203.1134,7707.7456,-0.047743738,-0.9161525,6.0797586,0.004015684,-0.42994505,60.78514,0.0007882483,0.002108308,-0.012921846,1.5105017,-0.007151374,7.5340786E-06,0.45223182,0.44490618,0.56813854,0.59323734,0.14630099,0.20520525,0.22158721,0.09132284,176.12024,177.13733,175.99695,175.78322,0,0,0,0,0,0,0,0,0,0,0,0,-0.022438856,0.023513269,0.0023061316,-0.0024184538,0.14801176,0.20654798,0.2215992,0.09135486,-0.0017190352,-0.002143234,0.004978236,0.006432444,85,4,132,2,10,661.99646,177.79105,-1432.5719,60.786663,573180.1,710.46326,138.68158,139.58519,135.18399,135.18399,12.022517,1,301.94232,0,0,12.059425,12.059435,0,8,255,0,0,0,4,0,218,0
True,39218296,9499.995,1203.1134,7840.246,0.078785926,-2.991402,5.2487636,0.005724907,-0.3817825,61.24693,0.072226666,0.00096240506,0.00029102014,1.5105126,-0.0015021233,-0.0009852338,0.2968121,0.29251397,0.5334734,0.5261834,0.261181,0.20253414,0.2745049,0.29288545,179.29283,178.32214,178.16527,180.47076,0,0,0,0,0,0,0,0,0,0,0,0,-0.023316452,0.020358628,0.00067700713,-0.0015898664,0.2622197,0.20355478,0.27450573,0.29288977,-0.010718763,-0.0109676495,0.0029697567,0.0025473833,85,4,132,2,10,667.52527,177.78072,-1432.2385,61.248123,576597.94,702.4899,138.10913,139.0084,134.93504,134.93504,12.180423,1,305.5238,0,0,12.150191,12.150201,0,8,255,0,0,0,4,0,220,0
True,39218421,9499.995,1203.1134,7876.893,0.35727227,-2.252467,6.5708222,-0.011711359,-0.40326622,62.019733,0.015500268,0.0019219579,0.013462126,1.5107806,0.0033461365,0.00083626603,0.26259658,0.31141308,0.47883877,0.49506134,0.16235124,0.16264509,0.093488604,0.28713998,179.92937,179.92717,178.61778,181.42589,0,0,0,0,0,0,0,0,0,0,0,0,-0.020442152,0.021140253,0.00089089747,0.0012707647,0.16363314,0.1640132,0.09349284,0.28714278,-0.012700044,-0.009873278,-0.0001957342,0.00074419007,85,4,132,2,10,675.4975,177.71735,-1431.758,62.02104,578770.2,701.7921,137.37415,138.26102,134.62563,134.62563,12.353154,1,310.68552,0,0,12.279761,12.279771,0,8,255,0,0,0,4,0,223,0
True,39218531,9499.995,1203.1134,7181.3677,0.07674053,-3.2047434,-4.3267865,-0.009318352,-0.27471742,61.621147,0.11321374,-0.0024254785,-0.009948421,1.5108008,0.010850194,0.0008100847,0.29887834,0.2797461,0.43861616,0.45073494,-0.96793634,-1.0259597,-0.3427973,-0.3336644,155.69505,154.59479,169.59158,167.04733,0,0,0,0,0,0,0,0,0,0,0,0,-0.017468473,0.022556681,0.00012667853,0.002780227,0.96809393,1.0262077,0.34279734,0.33367598,-0.010599114,-0.0117069855,-0.002526205,-0.0018240511,85,4,132,2,10,682.35614,177.63411,-1431.3448,61.621754,504898.28,668.72565,136.81848,137.70224,134.32483,134.32483,11.297603,1,315.12866,0,0,12.390476,12.390487,0,8,237,223,0,0,4,0,226,145
True,39218640,9499.995,1203.1134,6352.5815,0.02700603,-1.0205555,-21.47852,0.025231361,0.2946968,59.057228,0.0816118,-0.010465839,-0.011000061,1.5102457,0.022014726,-0.00045530198,0.6212404,0.5953637,0.33646816,0.33606875,-1.8272846,-0.9210943,-1.1124672,-1.1286719,130.82442,153.58669,144.81142,148.2952,0,0,0,0,0,0,0,0,0,0,0,0,-0.016986866,0.01628888,-0.008277216,-0.0020113986,1.8273635,0.9212383,1.1124979,1.1286737,0.008067567,0.006569151,-0.008444592,-0.008467734,85,4,132,2,10,688.9518,177.5221,-1430.9478,59.05797,267329.1,401.83667,140.03683,141.42284,134.18913,134.18913,5.876233,1,319.40176,0,0,12.499841,12.499851,0,8,169,255,0,0,4,0,228,129
True,39218750,9499.995,1203.1134,5302.2935,-0.15448296,-1.8082384,-21.530428,0.059466124,0.44319698,56.56286,0.016945269,-0.00057016744,0.010337378,1.5095844,0.02746538,0.000812914,0.6367785,0.6548269,0.2978299,0.31536686,-2.1529984,-2.330308,-2.446098,-2.0350218,118.92821,120.980705,118.99216,124.466415,0,0,0,0,0,0,0,0,0,0,0,0,-0.026560688,0.00783062,-0.0153350895,-0.006959228,2.1531622,2.330321,2.4461462,2.0350337,0.008967314,0.0100124255,-0.010683268,-0.009667188,85,4,132,2,10,695.36804,177.40828,-1430.5615,56.56462,190053.22,340.72293,144.19543,142.86212,135.52586,135.52586,1.7615728,1,323.55652,0,0,12.611251,12.611261,0,8,159,255,0,0,4,0,230,129
True,39218859,9499.995,1203.1134,5259.6387,-0.13729739,-1.027915,-23.69926,0.03584099,0.30953968,53.884056,-0.014741023,0.0022926722,-0.018332196,1.5098716,0.027172493,0.00096950773,0.6672776,0.6463436,0.28131023,0.30247787,-2.249615,-1.6677065,-1.8395222,-2.0278118,115.390755,121.311676,121.83079,120.27103,0,0,0,0,0,0,0,0,0,0,0,0,-0.021381224,0.012101821,-0.009569263,0.0002104501,2.2497165,1.6677504,1.8395472,2.0278118,0.010733392,0.00952119,-0.011640407,-0.010413967,85,4,132,2,10,701.5344,177.27928,-1430.1897,53.884953,178738.1,324.97653,148.67949,146.68906,139.10497,139.10497,0.53660965,1,327.55176,0,0,12.723121,12.723132,0,8,157,255,0,0,4,0,233,129
True,39218968,9499.995,1203.1134,6188.353,-0.059571505,-0.5061871,-23.684124,0.040830612,0.27184862,51.333164,0.00800113,-0.005712223,0.012370472,1.5095651,0.027308883,-9.317334E-05,0.65386707,0.6643179,0.411684,0.39508,-0.19353509,-0.17339383,-0.46960002,-0.39271408,143.26558,143.51804,138.26947,142.6753,0,0,0,0,0,0,0,0,0,0,0,0,-0.024208067,0.011160237,-0.010149925,-0.008243154,0.19504322,0.17375262,0.4697097,0.3928006,0.009956844,0.01056201,-0.004086636,-0.0050486624,85,4,132,2,10,707.2146,177.15588,-1429.8467,51.3339,237988.33,369.71954,149.80945,149.75082,140.83585,140.83585,0.7337389,1,331.23206,0,0,12.831483,12.831494,0,8,173,42,0,0,4,0,235,235
True,39219078,9499.995,1203.1134,6547.0615,-0.256408,-1.113999,-0.8673873,0.031546593,-0.013431639,51.6194,-0.042224042,-0.0035896779,-0.0020930471,1.5090566,0.02412105,0.0005026441,0.50986826,0.5091981,0.41378132,0.43824795,0.13057728,0.14539269,0.15546794,0.20320395,149.32407,149.54927,150.05435,149.31252,0,0,0,0,0,0,0,0,0,0,0,0,-0.024443503,0.015714386,-0.0076106098,-0.0051966812,0.13284545,0.14623944,0.15565412,0.20327039,0.0016184561,0.0015796535,-0.0039651208,-0.0025475398,85,4,132,2,10,712.7829,177.0274,-1429.5077,51.619415,442858,646.1423,148.61516,148.59412,140.26875,140.26875,6.4432554,1,334.84006,0,0,12.940085,12.940097,0,8,242,0,0,0,4,0,237,0
True,39219203,9499.995,1203.1134,6639.6494,-0.18196222,-1.1397059,4.9324765,0.018269777,-0.31796804,52.329933,0.012470173,0.0002703396,-0.0032897724,1.5088798,0.021044604,-0.000154961,0.3848981,0.3699142,0.5368254,0.5264117,0.16779865,0.16482693,0.18668436,0.16462772,151.88023,151.8313,151.64044,151.6718,0,0,0,0,0,0,0,0,0,0,0,0,-0.025098512,0.018803185,-0.0015350292,-0.0037851243,0.16966534,0.16589598,0.18669067,0.16467123,-0.005618058,-0.0064857155,0.0031639747,0.0025606118,85,4,132,2,10,719.3437,176.8581,-1429.1044,52.330902,463017.88,666.1715,147.31848,147.34363,139.67746,139.67746,8.382558,1,339.09024,0,0,13.066579,13.066588,0,8,241,0,0,0,4,0,240,0
True,39219312,9499.995,1203.1134,6696.824,-0.0017850399,-0.8959917,5.4585905,0.0077815056,-0.3213096,52.92927,-0.017059907,0.0005139686,-0.0023866002,1.5089296,0.023053328,-0.0003628633,0.38905764,0.38262314,0.51734436,0.51071954,0.10317095,0.10410441,0.15973224,0.16846175,152.68341,152.69798,153.09462,153.27512,0,0,0,0,0,0,0,0,0,0,0,0,-0.020684794,0.018162481,-0.00040148039,-0.0014459828,0.10522408,0.10567688,0.15973274,0.16846795,-0.005377196,-0.005749792,0.0020352527,0.0016514175,85,4,132,2,10,724.95294,176.69743,-1428.7582,52.930244,438428.8,625.23,146.30481,146.36693,139.22214,139.22214,8.190255,1,342.7255,0,0,13.173389,13.173401,0,8,230,0,0,0,4,0,242,0
True,39219421,9499.995,1203.1134,6485.3267,0.03449627,0.7489413,1.9329695,0.0012822151,-0.28967705,53.14284,0.051042646,0.0012373393,0.006816758,1.508996,0.021264162,-0.00023034657,0.47116002,0.476879,0.62346,0.62192535,-0.36507642,-0.32449958,-0.07750934,-0.08017485,145.3314,145.98938,149.4133,149.36252,0,0,0,0,0,0,0,0,0,0,0,0,-0.023108633,0.02061847,0.0037604927,-0.00455504,0.36580706,0.32515395,0.07760052,0.08030414,-0.0006229803,-0.0002918169,0.008183524,0.008094609,85,4,132,2,10,730.62427,176.54073,-1428.4075,53.143635,347981.06,511.65018,145.3536,145.45128,138.78998,138.78998,6.475417,1,346.40088,0,0,13.280301,13.280313,0,8,201,120,0,0,4,0,245,59
True,39219531,9499.995,1203.1134,5221.5005,0.034311056,-0.65708184,-19.614489,0.0014960766,0.12786596,50.49852,0.07224453,-0.008430494,-0.0041244878,1.508968,0.03168345,0.0006714874,0.59421635,0.58841544,0.44091046,0.46637163,-2.0040703,-1.4724185,-1.4061186,-1.3633227,108.840965,122.110306,120.99134,121.25692,0,0,0,0,0,0,0,0,0,0,0,0,-0.015366912,0.02064958,-0.0017730647,-0.0028446356,2.0041292,1.4725633,1.4061197,1.3633257,0.006502714,0.0061668083,-0.0023932755,-0.0009180717,85,4,132,2,10,737.2255,176.35353,-1427.9991,50.498684,173205.25,316.2052,146.85596,147.43024,138.42395,138.42395,1.9512682,1,350.6786,0,0,13.407698,13.407708,0,8,150,255,0,0,4,0,247,0
True,39219656,9499.995,1203.1134,4526.478,-0.010230899,0.08589535,-25.359467,0.050763845,0.36759812,47.69976,-0.012423098,-0.006962391,-0.0076779,1.5079471,0.036031093,-0.0005537552,0.66585714,0.66132146,0.34411675,0.35678828,-2.1420755,-1.6049942,-2.3417888,-2.166167,103.0762,112.2361,100.13561,102.74826,0,0,0,0,0,0,0,0,0,0,0,0,-0.021950576,0.009647019,-0.013533515,-0.008496321,2.142188,1.6050231,2.3418279,2.1661835,0.010651141,0.010388497,-0.008001439,-0.007267259,85,4,132,2,10,742.43066,176.20293,-1427.6771,47.7012,-47834.42,-100.92159,153.38191,150.5623,140.81967,140.81967,-7.2071557,1,354.05206,0,0,13.513995,13.514006,0,8,83,255,0,0,4,0,249,0
True,39219765,9499.995,1203.1134,4524.7153,-0.051151752,-0.3630731,-23.747665,0.043057203,0.2308353,45.0637,-0.002525037,0.00787847,0.006502429,1.507931,0.03403347,-6.358836E-05,0.61680114,0.6402877,0.34088236,0.3196724,-3.2629454,-1.8637865,-1.4526039,-2.1923556,81.6158,97.631744,106.9616,98.52499,0,0,0,0,0,0,0,0,0,0,0,0,-0.029251842,0.0067603933,-0.010318796,-0.0036394587,3.2630765,1.8637987,1.4526407,2.1923587,0.007810507,0.009170517,-0.008188836,-0.009417728,85,4,132,2,10,747.5348,176.05751,-1427.3611,45.064312,233534.06,497.12814,157.30388,153.73607,144.37729,144.37729,-6.2318497,1,357.35995,0,0,13.624462,13.624473,0,8,1,255,0,0,3,0,251,255
True,39219890,9499.995,1203.1134,6798.554,-0.004156947,1.2449665,-25.637543,-0.027967691,0.29467785,41.88289,-0.05302479,0.0062457398,0.026518956,1.5096117,0.03275207,0.0015546208,0.67665714,0.69395053,0.36667854,0.35791448,-0.61351556,-0.46988234,-2.0948124,-1.9051052,113.9672,111.41722,91.25399,93.655045,0,0,0,0,0,0,0,0,0,0,0,0,-0.013735345,0.015642064,0.0033150816,0.007979116,0.6136693,0.47014263,2.094815,1.9051219,0.0112765245,0.012277916,-0.0066942237,-0.007202007,85,4,132,2,10,753.0666,175.89995,-1427.0181,41.883934,484312.22,685.5452,164.79611,158.19641,147.31734,147.31734,6.4367647,1,360.94507,0,0,13.751905,13.751917,0,8,0,255,0,0,3,0,254,249
True,39220015,9499.995,1203.1134,5764.553,0.11474836,1.2741976,-25.492002,-0.018241167,0.18524918,38.342815,-0.021782735,-0.013102376,0.0017010674,1.5097355,0.024787154,0.0032004062,0.524633,0.49644756,0.39604732,0.38318336,-2.521296,-0.21848816,-0.92048407,-0.9549617,75.62378,106.93809,95.473145,98.88687,0,0,0,0,0,0,0,0,0,0,0,0,-0.008432575,0.024123335,-0.00047846438,0.0021377264,2.52131,0.21981585,0.9204842,0.9549641,0.0024734214,0.00084131956,-0.0049926154,-0.0057379454,85,4,132,2,10,758.16736,175.78822,-1426.7026,38.343273,-59383.81,-97.950195,166.0888,159.58559,148.6995,148.6995,-5.5100613,1,364.25388,0,0,13.879735,13.8797455,0,8,0,255,0,0,3,0,1,239
True,39220125,9499.995,1203.1134,5294.4976,-2.583455,0.65691483,-26.537048,-0.10563326,0.23750387,36.06122,0.002861547,-0.06434205,-0.035723332,1.5070002,0.025297845,0.0017920539,0.6136666,0.60112935,0.20055112,0.20014426,-0.24559464,-1.3439922,-2.1751878,-0.811874,99.29116,87.586395,78.36331,93.7165,0,0,0,0,0,0,0,0,0,0,0,0,-0.3394753,-0.29075244,-2.6977443E-05,0.014579883,0.41899905,1.3750826,2.1751878,0.81200486,0.0076289997,0.006903019,-0.016319536,-0.01634311,85,4,132,2,10,761.6341,175.72041,-1426.484,36.062157,-68558.77,-123.897644,167.06203,160.0961,149.12253,149.12253,-9.608994,1,366.50034,0,0,13.973226,13.973236,0,8,0,255,0,0,3,-88,3,228
True,39220218,9499.995,1203.1134,5214.3496,-6.7449083,2.3490536,-21.924864,-0.33945346,0.16506273,33.893063,-0.14899579,-0.26130193,-0.015178036,1.4916469,0.015113894,-0.0021088298,0.7006737,0.73278046,0.3256152,0.3744204,-0.6298147,-0.648456,-1.2360116,-0.7568119,89.695045,87.14413,83.93344,88.939926,0,0,0,0,0,0,0,0,0,0,0,0,-0.60384023,-0.48251146,-0.0043029236,0.0025809384,0.87251914,0.8082774,1.2360191,0.7568163,0.012667228,0.014526401,-0.009073406,-0.0062456653,85,4,132,2,10,764.9324,175.67445,-1426.2263,33.89516,-66486.95,-121.787796,165.62592,159.2826,151.60028,151.60028,-10.692961,1,368.6389,0,0,14.067972,14.067983,0,8,0,255,0,0,3,-127,6,216
True,39220328,9499.995,1203.1134,4707.4976,-6.6390896,0.43279457,-18.561863,0.17373705,0.010326373,31.667822,0.030294962,-0.3809285,0.003511407,1.4540311,0.009855758,-0.0032546625,0.6287861,0.67747575,0.5665486,0.62664247,-2.5521986,-1.2853577,-1.2097628,-0.29143438,62.587208,77.40445,77.55921,87.77713,0,0,0,0,0,0,0,0,0,0,0,0,-0.40826577,-0.3357796,-0.19524272,-0.19335413,2.5846467,1.3284925,1.2254165,0.3497425,0.008504506,0.011323929,0.004886113,0.008367915,85,4,132,2,10,768.6127,175.63927,-1425.8557,31.668299,-53039.496,-107.09425,164.03761,158.30957,151.14539,151.14539,-10.966204,1,371.02753,0,0,14.181065,14.181074,0,8,0,184,0,0,3,0,11,237
True,39220437,9499.995,1203.1134,5236.2627,-6.1913023,0.007097981,-6.974604,0.58166885,0.032685973,30.85015,-0.028246738,-0.20122294,-0.02246685,1.4201782,0.010804666,-0.004385276,0.6472729,0.6717922,0.5459499,0.597351,-0.020516077,-0.012398364,-0.05974123,-0.027602697,87.3109,88.33693,86.634056,87.87777,0,0,0,0,0,0,0,0,0,0,0,0,-0.102953285,-0.057878204,-0.25431827,-0.23879169,0.104977556,0.059191264,0.26124087,0.24038173,0.009575002,0.010994818,0.0036926381,0.006670788,85,4,132,2,10,772.08795,175.6046,-1425.4377,30.855646,-67185.445,-122.509125,164.07407,157.15375,150.37198,150.37198,-11.01452,1,373.28503,0,0,14.293739,14.293749,0,8,0,0,0,0,3,0,17,0
True,39220562,9499.995,1203.1134,5198.974,-7.591281,-0.0067767873,-2.609848,0.22881317,-0.03265921,30.628353,-0.0005880018,-0.12971693,-0.015804686,1.404825,0.008479987,-0.0067875376,0.55918217,0.6405221,0.54926205,0.6255059,-0.02271578,-0.014600288,-0.04217304,-0.024751721,86.739235,87.43496,86.3014,87.07268,0,0,0,0,0,0,0,0,0,0,0,0,-0.33795607,-0.27245918,-0.117658354,-0.115764834,0.33871862,0.2728501,0.12498821,0.11838135,0.004474025,0.009184092,0.0038845427,0.008302063,85,4,132,2,10,775.6009,175.57027,-1424.9229,30.629225,-66100.07,-121.39499,162.23595,155.77704,149.41257,149.41257,-11.023211,1,375.60815,0,0,14.409251,14.409261,0,8,0,0,0,0,3,-127,24,35
True,39220687,9499.995,1203.1134,4975.6694,-8.697628,-0.05816062,-4.794506,-0.0005893707,-0.023309361,30.172617,0.0075300047,-0.3257676,-0.012242303,1.3786327,0.008933891,-0.0088229515,0.47772813,0.62100995,0.5017149,0.6026281,-0.600429,-0.3021835,-0.26230922,-0.11986174,79.65132,83.428825,82.38599,85.24458,0,0,0,0,0,0,0,0,0,0,0,0,-0.66348726,-0.54358894,-0.13546143,-0.12674996,0.89483535,0.62193555,0.2952218,0.17444882,-0.00024264678,0.008054223,0.0011296943,0.0069765374,85,4,132,2,10,779.1408,175.5353,-1424.2971,30.172626,-60017.535,-115.021515,160.62592,154.62404,148.46817,148.46817,-11.024706,1,377.93243,0,0,14.527206,14.527216,0,8,0,97,0,0,3,-127,37,244
True,39220796,9499.995,1203.1134,4425.9766,-10.437722,0.367471,-14.278162,0.20994806,0.04949224,28.571,0.012977961,-0.48870215,-0.0021098733,1.3376553,0.009887862,-0.010026446,0.49845013,0.6679279,0.42069972,0.55675024,-0.4758461,-0.9158193,-1.0989615,-0.5777923,75.894295,71.58094,71.02061,76.95394,0,0,0,0,0,0,0,0,0,0,0,0,-0.96121365,-0.7703441,-0.29272094,-0.2618938,1.0725489,1.1967268,1.1372783,0.6343755,0.0009572804,0.010771051,-0.003564272,0.004318405,85,4,132,2,10,782.021,175.50818,-1423.6871,28.571814,-45730.75,-98.457306,159.75684,153.97266,148.25998,148.25998,-11.024937,1,379.83008,0,0,14.627366,14.627377,0,8,0,255,0,0,3,-127,50,158
True,39220906,9499.995,1203.1134,4131.8457,-13.000408,0.0030358285,-14.823902,0.686543,0.09343645,26.729752,0.004024722,-0.6179634,-0.01735753,1.2713139,0.010274107,-0.011597158,0.49536157,0.66488135,0.35632083,0.50428474,-0.71740496,-0.22639892,-1.5806825,-0.3330953,68.61717,75.037796,62.181698,74.49265,0,0,0,0,0,0,0,0,0,0,0,0,-1.1725541,-0.93738407,-0.5557648,-0.4744089,1.3746102,0.96433675,1.6755393,0.5796691,0.00077843294,0.010594636,-0.007294342,0.0012785867,85,4,132,2,10,785.18195,175.48395,-1422.8832,26.738728,-38634.145,-89.14693,159.40482,153.6982,148.89095,148.89095,-11.024989,1,381.92154,0,0,14.745599,14.745608,0,8,0,155,0,0,3,-127,64,184
True,39221015,9499.995,1203.1134,4522.7524,-15.077061,-0.15772986,-6.2250485,0.932899,0.05729665,26.054525,-0.02176144,-0.6995165,-0.021942548,1.205675,0.008694496,-0.014285054,0.4248533,0.65749174,0.3237798,0.48844087,0.008823244,0.004039538,-0.022431405,0.0009443927,72.07955,75.45065,72.23892,75.74385,0,0,0,0,0,0,0,0,0,0,0,0,-1.2708355,-0.9882565,-0.7072997,-0.5792967,1.2708662,0.9882648,0.7076553,0.5792975,-0.0033044145,0.010166734,-0.009179749,0.00036060438,85,4,132,2,10,787.6616,175.46588,-1422.1139,26.071283,247752.81,528.0734,159.11183,153.31705,149.35416,149.35416,-3.8001308,1,383.57135,0,0,14.844392,14.8444,0,8,0,0,0,0,2,-127,76,0
True,39221125,9499.995,1203.1134,6753.162,-16.403221,-0.5292729,-1.2544837,1.1590853,-0.022323884,25.827374,0.021027872,-0.66046554,-0.0077048102,1.1214254,0.006538351,-0.016632937,0.32022098,0.61554563,0.33905983,0.5600822,0.024573965,0.0079975175,0.008098905,0.0027936778,71.46765,74.59987,71.81454,74.96538,0,0,0,0,0,0,0,0,0,0,0,0,-1.3932886,-1.1029515,-0.77831376,-0.6350638,1.3935053,1.1029805,0.7783559,0.63506997,-0.009363249,0.007737804,-0.008294433,0.004511457,85,4,132,2,10,790.63116,175.44205,-1420.9698,25.85338,484373.53,688.391,158.57544,152.91148,148.70154,148.70154,6.5910254,1,385.56174,0,0,14.967013,14.967023,0,8,0,0,0,0,2,-127,88,0
True,39221234,9499.995,1203.1134,7030.4644,-16.070538,-0.73304725,-0.35599566,1.2371969,-0.0042992383,25.64989,0.035395876,-0.6280254,-0.0026229238,1.0575145,0.009025368,-0.017633336,0.28553534,0.6143833,0.32838804,0.5570957,0.06537054,0.0046926155,0.09651353,0.00087657385,71.2403,73.92467,71.95106,74.33882,0,0,0,0,0,0,0,0,0,0,0,0,-1.4319167,-1.1221292,-0.8045285,-0.6661104,1.4334081,1.1221391,0.81029683,0.666111,-0.011371754,0.0076704994,-0.00891275,0.004338421,85,4,132,2,10,792.9675,175.4188,-1419.8823,25.679714,-61666.883,-83.71095,158.4657,152.9245,148.23773,148.23773,-3.0353374,1,388.3437,0,0,15.067072,15.067081,0,8,0,0,0,0,2,-127,93,0
True,39221343,9499.995,1203.1134,6813.014,-16.449242,-0.14571406,-2.090228,1.2199183,0.01488021,25.33003,-0.011523139,-0.6715084,0.015501834,0.99505484,0.009109651,-0.01804801,0.31050688,0.67933613,0.30390385,0.54326904,-0.17299558,-0.036249813,-0.2686161,-0.062236674,68.59586,72.83385,68.36696,73.04248,0,0,0,0,0,0,0,0,0,0,0,0,-1.4166247,-1.0595298,-0.8245244,-0.688229,1.4271486,1.0601498,0.8671765,0.69103736,-0.009925753,0.011431657,-0.010331348,0.0035373122,85,4,132,2,10,795.1325,175.39409,-1418.709,25.359396,-121707.125,-170.52592,158.45038,153.12726,147.8289,147.8289,-8.756443,1,389.95123,0,0,15.163516,15.163527,0,8,0,0,0,0,2,-127,94,0
True,39221453,9499.995,1203.1134,6646.013,-17.040775,-0.37524125,-3.1429954,1.2656488,-0.023402609,24.786665,0.028832922,-0.6508622,0.019424642,0.91580284,0.007716551,-0.016305612,0.24424289,0.65279657,0.33499116,0.607932,-0.23741722,-0.047024764,-0.3040478,-0.05896888,66.64032,71.10672,66.60796,71.43701,0,0,0,0,0,0,0,0,0,0,0,0,-1.4518596,-1.1289046,-0.85318035,-0.7010071,1.4711435,1.1298835,0.90573823,0.703483,-0.013762832,0.009894855,-0.00853017,0.0072838403,85,4,132,2,10,797.6385,175.36685,-1417.1141,24.81897,-115182.445,-165.41096,158.43848,153.30258,147.41687,147.41687,-10.654919,1,391.8991,0,0,15.281983,15.281993,0,8,0,0,0,0,2,-127,91,0
True,39221562,9499.995,1203.1134,6488.205,-16.22445,-0.56508124,-3.040759,1.2759466,0.016390234,24.245832,0.039891325,-0.6573907,0.02352741,0.83821934,0.011376704,-0.014063458,0.23896022,0.6631891,0.2962598,0.55535626,-0.24167402,-0.04682375,-0.33634725,-0.07546977,65.08069,69.58427,64.88542,69.79278,0,0,0,0,0,0,0,0,0,0,0,0,-1.4623783,-1.1208843,-0.8801654,-0.7410535,1.4822134,1.1218619,0.9422423,0.7448866,-0.01406873,0.010496646,-0.01077424,0.004237637,85,4,132,2,10,799.9841,175.33649,-1415.3579,24.279388,-109161.96,-160.61938,158.56285,153.62639,147.05765,147.05765,-10.965475,1,393.8195,0,0,15.401395,15.401405,0,8,0,0,0,0,2,-127,82,0
True,39221687,9499.995,1203.1134,6384.9077,-15.528299,-0.9540825,-2.8827586,1.3335705,0.019029949,23.822395,0.05398304,-0.65848064,0.015660545,0.77460533,0.015106615,-0.012861853,0.21349767,0.6178881,0.2710129,0.54334825,-0.16758978,-0.039909206,-0.35152584,-0.054696467,64.39329,68.42684,63.63517,68.75784,0,0,0,0,0,0,0,0,0,0,0,0,-1.4565018,-1.1575074,-0.9312947,-0.76364625,1.4661118,1.1581953,0.9954297,0.7656025,-0.015543163,0.0078734495,-0.012237027,0.0035419017,85,4,132,2,10,801.74664,175.30559,-1413.8408,23.8597,-70268.93,-105.08037,158.71156,153.9164,146.81401,146.81401,-10.560544,1,396.6125,0,0,15.498071,15.498082,0,8,25,0,0,0,2,-127,73,0
True,39221796,9499.995,1203.1134,6507.9404,-16.762012,-0.21212925,-1.4648724,1.283329,0.047876805,23.439379,-0.028009083,-0.71377265,0.014537091,0.69330525,0.016748099,-0.012499619,0.3233387,0.66877663,0.22084409,0.49376202,0.21477184,0.0078169415,0.3982756,-0.036798358,65.92735,67.994095,67.59325,68.038185,0,0,0,0,0,0,0,0,0,0,0,0,-1.4114147,-1.0811666,-0.9559827,-0.7795599,1.4276619,1.0811949,1.0356284,0.78042793,-0.009182714,0.010820199,-0.015143774,0.0006689094,85,4,132,2,10,803.73926,175.26167,-1411.8638,23.474531,22054.676,32.3632,158.94238,154.36134,146.54713,146.54713,-6.421623,1,398.28183,0,0,15.616835,15.616846,0,8,72,0,0,0,2,-127,59,0
True,39221906,9499.995,1203.1134,6469.8755,-17.3593,0.19837262,-0.14414406,1.1839876,-0.036211986,23.299915,-0.038265515,-0.6711747,0.017045587,0.6201885,0.011319774,-0.011670644,0.23538674,0.668254,0.31754097,0.5641744,0.31267112,0.022765713,0.33916405,-0.040844325,66.23974,67.62375,67.068214,67.42796,0,0,0,0,0,0,0,0,0,0,0,0,-1.4487963,-1.0979446,-0.8669877,-0.71858275,1.4821519,1.0981807,0.9309672,0.71974266,-0.014275655,0.010789935,-0.009541221,0.0047485568,85,4,132,2,10,805.3255,175.22652,-1410.0133,23.33001,24189.56,35.703896,159.0549,154.64027,146.38446,146.38446,-5.7674885,1,399.78162,0,0,15.721038,15.721048,0,8,72,0,0,0,2,-127,42,0
True,39222015,9499.995,1203.1134,6654.5312,-17.006577,0.17592596,2.0578265,0.88825417,-0.057441346,23.400555,-0.00044451468,-0.58961195,0.025458869,0.54510677,0.008854338,-0.010467043,0.22152843,0.6428334,0.33745924,0.65929824,0.6155033,0.16291077,0.6067046,0.13956776,68.849785,68.87188,69.228035,69.08907,0,0,0,0,0,0,0,0,0,0,0,0,-1.347932,-1.065782,-0.707711,-0.57785577,1.4818114,1.078161,0.93217236,0.5944716,-0.015078135,0.009317931,-0.008387171,0.010259967,85,4,132,2,10,806.979,175.19104,-1407.725,23.417477,200270.28,287.52808,159.29262,154.82819,146.21371,146.21371,-1.1777353,1,401.56714,0,0,15.84208,15.842092,0,8,153,0,0,0,2,-127,19,0
True,39222125,9499.995,1203.1134,7016.5146,-11.650541,-1.1203519,5.1401234,0.8964462,-0.130366,23.979006,0.07849711,-0.50755596,0.018074224,0.48037615,0.011220774,-0.008367921,0.2568794,0.6394449,0.36564,0.64928955,1.1799868,0.4373596,0.85169524,0.35726547,74.37562,72.22139,72.90167,72.28711,0,0,0,0,0,0,0,0,0,0,0,0,-1.4038486,-1.1583896,-0.6346018,-0.5360238,1.833892,1.2382042,1.0621225,0.644174,-0.013031103,0.009121716,-0.0067543946,0.00968007,85,4,132,2,10,808.40295,175.1539,-1405.3875,23.99611,313682.47,427.15295,160.05002,154.89433,146.11794,146.11794,4.236392,1,403.33154,0,0,15.957712,15.957725,0,8,199,0,0,0,2,-127,252,0
True,39222234,9499.995,1203.1134,7255.889,-14.709283,-0.21303487,7.011292,0.79451656,-0.07355057,24.554043,-0.09244353,-0.63444483,0.024263898,0.42734846,0.012130083,-0.0060787317,0.43333426,0.6731965,0.4205746,0.6612753,1.2833762,0.16907004,0.9070202,0.5453953,76.28351,72.92932,75.477196,75.78931,0,0,0,0,0,0,0,0,0,0,0,0,-1.1409022,-0.9582921,-0.6353661,-0.6131134,1.7171816,0.9730922,1.1074185,0.82058764,-0.0028133169,0.011076134,-0.0035715215,0.01037452,85,4,132,2,10,809.4841,175.11835,-1403.3448,24.567003,306711.12,403.67865,161.06825,155.09535,146.10228,146.10228,5.7370443,1,404.5438,0,0,16.05277,16.052784,0,8,199,0,0,0,2,-127,231,0
True,39222359,9499.995,1203.1134,7017.5425,-18.199306,1.6797878,0.7863312,0.47737265,-0.11580629,24.20582,0.014981113,-0.6101197,0.014630416,0.34933597,0.0024450982,-0.0039427537,0.30460298,0.53480613,0.6287763,0.72998846,0.8384852,0.53672564,0.6730671,0.26556402,73.22625,74.099686,72.279724,72.59684,0,0,0,0,0,0,0,0,0,0,0,0,-1.1351789,-0.9649979,-0.47393227,-0.4059266,1.4112719,1.104217,0.82318354,0.485078,-0.010267623,0.003062509,0.008491546,0.014355712,85,4,132,2,10,810.64655,175.0808,-1400.6951,24.210802,344901.9,468.98856,162.40955,155.10568,146.35571,146.35571,6.1372023,1,406.18594,0,0,16.172289,16.1723,0,8,201,0,0,0,2,-127,206,0
True,39222453,9499.995,1203.1134,7284.856,-14.460394,-0.0397131,6.5846615,0.62582254,-0.071036726,24.910465,-0.011492095,-0.6561677,-0.039350256,0.287926,0.004594612,-0.006336714,0.3366278,0.47225916,0.4392036,0.603366,0.88040334,0.30686435,0.9727448,0.35413536,75.40919,74.71494,76.24021,75.4814,0,0,0,0,0,0,0,0,0,0,0,0,-1.1753259,-0.946433,-0.5846325,-0.48466197,1.468503,0.9949378,1.1349131,0.6002575,-0.008413196,-0.0005593337,-0.0024921708,0.0070192926,85,4,132,2,10,811.4659,175.06488,-1398.3728,24.918425,352863.72,462.76514,162.54977,154.96365,146.34724,146.34724,6.2878695,1,407.63654,0,0,16.272446,16.272459,0,8,201,0,0,0,2,-127,185,0
True,39222562,9499.995,1203.1134,7482.246,-15.222073,0.23140363,7.9597335,0.8879795,-0.15434885,25.58257,-0.06505189,-0.71189445,-0.032498453,0.21967737,-0.0004525475,-0.009916054,0.29092556,0.5203598,0.4390386,0.59623724,1.0995058,0.29018363,0.8960057,0.3071021,78.87156,76.70159,77.85869,77.32287,0,0,0,0,0,0,0,0,0,0,0,0,-1.2774236,-0.99210066,-0.678921,-0.55722904,1.6854447,1.0336684,1.1241708,0.63625145,-0.011059627,0.0022259802,-0.0025017299,0.0066062547,85,4,132,2,10,812.16156,175.04715,-1395.9829,25.59844,360550.1,460.4673,162.95963,154.88058,146.41016,146.41016,6.6076956,1,409.13806,0,0,16.370972,16.370989,0,8,201,0,0,0,2,-127,164,0
True,39222671,9499.995,1203.1134,7668.4243,-16.830551,1.5484947,8.398901,0.98696756,-0.14056519,26.277653,-0.0610403,-0.6953513,-0.020973753,0.14783788,-0.007841795,-0.011460246,0.30312422,0.18870935,0.48096755,0.6719423,1.0066361,0.36276776,0.8679477,0.2807844,80.27729,79.2836,79.82252,79.16536,0,0,0,0,0,0,0,0,0,0.120000005,0,0,-1.2991529,-1.1058311,-0.6963519,-0.55516666,1.6435068,1.163814,1.112762,0.6221333,-0.010353252,-0.016978554,-7.239357E-05,0.010992557,85,4,132,2,10,812.7366,175.04199,-1393.3988,26.296556,382417.47,476.56088,163.85255,154.6988,146.5027,146.5027,7.007659,1,410.7717,0,0,16.472977,16.472994,0,8,203,0,0,0,2,-127,144,0
True,39222781,9499.995,1203.1134,8042.553,-14.30209,-0.4827712,6.7787695,1.4197472,-0.20688924,27.010197,-0.081874944,-0.7441085,-0.2001931,0.061859585,-0.011178587,-0.022305587,0.50657094,0.28410983,0.44527572,0.42520145,0.6750391,0.3052448,1.2803804,0.7072142,80.32567,81.09973,85.27439,84.26099,0,0,0,0,0,0,0,0,0,0.120000005,0,0.120000005,-1.199934,-1.0120034,-0.8603122,-0.7847201,1.3767787,1.057036,1.5425663,1.0563794,0.0014275238,-0.011454299,-0.0021403544,-0.0033034459,85,4,132,2,10,813.2383,175.05089,-1390.0406,27.048275,399192.03,474.82437,164.62094,154.52106,146.91414,146.91414,8.207759,1,412.90887,0,0,16.600216,16.600233,0,8,217,0,0,0,2,-9,129,0
True,39222890,9499.995,1203.1134,8209.382,-14.519814,1.5595524,8.742555,1.8827547,-0.13695472,26.113092,-0.12456233,-0.5797643,-0.08340546,-0.021967443,-0.023856506,-0.03573331,0.21378396,0.64363134,0.6184988,0.63844687,1.1370088,0.11260757,0.7253395,0.45997852,87.92214,82.56553,84.82722,85.531425,0,0,0,0,0,0,0,0,0.120000005,0.120000005,0.120000005,0.120000005,-0.37039775,-0.24571978,-0.7829482,-0.7635938,1.1958191,0.27029368,1.067298,0.8914346,-0.015526585,0.009364136,0.007896077,0.009051852,85,4,132,2,10,813.4976,175.08084,-1386.6506,26.181236,419800.7,488.4897,163.70264,154.06148,147.81577,147.81577,9.814826,1,415.08072,0,0,16.72368,16.723698,0,8,226,0,0,0,2,0,129,0
True,39223000,9499.995,1203.1134,7481.92,-17.14629,2.298213,-6.673792,1.5598154,-0.08152044,24.956732,0.06525928,-0.38075063,0.14989753,-0.06968181,-0.027769255,-0.032091077,0.068620905,0.5141386,0.30740428,0.72700286,1.2951356,0.3861909,1.0842719,0.5695452,79.57025,75.237236,78.67807,76.854416,0,0,0,0,0,0,0,0,0.120000005,0.120000005,0.120000005,0.120000005,-0.40408155,-0.387934,-0.79325485,-0.6066609,1.3567085,0.54739034,1.3434652,0.83211726,-0.02393239,0.0018657334,-0.010128535,0.014182728,85,4,132,2,10,813.5657,175.1203,-1384.251,25.005562,248745.9,316.83585,163.62923,153.83829,148.77667,148.77667,9.891168,1,416.6247,0,0,16.820856,16.820873,0,8,230,0,0,0,2,-3,129,0
True,39223109,9499.995,1203.1134,7593.9214,-13.298988,0.37035948,7.6625156,1.3585246,-0.26391053,25.895567,-0.06621275,-0.40793192,0.079429284,-0.116910644,-0.03359759,-0.02697219,0.2350162,0.55063844,0.22130175,0.6691168,1.1039492,0.21116218,0.81905824,0.34142688,81.868515,76.48671,78.57842,78.70238,0,0,0,0,0,0,0,0,0.120000005,0.120000005,0.120000005,0.120000005,-0.8385959,-0.5781516,-0.62073267,-0.517522,1.386343,0.6155069,1.0276991,0.6200011,-0.014297113,0.0039792918,-0.015117258,0.010828849,85,4,132,2,10,813.4567,175.18402,-1381.28,25.93252,432280.22,542.7295,162.82918,153.30438,148.72107,148.72107,10.156903,1,418.4644,0,0,16.937683,16.937698,0,8,242,0,0,0,2,-127,129,0
True,39223218,9499.995,1203.1134,7798.049,-11.260451,1.6833729,9.059204,0.7235997,-0.108436406,27.004969,-0.08176772,-0.30303913,0.16628477,-0.15712722,-0.04230763,-0.019528404,0.20792241,0.6280767,0.53264475,0.6859411,0.29446667,0.24018379,0.85994077,0.2236032,78.3714,80.15086,82.873116,80.56329,0,0,0,0,0,0,0,0,0.120000005,0.120000005,0.120000005,0.120000005,-0.1252708,-0.09400766,-0.43341544,-0.25243992,0.3200053,0.25792575,0.9629886,0.33723035,-0.015866004,0.008463427,0.002921749,0.011803638,85,4,132,2,10,813.14124,175.27914,-1378.2562,27.01488,514028.56,629.14594,162.20142,152.88016,148.53113,148.53113,11.826825,1,420.4313,0,0,17.052795,17.05281,0,8,255,0,0,0,2,0,129,0
True,39223359,9499.995,1203.1134,8015.09,-9.319257,2.6550066,11.588228,0.42811537,-0.08039439,28.1113,-0.01425842,-0.12445382,-0.051345598,-0.18116899,-0.04738393,-0.013086178,0.2670971,0.33066076,0.5037029,0.6876949,0.30140606,0.3520877,0.45363602,0.2546473,82.888756,82.816536,83.78141,82.89767,0,0,0,0,0,0,0,0,0.120000005,0.120000005,0.120000005,0.120000005,-0.09213206,-0.049006186,-0.17414981,-0.15445761,0.31517285,0.35548186,0.48591542,0.2978295,-0.012439437,-0.008758724,0.0012448765,0.011905253,85,4,132,2,10,812.674,175.4034,-1375.145,28.114672,555925.2,662.1631,161.26627,152.38344,148.28427,148.28427,12.54057,1,422.46576,0,0,17.167278,17.167292,0,8,255,0,0,0,2,0,129,0
True,39223453,9499.995,1203.1134,8205.541,-0.5790715,3.4204843,9.969654,0.6363392,-0.07096267,28.93763,-0.12329819,0.0032463358,0.025109265,-0.18879873,-0.04997749,-0.009324568,0.40940222,0.67764103,0.57032895,0.55035466,0.20528014,0.11723616,0.35159355,0.3147764,84.564064,83.96133,85.470695,85.69563,0,0,0,0,0,0,0,0,0.120000005,0.120000005,0.120000005,0.120000005,0.28619167,0.2887403,-0.17080456,-0.17955306,0.3522011,0.31163323,0.39088646,0.36238584,-0.004199125,0.011333499,0.0051051453,0.0039478503,85,4,132,2,10,812.1922,175.51903,-1372.3385,28.944712,587751.25,684.2841,160.48122,151.97273,148.0855,148.0855,13.012382,1,424.30545,0,0,17.267443,17.267456,0,8,255,0,0,0,2,127,129,0
True,39223578,9499.995,1203.1134,8674.417,2.755682,3.2811315,8.346392,0.45577955,-0.1431303,29.907581,0.015913928,0.2648031,0.20818405,-0.17008029,-0.06279945,8.8727094E-05,0.61234474,0.2864014,0.6569174,0.75867313,0.24983104,0.7360374,0.6529967,0.5108273,88.203865,90.86952,91.15692,89.35724,0,0,0,0,0,0,0,0,0.120000005,0.120000005,0.120000005,0.120000005,0.5187545,0.6609503,-0.06980578,-0.059246607,0.57577926,0.98924536,0.65671724,0.5142516,0.007552456,-0.011321604,0.0101220235,0.016017683,85,4,132,2,10,811.6068,175.70328,-1368.7439,29.911396,514034.03,566.6745,159.59421,151.73297,147.84341,147.84341,13.645076,1,426.66037,0,0,17.391357,17.391369,0,8,255,0,0,0,2,101,129,0
True,39223687,9499.995,1203.1134,8897.223,2.0458517,-0.13107231,6.8226027,-0.23300648,-0.16351211,30.678833,0.005583197,0.28873426,-0.02910356,-0.13922556,-0.061176803,0.0025805265,0.27264225,0.5866471,0.6736141,0.39393154,0.07452292,0.82145023,0.6924685,0.50360525,88.96885,94.486725,94.098625,91.15459,0,0,0,0,0,0,0,0,0.120000005,0.120000005,0.120000005,0.120000005,-0.064522415,-0.03231951,0.2068263,0.17592952,0.09857387,0.8220858,0.7226962,0.5334505,-0.01211834,0.0060644075,0.011089418,-0.0051152036,85,4,132,2,10,811.1664,175.87466,-1365.825,30.680151,432500.94,464.7478,158.94641,151.47539,147.68176,147.68176,14.179055,1,428.571,0,0,17.48884,17.488852,0,8,255,0,0,0,2,0,129,0
True,39223796,9499.995,1203.1134,8072.5254,4.0236297,-0.17035668,0.7970059,-0.3161862,-0.38016796,30.740158,-0.060649436,0.078239724,0.027195983,-0.118997924,-0.07457658,0.00306291,0.57365495,0.41069093,0.63728976,0.5941699,0.036987036,0.0018893804,0.003491192,0.002157355,88.18155,87.53044,87.6166,87.21483,0,0,0,0,0,0,0,0,0.120000005,0.120000005,0.120000005,0.120000005,0.041654125,0.07262353,0.11359832,0.10383874,0.05570554,0.0726481,0.11365195,0.103861146,0.005312085,-0.0041245,0.008984812,0.0064864755,85,4,132,2,10,810.68036,176.08931,-1362.3419,30.744135,-177138.38,-209.12163,158.1762,151.16425,147.45358,147.45358,-6.652622,1,430.79742,0,0,17.60325,17.60326,0,8,255,0,0,0,2,0,129,0
True,39223906,9499.995,1203.1134,7385.39,1.4258138,0.3717082,-0.9073558,-0.17994714,0.0366652,30.618664,0.04916717,-0.030734956,-0.029188782,-0.116195485,-0.06963463,-0.0007569194,0.5613175,0.37733892,0.4308234,0.40370148,0.017064434,0.017423736,0.04650034,0.023945823,87.35527,87.495094,87.39752,87.35033,0,0,0,0,0,0,0,0,0.120000005,0.120000005,0.120000005,0.120000005,-0.14694497,-0.11895517,0.041196395,0.040968027,0.14793248,0.12022445,0.062124267,0.04745294,0.004597675,-0.0060557798,-0.002977714,-0.0045491382,85,4,132,2,10,810.2566,176.33537,-1358.8927,30.619213,-94550.56,-121.87928,157.41971,150.87897,147.24432,147.24432,-9.962613,1,433.05038,0,0,17.716833,17.716843,0,8,255,0,0,0,3,-88,129,0
True,39224015,9499.995,1203.1134,5673.3516,-3.2628958,1.2172269,6.297035,-0.22272587,-0.15363693,31.382807,-0.121419266,-0.19785938,-0.07675855,-0.13059938,-0.078863874,-0.0018147753,0.58328944,0.6203599,0.61822546,0.41062704,1.0063747,0.81404054,0.27412808,0.13486901,97.51346,96.78274,92.207214,91.1109,0,0,0,0,0,0,0,0,0.120000005,0.120000005,0.120000005,0.120000005,-0.6032813,-0.5078165,0.0025705176,0.0036518606,1.173345,0.95944756,0.27414015,0.13491845,0.005869981,0.008016579,0.007880237,-0.004147876,85,4,132,2,10,809.8159,176.58052,-1355.5399,31.383974,221303.16,372.23224,156.80719,150.66595,147.0908,147.0908,-1.5818958,1,435.2429,0,0,17.826475,17.826483,0,8,255,0,0,0,3,-127,129,0
True,39224109,9499.995,1203.1134,5802.438,-7.0723324,0.9803659,4.597877,-0.11134529,-0.20682263,31.811384,-0.030233365,-0.36281237,0.030749308,-0.15607117,-0.08487075,-0.0015581804,0.44578394,0.39736566,0.6304979,0.6629716,0.8502963,0.1345364,1.0886143,0.46503896,97.623344,93.0774,100.108894,95.12904,0,0,0,0,0,0,0,0,0.120000005,0.120000005,0.120000005,0.120000005,-0.9354585,-0.66482335,-0.12392857,-0.11476903,1.2641544,0.6782994,1.0956458,0.4789918,-0.0020924062,-0.004896112,0.008591294,0.010472801,85,4,132,2,10,809.3922,176.8016,-1352.7161,31.81225,383650.9,633.0457,156.36792,150.53941,146.96812,146.96812,5.3535967,1,437.0943,0,0,17.916948,17.916954,0,8,255,0,0,0,3,-127,129,0
True,39224218,9499.995,1203.1134,5779.8545,-7.4757657,1.983272,7.690338,0.48529148,-0.253546,32.58363,-0.16348015,-0.4113142,-0.13202575,-0.20269361,-0.09113635,-0.0044427095,0.7718106,0.40132153,0.4749948,0.69636595,0.10885441,0.15600304,0.6928193,0.27629873,93.884346,94.709595,97.88957,97.23177,0,0,0,0,0,0,0,0,0.120000005,0.120000005,0.120000005,0.120000005,0.020381883,0.05498389,-0.2530257,-0.24645525,0.11074612,0.16540912,0.7375775,0.37024474,0.016786478,-0.0046670437,-0.00041845068,0.012407646,85,4,132,2,10,808.7726,177.08301,-1349.2312,32.58823,369506.84,608.34186,156.03601,150.454,146.83727,146.83727,7.6137304,1,439.38727,0,0,18.02716,18.027166,0,8,255,0,0,0,3,0,129,0
True,39224343,9499.995,1203.1134,5850.8643,-9.2337055,2.204984,7.1845894,0.5386467,-0.08724427,33.24832,0.1629943,-0.16736464,-0.00044685602,-0.23581146,-0.093331836,-0.008259095,0.45393202,0.27831054,0.74036336,0.75556445,0.23909636,0.20015398,0.3663649,0.36396927,96.49852,97.198204,97.56325,98.64211,0,0,0,0,0,0,0,0,0,0.120000005,0,0.120000005,-0.106218606,-0.061946034,-0.2078734,-0.21683227,0.26162848,0.2095207,0.42122987,0.42366245,-0.0016205832,-0.011790112,0.014956828,0.015837569,85,4,132,2,10,808.01715,177.40794,-1345.5903,33.252792,435045.06,710.65076,155.58853,150.28362,146.74673,146.74673,8.164929,1,441.7929,0,0,18.140684,18.14069,0,8,255,0,0,0,3,0,129,0
True,39224453,9499.995,1203.1134,5974.3413,-6.815932,-1.2608012,8.499308,0.5816798,-0.19810915,33.978558,0.048582643,-0.102602914,-0.04522401,-0.25306055,-0.08696418,-0.011571524,0.46743986,0.3457835,0.5998368,0.62594056,0.22305252,0.40243694,0.33504036,0.23066407,98.80676,101.71034,100.02144,99.03648,0,0,0,0,0,0,0,0,0,0.120000005,0,0.120000005,-0.1323082,-0.103154786,-0.19261847,-0.16774257,0.25934124,0.41544724,0.38646334,0.2852078,-0.00083839893,-0.007883027,0.0068148114,0.008327246,85,4,132,2,10,807.1733,177.72264,-1341.9169,33.98411,447995.7,716.65375,155.12326,150.11047,146.78812,146.78812,8.530662,1,444.22,0,0,18.253431,18.253439,0,8,255,0,0,0,3,0,130,0
True,39224578,9499.995,1203.1134,6130.0273,2.4181905,-0.44953674,8.630591,0.8658948,-0.19544172,35.010303,0.008753416,-0.0068932073,-0.019149914,-0.26100197,-0.08378816,-0.021152275,0.5118923,0.39150193,0.63599306,0.6034595,0.30704412,0.11263714,0.30832878,0.20908692,102.97115,101.24271,102.567024,102.39873,0,0,0,0,0,0,0,0,0,0.120000005,0,0.120000005,-0.20662144,-0.14253178,-0.17757788,-0.16925462,0.37009257,0.18166572,0.3558097,0.26900643,0.0017356612,-0.005235657,0.00890968,0.0070247054,85,4,132,2,10,806.11786,178.06726,-1337.6202,35.021553,462496.34,720.6697,154.6053,149.92413,146.74861,146.74861,8.760909,1,447.0701,0,0,18.382147,18.382154,0,8,255,0,0,0,3,0,142,0
True,39224687,9499.995,1203.1134,6379.084,-2.744124,-0.64815116,7.0717025,0.27701855,-0.15294719,35.727375,0.03082274,0.05767627,0.087715,-0.25756645,-0.07969186,-0.023949541,0.3984569,0.8220169,0.692601,0.67462564,0.87696373,0.0692072,0.28915358,0.60281146,111.2933,102.63194,104.86822,107.75833,0,0,0,0,0,0,0,0,0,0,0,0.120000005,-0.14386673,-0.06026586,-0.047742743,-0.08472561,0.8886861,0.09176934,0.29306853,0.60873646,-0.0048329234,0.019693721,0.0121895075,0.011148028,85,4,132,2,10,805.1871,178.35802,-1333.8811,35.72878,437438.78,655.45935,154.26274,149.78801,146.71774,146.71774,9.086303,1,449.55093,0,0,18.49138,18.49139,0,8,255,0,0,0,3,0,152,0
True,39224781,9499.995,1203.1134,6455.2446,-0.9628792,-2.3256674,6.845989,-0.07839966,-0.19676638,36.407375,0.15101776,0.07574087,0.16123278,-0.24998906,-0.07166585,-0.010664066,0.22763342,0.62030303,0.564918,0.7696146,0.20327145,0.7691048,0.21300872,0.4794173,106.028595,111.501144,106.036644,108.63331,0,0,0,0,0,0,0,0,0,0,0,0,-0.051391732,-0.0025255226,0.026537828,0.01774945,0.20966734,0.76910895,0.21465546,0.47974575,-0.01472462,0.008013289,0.0047916397,0.016651623,85,4,132,2,10,804.2252,178.632,-1330.1405,36.407986,446793.66,662.17346,154.18773,149.6323,146.7396,146.7396,9.411439,1,452.03455,0,0,18.59877,18.598778,0,8,255,0,0,0,3,0,164,0
True,39224906,9499.995,1203.1134,6604.871,0.6144705,-4.07566,6.840058,-0.26477337,-0.2297436,37.109306,0.064188,0.06480535,0.06708543,-0.24266599,-0.059040215,-0.0008120052,0.17562109,0.36293414,0.42340833,0.5797495,0.33243275,0.32164523,0.6116808,0.3277632,109.5693,109.201035,110.689354,110.74851,0,0,0,0,0,0,0,0,0,0,0,0,0.014237972,0.057398967,0.0749335,0.076389775,0.3327375,0.32672665,0.61625355,0.33654734,-0.017736442,-0.006889902,-0.0034073368,0.0056509674,85,4,132,2,10,803.2508,178.86232,-1326.3457,37.110962,456220.75,659.49054,153.83136,149.59048,146.7593,146.7593,9.708344,1,454.552,0,0,18.705612,18.705618,0,8,255,0,0,0,3,0,175,0
True,39225031,9499.995,1203.1134,6695.7114,1.9655296,-1.2426118,8.5606985,-0.21414757,-0.2923602,38.19933,-0.016681803,0.027420176,0.04583562,-0.23697092,-0.056751203,0.0058597582,0.325871,0.43827158,0.5251693,0.5491154,0.227028,0.20660003,0.19798653,0.34991902,111.68444,111.29502,110.71883,113.19877,0,0,0,0,0,0,0,0,0,0,0,0,0.015690826,0.057854805,0.052324783,0.053111874,0.22756958,0.21454778,0.20478415,0.3539268,-0.009036079,-0.0025274158,0.002488628,0.003876049,85,4,132,2,10,802.09644,179.09991,-1321.7515,38.201046,513737.66,733.06976,153.44247,149.47028,146.80112,146.80112,9.887712,1,457.59647,0,0,18.831528,18.831532,0,8,255,0,0,0,3,0,189,0
True,39225125,9499.995,1203.1134,6834.7812,1.0909879,-0.20045266,8.40815,-0.15146065,-0.30013645,39.04648,0.0044624833,-0.0072442675,0.06500255,-0.23571815,-0.0570781,0.011208552,0.26381198,0.49989712,0.5801544,0.63527864,0.25765258,0.16047226,0.23023947,0.2912394,114.3064,113.35685,113.964,114.57963,0,0,0,0,0,0,0,0,0,0,0,0,-0.034047704,0.009390695,0.02730579,0.022425562,0.25989246,0.1607468,0.23185301,0.29210153,-0.012629665,0.0010410696,0.0056744255,0.008868288,85,4,132,2,10,801.15497,179.29465,-1317.9104,39.047928,523995.22,732.5431,153.13818,149.35802,146.77884,146.77884,10.111733,1,460.13882,0,0,18.934008,18.934011,0,8,255,0,0,0,3,-2,200,0
True,39225234,9499.995,1203.1134,6963.742,0.37367773,0.7983249,8.39311,-0.066931725,-0.28738332,39.9205,-0.023246218,-0.01674003,0.07478943,-0.2376514,-0.05915009,0.019251365,0.2883481,0.4850079,0.61751616,0.680254,0.18632957,0.18715061,0.21777353,0.21197113,116.156975,116.24156,116.32692,116.32172,0,0,0,0,0,0,0,0,0,0,0,0,-0.006904483,0.035000443,0.005619252,-0.0022506055,0.18645746,0.19039533,0.217846,0.21198308,-0.011208877,0.00017889589,0.007839143,0.011474129,85,4,132,2,10,800.17267,179.50348,-1313.8866,39.92159,533347.9,731.70825,152.8447,149.2434,146.74675,146.74675,10.380202,1,462.80203,0,0,19.039011,19.039013,0,8,255,0,0,0,3,0,212,0
True,39225359,9499.995,1203.1134,7170.955,-0.07435167,-0.27637124,7.9658628,-0.036031723,-0.30735588,40.898056,0.019870955,-0.004418721,0.05282506,-0.23887196,-0.059071947,0.026080098,0.2952803,0.53474265,0.5400548,0.6591486,0.28621557,0.22633675,0.25794905,0.27345312,120.13894,119.44787,119.64884,119.793755,0,0,0,0,0,0,0,0,0,0,0,0,-0.018037817,0.02754817,0.002541341,-0.0031042895,0.2867834,0.22800706,0.25796157,0.27347073,-0.010807462,0.0030588321,0.0033510812,0.010251295,85,4,132,2,10,798.9895,179.76491,-1309.0376,40.899223,546027.56,727.56805,152.51418,149.11024,146.7067,146.7067,10.750943,1,466.01166,0,0,19.162659,19.16266,0,8,255,0,0,0,3,0,225,0
True,39225453,9499.995,1203.1134,7354.476,-0.16932094,-1.8429619,7.740238,-0.050138474,-0.28695107,41.70443,0.05616218,-0.00039340346,0.04285597,-0.23892288,-0.053542357,0.031433538,0.23378961,0.3374559,0.49854618,0.6150681,0.2818003,0.27856818,0.34263715,0.35168907,122.41618,122.382256,123.05148,122.95264,0,0,0,0,0,0,0,0,0,0,0,0,-0.01465904,0.029163672,0.006464714,0.0028347468,0.28218132,0.28009063,0.34269813,0.3517005,-0.014368139,-0.008365244,0.0009461008,0.007697303,85,4,132,2,10,797.9784,179.97557,-1304.9015,41.70545,555877.94,722.1925,152.27078,149.01137,146.68013,146.68013,11.105575,1,468.74918,0,0,19.265842,19.265844,0,8,255,0,0,0,3,0,237,0
True,39225578,9499.995,1203.1134,7478.2344,0.016453862,-1.2785443,8.264594,-0.06404972,-0.31307936,42.66768,-0.0079616755,0.0066087437,0.056501523,-0.23859687,-0.050238892,0.036327355,0.27597886,0.5501571,0.5223855,0.5666672,0.25264803,0.16201945,0.26286572,0.2994666,124.958244,123.893265,124.88669,125.288376,0,0,0,0,0,0,0,0,0,0,0,0,-0.014782817,0.027407246,0.00991492,0.008384041,0.25308013,0.1643212,0.26305264,0.29958394,-0.011925131,0.003951423,0.0023273341,0.0048929863,85,4,132,2,10,796.8195,180.19063,-1300.164,42.668873,562736.5,718.8353,152.01767,148.91093,146.6659,146.6659,11.440265,1,471.8804,0,0,19.381538,19.381538,0,8,255,0,0,0,3,0,249,0
True,39225687,9499.995,1203.1134,7588.625,-0.037796736,0.35187507,8.04302,-0.09206581,-0.3012061,43.472584,-0.0026131757,0.004371396,0.077287614,-0.23801644,-0.051582366,0.043988563,0.32640073,0.5181684,0.56698155,0.6747885,0.19749783,0.19450763,0.2227499,0.228065,126.65337,126.59304,126.757095,126.77081,0,0,0,0,0,0,0,0,0,0,0,0,-0.0106284525,0.032845736,0.014188275,0.0075660334,0.1977836,0.19726141,0.22320132,0.22819047,-0.009005405,0.0020990856,0.004911199,0.0111574605,85,4,132,2,10,795.8134,180.37589,-1296.0497,43.47372,567320.1,714.26324,151.80614,148.81396,146.64392,146.64392,11.656318,1,474.6111,0,0,19.479927,19.479929,0,8,255,0,0,0,3,0,5,0
True,39225796,9499.995,1203.1134,7777.49,-1.060735,-0.5007729,7.838938,-0.14174938,-0.31119227,44.443172,-0.00023599807,-0.048617303,0.03339523,-0.23959436,-0.050200246,0.050750773,0.22711655,0.43333167,0.5544685,0.62384033,0.24387756,0.17549545,0.26392326,0.25376758,129.91359,129.28639,129.97623,130.02608,0,0,0,0,0,0,0,0,0,0,0,0,-0.1798658,-0.12998034,0.013459198,0.008337415,0.3030313,0.21838851,0.26426622,0.2539045,-0.014754549,-0.002813466,0.004186202,0.008205559,85,4,132,2,10,794.5045,180.6175,-1290.7133,44.44449,574159.75,705.2487,151.55525,148.69427,146.60616,146.60616,12.018527,1,478.1535,0,0,19.605017,19.60502,0,8,255,0,0,0,3,-34,20,0
True,39225906,9499.995,1203.1134,7899.364,-5.740689,0.9820057,7.695023,-0.13063622,-0.3344121,45.244267,-0.06389772,-0.25202572,-0.02936162,-0.25446123,-0.05255327,0.052101538,0.43004024,0.51948655,0.5482389,0.6226637,0.2443298,0.14853458,0.27496365,0.17212065,131.78836,131.75754,131.97887,131.96373,0,0,0,0,0,0,0,0,0,0,0,0,-0.51451415,-0.42463446,-0.03573428,-0.03740962,0.56958044,0.44986326,0.27727595,0.17613915,-0.0030040592,0.002175413,0.0038252622,0.008137386,85,4,132,2,10,793.35046,180.82227,-1286.1647,45.24569,578401,699.4601,151.4384,148.6631,146.57239,146.57239,12.294484,1,481.1764,0,0,19.709723,19.709726,0,8,255,0,0,0,3,-127,28,0
