IsRaceOn,TimestampMS,EngineMaxRpm,EngineIdleRpm,CurrentEngineRpm,AccelerationX,AccelerationY,AccelerationZ,VelocityX,VelocityY,VelocityZ,AngularVelocityX,AngularVelocityY,AngularVelocityZ,Yaw,Pitch,Roll,NormalizedSuspensionTravelFrontLeft,NormalizedSuspensionTravelFrontRight,NormalizedSuspensionTravelRearLeft,NormalizedSuspensionTravelRearRight,TireSlipRatioFrontLeft,TireSlipRatioFrontRight,TireSlipRatioRearLeft,TireSlipRatioRearRight,WheelRotationSpeedFrontLeft,WheelRotationSpeedFrontRight,WheelRotationSpeedRearLeft,WheelRotationSpeedRearRight,WheelOnRumbleStripFrontLeft,WheelOnRumbleStripFrontRight,WheelOnRumbleStripRearLeft,WheelOnRumbleStripRearRight,WheelInPuddleDepthFrontLeft,WheelInPuddleDepthFrontRight,WheelInPuddleDepthRearLeft,WheelInPuddleDepthRearRight,SurfaceRumbleFrontLeft,SurfaceRumbleFrontRight,SurfaceRumbleRearLeft,SurfaceRumbleRearRight,TireSlipAngleFrontLeft,TireSlipAngleFrontRight,TireSlipAngleRearLeft,TireSlipAngleRearRight,TireCombinedSlipFrontLeft,TireCombinedSlipFrontRight,TireCombinedSlipRearLeft,TireCombinedSlipRearRight,SuspensionTravelMetersFrontLeft,SuspensionTravelMetersFrontRight,SuspensionTravelMetersRearLeft,SuspensionTravelMetersRearRight,CarOrdinal,CarClass,CarPerformanceIndex,DrivetrainType,NumCylinders,PositionX,PositionY,PositionZ,Speed,Power,Torque,TireTempFl,TireTempFr,TireTempRl,TireTempRr,Boost,Fuel,Distance,BestLapTime,LastLapTime,CurrentLapTime,CurrentRaceTime,Lap,RacePosition,Accelerator,Brake,Clutch,Handbrake,Gear,Steer,NormalDrivingLine,NormalAiBrakeDifference
True,7642578,9499.995,1203.1134,1203.128,0.005918874,0.009852242,0.03605597,-0.00053586985,-9.377349E-05,-0.0025379779,-0.0003783891,-0.0001368706,0.0011229668,-1.7788922,-0.0018922981,8.291183E-05,0.49504554,0.47331145,0.4822636,0.48122802,0.0013609228,0.0007528309,-0.040647503,0.0019250284,-0.00723586,-0.00723586,-0.0072101643,-0.0072101643,0,0,0,0,0,0,0,0,0,0,0,0,0.046756156,0.038271528,0.0113935685,0.012309434,0.04677596,0.03827893,0.042214133,0.012459049,0.0007601343,-0.00049839914,2.6971102E-06,-5.7302415E-05,85,4,132,2,10,-194.01991,547.97125,3396.8823,0.0025956272,-0.056312375,-0.00044695454,108.48072,107.205414,107.634514,107.634514,-11.024998,1,0,0,0,0,124.64596,0,0,0,0,0,255,1,-127,0,0
True,7668187,9499.995,1203.1134,1870.0679,-0.034876652,0.0038503753,-0.01896417,0.0016094575,-0.00032631078,0.00084119453,-5.035405E-05,-1.7240054E-06,-0.0036680172,2.0621352,-0.0015628873,0.036791813,0.46199495,0.5032287,0.49582645,0.46834746,-2.5821071E-05,-2.1759965E-05,-2.668815E-05,-2.9342336E-05,0.0024447395,0.0024658996,0.002401832,0.002500254,0,0,0,0,0,0,0,0,0,0,0,0,0.0049652057,0.0145879965,0.0074066753,0.006964141,0.0049652727,0.014588013,0.0074067237,0.006964203,-0.0011536926,0.0012339875,0.000788521,-0.00080359355,85,4,132,2,10,-285.27933,246.14189,3440.841,0.0018451125,70458.08,365.10706,109.58887,110.04587,111.389404,111.389404,-7.831359,1,-90.19952,0,0,0.10978133,0.10978133,0,8,255,0,0,0,1,0,63,0
True,7668281,9499.995,1203.1134,3395.5586,-0.012401395,-0.009935748,-0.0065025743,0.0027331794,-0.0006481287,0.0014850195,-7.5547956E-05,3.0845877E-05,-0.006295705,2.0621367,-0.0015697215,0.036276244,0.4580598,0.5083997,0.49256137,0.4732248,-2.5248008E-05,-2.0088744E-05,-2.698545E-05,-2.5458245E-05,0.0043924013,0.0042555667,0.004297579,0.0043305894,0,0,0,0,0,0,0,0,0,0,0,0,0.004490962,0.014128931,0.0070841787,0.006769837,0.0044910326,0.014128946,0.00708423,0.006769885,-0.0013815612,0.0015334189,0.00059934333,-0.0005210042,85,4,132,2,10,-285.27933,246.14185,3440.8408,0.0031773609,238694.78,681.8524,109.565796,110.02632,111.36571,111.36571,-1.9004135,1,-90.1994,0,0,0.20455217,0.20455216,0,8,255,0,0,0,1,0,63,0
True,7668390,9499.995,1203.1134,5715.869,-0.10518956,0.0072106295,0.13145842,0.0017940039,0.00020482104,0.010399895,-0.0012367115,-1.652445E-05,-0.0044455375,2.0621393,-0.0015819982,0.035608828,0.4515257,0.5151198,0.4876178,0.4796698,0.021460103,0.01829644,0.03903821,0.038247563,0.08587733,0.07709718,0.13044958,0.12859884,0,0,0,0,0,0,0,0,0,0,0,0,0.003968982,0.013695337,0.00672044,0.006565966,0.021824043,0.022854364,0.03961245,0.03880706,-0.001759924,0.0019225515,0.00031291693,-0.00014758483,85,4,132,2,10,-285.27924,246.14182,3440.8406,0.0105554825,422557.1,712.5902,109.53822,110.00296,111.33751,111.33751,4.867566,1,-90.19921,0,0,0.3169618,0.3169618,0,8,255,0,0,0,1,0,63,0
True,7668515,9499.995,1203.1134,6559.9546,-0.0680151,-0.030485839,10.712118,-0.015636563,-0.0014735144,1.2793658,-0.06254733,-0.009406406,-0.0038075745,2.06171,-0.0061245523,0.035022315,0.3836714,0.45558876,0.56786263,0.5655653,20.271904,14.928811,17.592285,17.510979,41.042187,32.403976,38.342373,39.788452,0,0,0,0,0,0,0,0,0,0,0,0,0.19257298,0.22657265,0.03461309,0.03153641,20.27282,14.930531,17.59232,17.511007,-0.005689092,-0.0015246496,0.0049622506,0.0048291422,85,4,132,2,10,-285.22653,246.14194,3440.813,1.279462,491819.2,718.5609,111.791275,111.652725,114.90613,114.90613,8.635001,1,-90.14051,0,0,0.42818528,0.42818525,0,8,255,0,0,0,1,0,63,0
True,7668625,9499.995,1203.1134,7691.6553,-0.21989965,-0.35541797,12.53285,-0.044067383,-0.03777954,2.7639098,-0.014412035,-0.03664912,0.0009597726,2.058887,-0.009882882,0.03539675,0.2461527,0.33542258,0.640587,0.63769025,24.68636,15.882242,18.640762,19.158806,52.063046,37.355972,46.187134,43.865917,0,0,0,0,0,0,0,0,0,0,0,0,0.30764103,0.3352388,-0.02085319,-0.024747457,24.688276,15.88578,18.640774,19.158821,-0.013652243,-0.008482985,0.009175848,0.009008016,85,4,132,2,10,-285.02356,246.14275,3440.7085,2.7645192,559285.3,696.7576,120.34584,120.63502,125.36795,125.36795,10.711644,1,-89.91524,0,0,0.538432,0.538432,0,8,255,0,0,0,1,0,63,0
True,7668734,9499.995,1203.1134,8696.128,-0.15848255,-0.24207824,12.822383,-0.061226845,-0.04823432,4.273507,0.008045568,-0.053581204,0.003676223,2.0540617,-0.009071386,0.035396487,0.2520283,0.3225124,0.6299355,0.64117706,24.701723,16.362568,21.17435,19.149267,56.819675,42.669876,53.960827,48.609978,0,0,0,0,0,0,0,0,0,0,0,0,0.2780105,0.30889925,-0.028080553,-0.0321809,24.703287,16.365484,21.17437,19.149294,-0.013312012,-0.009230562,0.008558709,0.009210039,85,4,132,2,10,-284.67197,246.14249,3440.5295,4.2742176,581865.06,640.682,128.63635,129.0437,135.36288,135.36288,12.872802,1,-89.52596,0,0,0.6495139,0.64951384,0,8,255,0,0,0,1,0,64,0
True,7668843,9499.995,1203.1134,8958.891,-0.41252804,0.16485202,13.4512615,-0.065913916,-0.042604372,5.7790613,-0.011555217,-0.053088192,0.0052603926,2.0478864,-0.009402474,0.03543484,0.30556774,0.33921647,0.6477058,0.65232205,20.588665,17.687159,17.314695,18.40256,54.294422,49.693466,49.586174,55.380527,0,0,0,0,0,0,0,0,0,0,0,0,0.2009632,0.23967677,-0.011333101,-0.016830465,20.589645,17.688782,17.3147,18.402567,-0.010211758,-0.008263297,0.009588309,0.009855773,85,4,132,2,10,-284.17996,246.14081,3440.2812,5.7795944,534955.8,571.1006,136.7073,137.00775,144.5316,144.5316,8.872273,1,-88.98223,0,0,0.7595309,0.7595308,0,8,255,0,0,0,1,0,64,0
True,7668953,9499.995,1203.1134,8988.309,-0.36239815,-0.39575636,14.304033,-0.06211543,-0.08975926,6.967705,-0.018106032,-0.058916297,0.003999237,2.042495,-0.010697933,0.03607481,0.28086278,0.3017475,0.60548115,0.60673624,15.8333025,14.394534,15.01235,14.102879,52.987576,50.821644,52.97093,52.585648,0,0,0,0,0,0,0,0,0,0,0,0,0.17110655,0.21209842,-0.025075467,-0.028056609,15.834228,14.396096,15.012371,14.102907,-0.011642322,-0.0104329735,0.0071418397,0.007214561,85,4,132,2,10,-283.6566,246.14113,3440.019,6.96856,519403.38,552.41345,142.85786,143.30087,151.6225,151.6225,7.3620234,1,-88.40473,0,0,0.8507988,0.85079867,0,8,255,0,0,0,1,0,64,0
True,7669062,9499.995,1203.1134,9006.767,0.8091636,-0.14914998,14.61451,-0.048206806,-0.0897,8.600848,-0.006773552,-0.059115738,0.009903298,2.0358765,-0.011764481,0.03631525,0.27799004,0.26255888,0.594856,0.6538417,9.849972,11.041218,11.290644,9.308655,50.1393,53.378056,54.674404,51.336994,0,0,0,0,0,0,0,0,0,0,0,0,0.40253395,0.450696,-0.036448553,-0.04030541,9.858193,11.050412,11.290703,9.308743,-0.011808671,-0.012702227,0.006526228,0.009943817,85,4,132,2,10,-282.84256,246.1418,3439.6143,8.601451,531095.25,564.1605,150.33038,150.54361,160.16145,160.16145,8.595096,1,-87.50793,0,0,0.9671065,0.96710634,0,8,255,0,0,0,1,17,65,0
True,7669140,9499.995,1203.1134,9049.36,0.7239976,0.102166146,12.904278,0.05060339,-0.09647184,9.871898,0.007651479,0.0053033023,0.004922539,2.03284,-0.01186778,0.036970265,0.29787847,0.21196899,0.6440062,0.6679246,6.1460156,10.984831,8.292662,6.5537887,46.56227,59.80874,55.33153,50.066776,0,0,0,0,0,0,0,0,0,0,0,0,1.1827186,1.4249492,-0.03569741,-0.04156717,6.2587805,11.076867,8.292738,6.5539203,-0.010657012,-0.015631683,0.009373955,0.010759771,85,4,132,2,10,-282.0644,246.14174,3439.2256,9.872499,533823.44,564.12585,156.04355,155.88417,166.65344,166.65344,9.03448,1,-86.64983,0,0,1.0614262,1.0614259,0,8,255,0,0,0,1,85,65,0
True,7669265,9499.995,1203.1134,8949.154,0.38893414,-0.18021587,12.780127,0.035073757,-0.12052352,11.38173,-0.019089762,0.047631696,-0.015644418,2.0368333,-0.01288466,0.037079405,0.32290176,0.27355605,0.6354468,0.60363734,2.591865,8.523485,4.7973204,5.9342384,41.834816,61.71602,52.38671,52.618668,0,0,0,0,0,0,0,0,0,0,0,0,-0.10122541,-0.058897566,0.027012564,0.022874596,2.593841,8.523689,4.7973967,5.934283,-0.009208016,-0.0120654255,0.00887803,0.0070350133,85,4,132,2,10,-281.01874,246.14534,3438.6936,11.3824215,527638.3,563.9543,160.39384,162.01471,173.51251,173.51251,8.117099,1,-85.492256,0,0,1.171498,1.1714978,0,8,255,0,0,0,1,0,66,0
True,7669375,9499.995,1203.1134,8653.808,0.47320127,-0.18089356,15.42274,-0.061823368,-0.13826236,13.077698,-0.031494033,0.04234743,-0.001514731,2.0422363,-0.015721189,0.035796862,0.31520617,0.29600173,0.59291714,0.5788249,0.32889894,5.2393746,2.6076636,4.2579165,38.734917,57.94091,48.174263,54.995525,0,0,0,0,0,0,0,0,0,0,0,0,-0.021511622,0.021712817,0.08054908,0.078615256,0.32960168,5.2394195,2.6089075,4.258642,-0.009653635,-0.010765687,0.006413892,0.005597394,85,4,132,2,10,-279.773,246.15215,3438.064,13.078576,0,0,161.8995,168.07266,180.25923,180.25923,7.2123327,1,-84.11511,0,0,1.2852657,1.2852657,0,8,255,0,0,0,1,0,66,0
True,7669484,9499.995,1203.1134,7732.2695,0.79257345,0.30666366,15.79559,-0.0461483,-0.1608257,14.426046,-0.020900648,-0.0034151645,0.0032736263,2.044614,-0.018629745,0.035481982,0.29150715,0.2766421,0.66238874,0.6583051,0.36098078,2.5653794,0.41374856,0.9927115,42.73487,52.06525,42.969337,45.245155,0,0,0,0,0,0,0,0,0,0,0,0,0.0092438245,0.051911227,0.02804554,0.022005197,0.3610991,2.5659046,0.414698,0.9929553,-0.01102595,-0.011886723,0.010439031,0.010202426,85,4,132,2,10,-278.60147,246.15872,3437.4707,14.427017,0,0,159.49965,172.4307,179.00636,179.00636,11.540856,1,-82.81947,0,0,1.3808203,1.3808202,0,8,255,0,0,0,1,0,66,0
True,7669609,9499.995,1203.1134,8211.766,0.38470697,0.1384511,13.544364,-0.0014061928,-0.16964561,16.063656,-0.018155085,0.002498921,0.003735789,2.0438814,-0.02058718,0.035199214,0.29385287,0.2908441,0.65742105,0.64829725,0.35997602,0.40860626,0.41696164,0.4887451,47.60001,47.832928,47.97577,48.18204,0,0,0,0,0,0,0,0,0,0,0,0,0.09709059,0.14135249,0.0056110113,-0.0006124473,0.37283954,0.43236512,0.4169994,0.48874548,-0.010890119,-0.011064343,0.010151204,0.009622578,85,4,132,2,10,-277.03537,246.17459,3436.671,16.064552,525602.1,612.6231,156.84003,169.97162,175.37509,175.37509,12.385741,1,-81.084335,0,0,1.4959095,1.4959095,0,8,255,0,0,0,1,3,66,0
True,7669703,9499.995,1203.1134,8667.654,1.0504031,0.17208314,11.939839,0.069402695,-0.19118634,17.534542,-0.016874937,0.07363,0.0029968866,2.0485823,-0.023732236,0.035809834,0.32928813,0.31670117,0.6254907,0.60994685,0.14088285,0.16629677,0.16240545,0.1792587,50.787514,50.529343,50.75398,50.46602,0,0,0,0,0,0,0,0,0,0,0,0,0.02821932,0.07274265,0.01643399,0.012130959,0.14368127,0.18151063,0.16323482,0.17966871,-0.0088382065,-0.009567067,0.008301184,0.0074005798,85,4,132,2,10,-275.3053,246.19751,3435.775,17.53572,-207203.94,-227.54793,154.35988,166.72678,171.9798,171.9798,7.5474024,1,-79.03831,0,0,1.6114583,1.6114584,0,8,255,0,0,0,1,13,66,0
True,7669828,9499.995,1203.1134,8019.4624,-0.46181363,0.2670165,0.9378738,-0.020059586,-0.101225734,17.438004,0.046444524,0.01691003,-0.0009159669,2.0534937,-0.019876445,0.035436112,0.41259944,0.39825952,0.5947576,0.59030586,0.00079027226,0.000128133,0.00079766364,0.00013060503,49.705708,49.622997,49.530983,49.44676,0,0,0,0,0,0,0,0,0,0,0,0,-0.021878036,0.017863184,0.02545626,0.01928323,0.021892304,0.017863644,0.025468756,0.019283671,-0.0040139854,-0.0048443526,0.0065205283,0.0062625967,85,4,132,2,10,-273.53903,246.22385,3434.8518,17.438309,-174490.77,-207.42693,151.9733,163.6,168.68034,168.68034,-7.778995,1,-77.07258,0,0,1.7254184,1.7254186,0,8,255,0,0,0,1,0,65,0
True,7669921,9499.995,1203.1134,7442.375,-0.063047744,0.26035282,0.15187606,-0.01844883,-0.020021468,17.431065,0.012670212,0.0026883993,-0.0018679099,2.0543537,-0.01700407,0.035292435,0.44844386,0.43343526,0.5246441,0.5198329,0.061467126,0.06257503,0.11149397,0.114401676,50.080708,50.073418,50.236366,50.236683,0,0,0,0,0,0,0,0,0,0,0,0,-0.010937538,0.026750617,0.013470248,0.009983437,0.06243266,0.06805314,0.11230473,0.11483646,-0.0019383803,-0.0028074682,0.0024581961,0.00217944,85,4,132,2,10,-272.0989,246.24828,3434.098,17.431086,-88329.34,-113.11205,150.12389,161.19003,166.12187,166.12187,-9.891454,1,-75.46924,0,0,1.8187394,1.8187395,0,8,255,0,0,0,2,0,64,0
True,7670031,9499.995,1203.1134,5763.3047,0.010393143,0.1406952,10.081435,-0.027693272,-0.0814732,18.624174,-0.09079827,0.0009136605,-0.0009425469,2.0543215,-0.0214209,0.035210393,0.41535395,0.41520083,0.50308603,0.49265325,0.968788,0.8190331,1.0192608,1.040556,58.410263,57.568077,58.635494,58.705864,0,0,0,0,0,0,0,0,0,0,0,0,-0.0076893466,0.033089805,0.013979344,0.013548526,0.96881855,0.81970125,1.0193566,1.0406442,-0.0038544834,-0.0038633496,0.0012091361,0.00060466677,85,4,132,2,10,-270.57812,246.27711,3433.3013,18.624372,89.475266,0.1471128,148.47517,158.99216,164.30946,164.30946,-2.7321367,1,-73.77582,0,0,1.9144127,1.9144129,0,8,255,0,0,0,2,0,62,0
True,7670140,9499.995,1203.1134,5702.005,-0.1651001,0.27990282,10.564146,-0.020316124,-0.20194845,20.054718,-0.044376504,-0.0033350298,-8.746982E-06,2.0538485,-0.029590728,0.035226684,0.38280198,0.3492499,0.603792,0.60857755,0.28261802,0.31036177,0.33001873,0.32349795,58.9839,59.163486,59.237717,59.215157,0,0,0,0,0,0,0,0,0,0,0,0,-0.010438513,0.033020806,0.008918119,0.00440742,0.28281072,0.31211343,0.33013922,0.32352796,-0.0057394356,-0.007682301,0.0070439726,0.007321246,85,4,132,2,10,-268.54648,246.31822,3432.2375,20.055746,403736.88,677.2428,146.60585,156.47624,161.7855,161.7855,5.788245,1,-71.513725,0,0,2.0327134,2.0327134,0,8,255,0,0,0,2,0,61,0
True,7670265,9499.995,1203.1134,6114.934,0.045133114,0.41557446,12.324402,-0.018095016,-0.21025513,21.468105,-0.0017188652,-0.0047279345,-0.00825494,2.053237,-0.032420553,0.034822367,0.39301145,0.3595726,0.66757023,0.65754294,0.31794596,0.34568372,0.35110334,0.34691128,63.30633,63.492813,63.49288,63.493015,0,0,0,0,0,0,0,0,0,0,0,0,-0.010652362,0.034859233,0.009642089,0.00205452,0.31812435,0.3474369,0.35123572,0.34691736,-0.005148247,-0.007084556,0.010739241,0.010158267,85,4,132,2,10,-266.35602,246.37076,3431.091,21.469141,444436.56,694.6375,144.81172,154.10063,159.28687,159.28687,8.077033,1,-69.07483,0,0,2.1517456,2.1517456,0,8,255,0,0,0,2,0,58,0
True,7670359,9499.995,1203.1134,6448.444,-0.04297352,-0.08365548,12.505467,-0.015845299,-0.19945186,22.593094,0.01401385,-0.00426323,-0.007886764,2.052839,-0.03146286,0.033971988,0.35559177,0.34499308,0.6665616,0.6607016,0.3250792,0.32829615,0.38622996,0.3862731,66.652336,66.69058,67.03861,67.04841,0,0,0,0,0,0,0,0,0,0,0,0,-0.012000169,0.032593325,0.0091163805,0.00089038664,0.3253006,0.32991013,0.38633755,0.3862741,-0.0073150694,-0.007928796,0.010680802,0.0103412755,85,4,132,2,10,-264.5058,246.41832,3430.1235,22.593979,466761.9,691.8684,143.49498,152.34648,157.44594,157.44594,8.965793,1,-67.01508,0,0,2.2464676,2.246467,0,8,255,0,0,0,2,0,56,0
True,7670484,9499.995,1203.1134,6842.233,0.16363192,-0.02030003,13.229818,-0.016507149,-0.2192587,23.968626,-0.017736666,-0.0020626963,-0.00030382257,2.0524752,-0.03156637,0.033456728,0.32000083,0.33691037,0.6473286,0.64982736,0.31847313,0.30438536,0.385897,0.38707417,70.71741,70.63267,71.16018,71.17917,0,0,0,0,0,0,0,0,0,0,0,0,-0.013835537,0.02875346,0.0083786165,0.0013948472,0.3187735,0.30574045,0.38598794,0.3870767,-0.009375997,-0.008396834,0.009566456,0.009711232,85,4,132,2,10,-262.13666,246.4779,3428.8857,23.969637,501831.7,701.33044,142.0164,150.36378,155.38553,155.38553,9.837066,1,-64.378136,0,0,2.3612473,2.361247,0,8,255,0,0,0,2,0,53,0
True,7670609,9499.995,1203.1134,7285.1064,-0.008411884,0.22038178,11.790238,-0.019830704,-0.25465274,25.55862,-0.01609623,-0.0020560562,0.0051673586,2.0521483,-0.034424506,0.033885524,0.30733806,0.31850752,0.62882787,0.63876694,0.3228217,0.3251749,0.35657758,0.36064586,75.4353,75.46107,75.66595,75.6993,0,0,0,0,0,0,0,0,0,0,0,0,-0.014267558,0.028887978,0.007930848,0.0015650867,0.32313684,0.32645556,0.35666576,0.36064926,-0.010109246,-0.009462468,0.008494534,0.009070396,85,4,132,2,10,-259.2684,246.55367,3427.3884,25.559895,534379.56,701.31805,140.4789,148.2929,153.23409,153.23409,10.753095,1,-61.186115,0,0,2.491845,2.4918447,0,8,255,0,0,0,2,0,49,0
True,7670718,9499.995,1203.1134,7664.7314,-0.064011574,-0.51457965,11.321999,-0.021531105,-0.28184223,26.84496,0.0492492,-0.0033023106,0.0054504722,2.0518565,-0.033435754,0.034496628,0.23330003,0.25625718,0.6319668,0.6313444,0.44326767,0.41662264,0.35116014,0.35906938,80.03062,79.84507,79.33742,79.38925,0,0,0,0,0,0,0,0,0,0,0,0,-0.014632277,0.0312991,0.0081543885,0.0010529968,0.4435091,0.41779667,0.3512548,0.35907093,-0.014396489,-0.013067134,0.008676402,0.008640338,85,4,132,2,10,-256.66946,246.6248,3426.033,26.846447,516557.8,644.2211,139.2797,146.6698,151.5398,151.5398,11.537133,1,-58.23063,0,0,2.603629,2.603629,0,8,255,0,0,0,2,0,45,0
True,7670828,9499.995,1203.1134,8024.1743,-0.08529711,-1.2042018,11.065984,-0.02516365,-0.24020818,28.06479,0.041529536,-0.0021951194,0.0059553487,2.051769,-0.026447667,0.035040937,0.27736884,0.29284683,0.54466164,0.54901683,0.30974892,0.29509535,0.43607798,0.43272933,82.62995,82.52196,83.436066,83.78133,0,0,0,0,0,0,0,0,0,0,0,0,-0.012933524,0.029597363,0.00726917,0.0046771923,0.3100188,0.2965759,0.43613854,0.4327546,-0.011844642,-0.010948375,0.0036179982,0.0038703345,85,4,132,2,10,-253.96246,246.6867,3424.6218,28.06583,542682.06,646.4533,138.19844,145.18457,149.98276,149.98276,12.287984,1,-55.224983,0,0,2.7147844,2.7147846,0,8,255,0,0,0,2,0,40,0
True,7670937,9499.995,1203.1134,8297.571,0.12498808,-0.0855263,12.655469,-0.027772903,-0.25128686,29.159967,-0.047628712,-0.0008832833,0.004790874,2.0516129,-0.027004657,0.03564867,0.38795483,0.40405816,0.58053243,0.5816865,0.2550573,0.25555116,0.35245848,0.37274072,85.54357,85.556595,86.38387,86.37947,0,0,0,0,0,0,0,0,0,0,0,0,-0.012460804,0.029042473,0.008834921,0.005468328,0.2553615,0.25719616,0.3525692,0.37278083,-0.0054410547,-0.0045085773,0.00569633,0.0057631955,85,4,132,2,10,-251.58896,246.73386,3423.3855,29.161064,586432.94,675.3021,137.33723,144.00961,148.78845,148.78845,12.876798,1,-52.59011,0,0,2.8083014,2.8083017,0,8,255,0,0,0,2,0,36,0
True,7671031,9499.995,1203.1134,8584.394,-0.5728512,1.0067644,11.9410715,-0.025889397,-0.27968594,30.286901,-0.014628483,-0.0040977625,-0.00056838663,2.0512307,-0.031602737,0.035999227,0.4302577,0.42513674,0.66802526,0.67151344,0.29277423,0.34291577,0.28546646,0.279936,89.123474,89.56589,89.02452,88.92122,0,0,0,0,0,0,0,0,0,0,0,0,-0.013233977,0.033158943,0.009702971,0.0014482937,0.29307318,0.34451523,0.2856313,0.27993974,-0.0029914677,-0.0032880008,0.010765605,0.010967709,85,4,132,2,10,-249.04002,246.79245,3422.0583,30.288202,589496.8,656.4214,136.5024,142.87581,147.6194,147.6194,13.458745,1,-49.760582,0,0,2.9049294,2.9049294,0,8,255,0,0,0,2,0,30,0
True,7671156,9499.995,1203.1134,8370.764,-0.28281665,-1.3119332,4.569195,-0.018525124,-0.23500755,30.994127,0.12683427,-0.007548821,-0.009784624,2.050744,-0.024640225,0.035186227,0.31350958,0.2806102,0.6183697,0.61150426,-0.02986943,-0.03468058,-0.043384954,-0.04555671,87.92628,87.91442,87.45989,87.47925,0,0,0,0,0,0,0,0,0,0,0,0,-0.013131741,0.03329164,0.007456606,-0.0004359226,0.0326286,0.048073653,0.044021077,0.045558795,-0.009751879,-0.011656947,0.0078885965,0.0074908175,85,4,132,2,10,-245.78381,246.86966,3420.3643,30.995022,-191350.3,-218.01085,135.52,141.56534,146.21614,146.21614,-1.345521,1,-46.1464,0,0,3.0240676,3.0240676,0,8,255,0,0,0,2,0,23,0
True,7671250,9499.995,1203.1134,7781.494,0.42124683,-1.6810424,0.5561704,-0.012899399,-0.08564514,30.916391,0.04116635,-0.004833403,-0.016445357,2.0504687,-0.014122357,0.0337537,0.4926232,0.39364463,0.45928663,0.4640718,-7.9786594E-05,-5.5018598E-05,-0.00028842236,-0.00020761024,88.0837,88.10578,87.76949,87.79351,0,0,0,0,0,0,0,0,0,0,0,0,-0.011677576,0.026222186,0.0035422868,0.004172319,0.011677848,0.026222244,0.0035540094,0.0041774814,0.00061986595,-0.0051115826,-0.0013285726,-0.0010513216,85,4,132,2,10,-243.02994,246.91219,3418.9321,30.916512,-163377.16,-200.28336,134.69275,140.46277,145.00943,145.00943,-8.940169,1,-43.090378,0,0,3.1243806,3.1243804,0,8,255,0,0,0,3,0,17,0
True,7671390,9499.995,1203.1134,6098.9194,-0.4278152,0.06612034,6.802446,-0.0120687485,-0.10879493,31.557201,-0.046428017,-0.00080468715,-0.0040689725,2.0500863,-0.016281916,0.032250587,0.43679643,0.42744657,0.6039737,0.55606675,0.44599414,0.36603403,0.43402588,0.4544092,94.5087,93.75112,94.44599,94.59015,0,0,0,0,0,0,0,0,0,0,0,0,-0.016868861,0.024926553,0.0070885243,0.0009025124,0.44631302,0.3668818,0.43408376,0.4544101,-0.0026128367,-0.003154248,0.0070545003,0.004278805,85,4,132,2,10,-239.71924,246.95801,3417.2122,31.55739,181750.89,282.1414,133.82007,139.28062,143.74818,143.74818,-3.9333487,1,-39.411575,0,0,3.2444334,3.2444332,0,8,255,0,0,0,3,0,10,0
True,7671484,9499.995,1203.1134,5659.5273,0.1861732,-0.20977634,8.012644,-0.018463135,-0.21617582,32.432175,-0.022286367,-0.0023593304,-0.004731236,2.0499043,-0.019122316,0.032060985,0.39165324,0.32498577,0.5282373,0.5202038,0.15841992,0.1899712,0.23610564,0.22727823,94.116234,94.40922,94.646545,94.59415,0,0,0,0,0,0,0,0,0,0,0,0,-0.013989207,0.027261792,0.0052392655,0.0038009663,0.15903638,0.19191733,0.23616377,0.22731002,-0.005226895,-0.009087339,0.002666384,0.0022009313,85,4,132,2,10,-236.87369,246.99873,3415.7346,32.432903,391097.72,660.28436,133.20609,138.41533,142.85611,142.85611,4.655343,1,-36.2596,0,0,3.3444452,3.344445,0,8,255,0,0,0,3,0,3,0
True,7671593,9499.995,1203.1134,5803.308,-0.1629026,0.25480062,7.9983826,-0.009794235,-0.2712971,33.246445,-0.012467048,-0.0053148926,-0.023112021,2.0494149,-0.02171389,0.03045674,0.4616492,0.39534855,0.6154874,0.5813558,0.18605077,0.21673913,0.22568981,0.2176716,96.72599,97.03347,96.937355,96.90148,0,0,0,0,0,0,0,0,0,0,0,0,-0.01456113,0.029950172,0.006358665,0.0009670014,0.18661971,0.21879868,0.22577937,0.21767375,-0.0011737123,-0.0050129145,0.0077215955,0.0057440363,85,4,132,2,10,-233.90076,247.04211,3414.1921,33.24755,424800.78,699.27356,132.60071,137.58044,141.98734,141.98734,7.3497725,1,-32.96696,0,0,3.446421,3.4464204,0,9,255,0,0,0,3,0,252,0
True,7671718,9499.995,1203.1134,5993.068,0.15004778,-0.074843794,8.52442,-0.00078868866,-0.23768994,34.274223,-0.0038075298,-0.004675115,-0.020131426,2.0487604,-0.020686865,0.027671605,0.51504445,0.44404772,0.66538453,0.6481927,0.17949507,0.18403737,0.26009828,0.2566266,99.65632,99.72441,100.25738,100.256454,0,0,0,0,0,0,0,0,0,0,0,0,-0.017598443,0.025759071,0.005353378,-0.003229356,0.18035571,0.18583134,0.26015338,0.25664693,0.0019181892,-0.0021929443,0.010612603,0.00961652,85,4,132,2,10,-230.16148,247.10002,3412.2532,34.27505,447451.72,713.2473,131.93259,136.64929,141.02151,141.02151,8.26921,1,-28.825958,0,0,3.5711594,3.571159,0,9,255,0,0,0,3,0,242,0
True,7671812,9499.995,1203.1134,6132.072,-0.6269369,0.48593256,8.293405,0.00053977966,-0.23072904,35.125504,-0.0045297015,-0.0044848667,-0.02557235,2.048306,-0.022033336,0.025314273,0.5208023,0.42208928,0.6826447,0.668337,0.18220627,0.21077669,0.23045759,0.22163254,102.154015,102.45478,102.46142,102.41862,0,0,0,0,0,0,0,0,0,0,0,0,-0.017690916,0.026444033,0.00600231,-0.0036228327,0.18306309,0.21242903,0.23053575,0.22166215,0.0022516027,-0.0034644678,0.011612646,0.010783665,85,4,132,2,10,-227.05428,247.15088,3410.6438,35.126255,461467.78,718.9595,131.44331,135.9593,140.31192,140.31192,8.637776,1,-25.385601,0,0,3.6719768,3.6719766,0,9,255,0,0,0,3,0,234,0
True,7671921,9499.995,1203.1134,6294.0747,0.4068508,-0.21995711,8.988013,0.0051317215,-0.23727614,35.940277,0.0032434352,-0.0050081075,-0.022465933,2.047867,-0.021557929,0.022401934,0.4501151,0.386855,0.65457076,0.621561,0.20584917,0.21630777,0.27166823,0.26357082,104.7674,104.88604,105.25697,105.205925,0,0,0,0,0,0,0,0,0,0,0,0,-0.018798538,0.024764035,0.004095883,-0.003963557,0.20670575,0.21772072,0.2716991,0.26360062,-0.0018416047,-0.0055047423,0.009986062,0.008073498,85,4,132,2,10,-223.95384,247.20488,3409.0393,35.941063,476762.7,723.81726,131.00714,135.34026,139.67372,139.67372,8.962068,1,-21.953215,0,0,3.7702036,3.7702034,0,9,255,0,0,0,3,0,226,0
True,7672015,9499.995,1203.1134,6450.7046,-0.1989758,-0.7153695,8.538922,0.0038547516,-0.2730253,36.814762,0.02389621,-0.0033046445,-0.012765216,2.047479,-0.020583646,0.020567896,0.39445266,0.31411946,0.6257518,0.6052909,0.23621029,0.2482647,0.26764095,0.26064995,107.59102,107.73729,107.76072,107.72392,0,0,0,0,0,0,0,0,0,0,0,0,-0.020747732,0.023581553,0.0030114516,-0.0037496658,0.23711973,0.24938214,0.26765788,0.26067692,-0.005064793,-0.009716563,0.008316308,0.0071308166,85,4,132,2,10,-220.60918,247.25824,3407.3103,36.81577,491587.06,728.0299,130.59352,134.74268,139.06363,139.06363,9.291099,1,-18.248932,0,0,3.8736804,3.8736804,0,9,255,0,0,0,3,0,218,0
True,7672156,9499.995,1203.1134,6846.736,-9.3807,-1.9117041,9.187777,-1.5058165,-0.2523538,38.01122,0.012940238,-0.09095996,-0.012460861,2.0408547,-0.016446615,0.020723963,0.26652813,0.14597417,0.44287568,0.35049108,0.30288407,0.6013096,0.54615986,0.6176462,111.817,115.1768,114.85306,114.59359,0,0,0,0,0,0,0,0,0,0,0,0,-0.21730255,-0.1619303,0.3196235,0.3380722,0.37277225,0.6227316,0.632811,0.7041162,-0.012472384,-0.019453175,-0.002279412,-0.007632114,85,4,132,2,10,-216.42606,247.32089,3405.3274,38.041866,423171.1,590.10895,130.20334,134.18982,138.47372,138.47372,10.008925,1,-13.686014,0,0,3.997123,3.997123,0,9,255,0,0,0,3,-25,212,0
True,7672265,9499.995,1203.1134,6845.4717,-4.359535,-0.4989414,9.455797,-1.0398026,-0.40437505,38.947105,-0.03556775,-0.32520756,-0.041567564,2.0199587,-0.01835333,0.017694965,0.33264735,0.25553948,0.55859405,0.49003297,0.36448464,0.2420736,0.3214348,0.22052623,114.51182,114.74613,113.5406,114.77662,0,0,0,0,0,0,0,0,0,0,0,0,-0.64489895,-0.53570527,0.13989945,0.13503288,0.74077237,0.5878603,0.35055983,0.25858402,-0.008643687,-0.013108693,0.004425235,0.00045285,85,4,132,2,10,-212.95648,247.34961,3403.7524,38.963085,525640.06,733.45154,129.99893,133.82632,138.09158,138.09158,10.208671,1,-9.928024,0,0,4.09602,4.09602,0,9,255,0,0,0,3,-127,208,0
True,7672375,9499.995,1203.1134,7014.6714,-4.347067,0.7386328,8.66552,0.081656456,-0.31100595,40.02689,0.017690312,-0.2843117,-0.028441334,1.977314,-0.018776758,0.014912757,0.44560704,0.3750103,0.6488484,0.62896127,0.25512448,0.24014848,0.3238409,0.21448722,116.5076,117.6465,117.06359,117.26013,0,0,0,0,0,0,0,0,0,0,0,0,0.03714508,0.08244825,-0.1151744,-0.11698281,0.2578144,0.25390747,0.34371218,0.24431485,-0.0021026507,-0.0061906204,0.009654511,0.008502264,85,4,132,2,10,-208.6871,247.39471,3401.865,40.028183,536332,730.6744,129.76578,133.40071,137.62057,137.62057,10.444146,1,-5.322684,0,0,4.214193,4.2141933,0,9,255,0,0,0,3,0,205,0
True,7672468,9499.995,1203.1134,7188.873,-7.205234,-0.47273558,7.018564,-0.0050258636,-0.28281653,40.69002,-0.001131143,-0.18823211,-0.024368644,1.9549197,-0.016194742,0.01269637,0.38694763,0.32410336,0.6369353,0.588905,0.25012535,0.23554723,0.40413496,0.32039008,118.856705,119.58421,120.42687,120.43637,0,0,0,0,0,0,0,0,0,0,0,0,0.0028447441,0.044940714,-0.08701757,-0.09040585,0.25014153,0.23979609,0.41339704,0.3329009,-0.005499378,-0.009138435,0.008964274,0.00618143,85,4,132,2,10,-205.05957,247.43515,3400.352,40.690998,547355.5,727.1956,129.53152,133.02689,137.26654,137.26654,10.801381,1,-1.4439367,0,0,4.3115005,4.311501,0,9,255,0,0,0,3,0,206,0
True,7672593,9499.995,1203.1134,7241.229,-11.87622,0.7031642,4.789917,-0.54762745,-0.38211492,41.24848,-0.03298509,-0.14367351,-0.012428038,1.9361955,-0.020345248,0.011361119,0.40650386,0.28915885,0.5911696,0.56943417,0.2092673,0.34072512,0.277998,0.24325402,120.03031,122.23676,120.72783,120.90455,0,0,0,0,0,0,0,0,0,0,0,0,0.1378498,0.19093151,0.07039168,0.06670525,0.25059006,0.3905745,0.28677148,0.25223425,-0.0043669567,-0.011161931,0.0063126385,0.005053304,85,4,132,2,10,-200.57732,247.48358,3398.6387,41.253887,551426.9,727.3057,129.28717,132.63345,136.89488,136.89488,11.017938,1,3.3371782,0,0,4.428638,4.428639,0,9,255,0,0,0,3,0,211,0
True,7672687,9499.995,1203.1134,7334.4873,-4.1008167,0.022185529,6.4817986,-0.25043488,-0.3382228,41.886936,0.06035216,-0.12900178,-0.03454999,1.922384,-0.01853091,0.008744958,0.41857886,0.3159554,0.6857964,0.64136034,0.24498694,0.23016176,0.26623598,0.25074255,122.200775,122.62532,122.33051,122.67832,0,0,0,0,0,0,0,0,0,0,0,0,0.075780235,0.12021887,0.022315515,0.013599987,0.25643957,0.2596671,0.26716956,0.25111112,-0.003667742,-0.009610251,0.011795253,0.009220656,85,4,132,2,10,-196.75421,247.52525,3397.254,41.88905,556004.8,724.2869,129.1054,132.3523,136.61055,136.61055,11.16278,1,7.339587,0,0,4.5264835,4.5264845,0,9,255,0,0,0,3,0,217,0
True,7672796,9499.995,1203.1134,7463.3174,-3.5468357,-0.75758153,7.217295,-0.09183788,-0.31506675,42.557762,-0.011584252,-0.0891676,-0.014569898,1.9118222,-0.015551599,0.006841098,0.33289003,0.30316964,0.58923006,0.5452188,0.20863897,0.21236295,0.2982868,0.27560845,123.91645,124.37553,124.79082,124.91493,0,0,0,0,0,0,0,0,0,0,0,0,0.027727915,0.06831753,-0.002129517,-0.0058225384,0.2104734,0.2230814,0.2982944,0.27566993,-0.008629635,-0.010350622,0.006200265,0.0036502816,85,4,132,2,10,-192.89246,247.56291,3395.8809,42.55903,562192.5,719.362,128.94489,132.08237,136.35286,136.35286,11.423327,1,11.372086,0,0,4.62359,4.623591,0,9,255,0,0,0,3,0,225,0
True,7672906,9499.995,1203.1134,7546.5127,-4.168026,0.5059694,7.1281023,-0.08045673,-0.36358452,43.30227,-0.025159404,-0.057584375,-0.044667307,1.9045861,-0.018108131,0.004250139,0.5656057,0.458835,0.66138464,0.60576886,0.16481337,0.19014779,0.20531726,0.20533164,125.66669,126.16308,125.96357,126.16274,0,0,0,0,0,0,0,0,0,0,0,0,0.0144631695,0.058007635,0.007397401,0.00020543937,0.16544676,0.19879906,0.20545048,0.20533174,0.004845988,-0.0013366714,0.010380853,0.0071585104,85,4,132,2,10,-188.82364,247.59956,3394.464,43.30387,566015,716.29346,128.79669,131.82657,136.1086,136.1086,11.60954,1,15.608754,0,0,4.723925,4.7239256,0,9,255,0,0,0,3,0,234,0
True,7673000,9499.995,1203.1134,7734.885,-3.5221643,0.061450966,5.72137,-0.39557648,-0.22838613,43.934845,0.0054370966,-0.03558328,-0.029047217,1.8978223,-0.017007604,-0.0012703867,0.40628126,0.30310738,0.6468861,0.5925594,0.21599095,0.29658538,0.30996165,0.34182712,128.13054,129.27238,129.18323,129.57259,0,0,0,0,0,0,0,0,0,0,0,0,0.26045248,0.3153418,0.074122526,0.06862763,0.33836016,0.43290108,0.31870106,0.34864816,-0.004379846,-0.010354228,0.009540819,0.0063931644,85,4,132,2,10,-183.80702,247.6626,3392.788,43.937218,572604.8,707.1062,128.64685,131.56117,135.85175,135.85175,11.911597,1,20.804073,0,0,4.8452063,4.8452063,0,9,255,0,0,0,3,127,248,0
True,7673125,9499.995,1203.1134,7840.342,-0.34941852,0.77236694,5.9349914,-0.5018997,-0.28910083,44.47842,-0.047386732,0.105127394,-0.010301575,1.9010634,-0.0197724,-0.002512933,0.38661888,0.20545805,0.5637349,0.4337688,0.22327788,0.49342975,0.26138347,0.3259328,130.07333,132.85208,130.47264,130.8621,0,0,0,0,0,0,0,0,0,0,0,0,0.575331,0.6963783,0.1208969,0.13145287,0.6171375,0.8534727,0.28798848,0.3514428,-0.005518414,-0.016008705,0.0047230907,-0.0028070584,85,4,132,2,10,-179.84328,247.71465,3391.4895,44.48219,576441.06,702.4083,128.65317,131.47585,135.69774,135.69774,12.16623,1,24.89872,0,0,4.93957,4.93957,0,9,255,0,0,0,3,127,4,0
True,7673234,9499.995,1203.1134,8022.273,3.9496088,0.15104374,5.987803,-0.93834305,-0.37970155,45.149,0.016019545,0.22392498,-0.017514523,1.9216002,-0.022284258,-0.0049279397,0.3355496,0.110404715,0.5651719,0.426027,0.339504,0.78129464,0.2723079,0.41024607,133.39796,137.47618,133.0505,133.47736,0,0,0,0,0,0,0,0,0,0,0,0,0.93983805,1.1335639,0.22747096,0.2508809,0.999279,1.376731,0.35481635,0.4808774,-0.0084756315,-0.021512859,0.004806351,-0.0032556131,85,4,132,2,10,-174.91133,247.78778,3389.8296,45.160343,581620.9,692.5644,128.86685,131.65475,135.56747,135.56747,12.493524,1,29.994686,0,0,5.0556417,5.0556417,0,9,255,0,0,0,3,127,18,0
True,7673343,9499.995,1203.1134,7667.155,10.037959,-0.6570003,4.435208,-1.0750084,-0.32870963,45.791782,0.049567524,0.31121704,0.013163826,1.9534862,-0.018460782,-0.006467076,0.42356575,0.21412377,0.577992,0.39189076,-0.36939457,-0.5823204,0.019510925,0.11347598,124.743576,120.457344,130.70111,130.47842,0,0,0,0,0,0,0,0,0,0,0,0,0.9135003,1.0771376,0.26643726,0.30675334,0.9853604,1.2244682,0.26715067,0.32706943,-0.0033789724,-0.015506908,0.0055491403,-0.0052334443,85,4,132,2,10,-169.84941,247.85489,3388.014,45.805576,578725.5,718.55115,129.2135,132.29808,135.52168,135.52168,12.5941,1,35.276077,0,0,5.1736712,5.173671,0,9,255,163,0,0,3,127,29,175
True,7673453,9499.995,1203.1134,7129.8384,14.034357,1.1404601,-10.6749,-1.217164,0.0038869884,44.445213,-0.005708549,0.43883055,0.02417568,1.9888506,-0.013377987,-0.0040837573,0.6829344,0.5023561,0.614358,0.42137232,-0.31165403,-0.8076094,-0.42154065,-0.477899,119.67321,115.35488,120.95793,118.61313,0,0,0,0,0,0,0,0,0,0,0,0,0.8034089,1.0652652,0.33683035,0.3849062,0.86173904,1.3367957,0.5395843,0.61362875,0.011640016,0.0011834577,0.0076561607,-0.0035253018,85,4,132,2,10,-165.65474,247.90782,3386.367,44.46188,238308.42,318.7178,129.76599,132.76949,135.50398,135.50398,6.2937727,1,39.71303,0,0,5.2734213,5.273421,0,8,125,255,0,0,3,127,36,129
True,7673578,9499.995,1203.1134,7584.385,15.916254,0.48421767,-6.3670564,-1.7993221,0.07864681,43.178432,0.0043622274,0.4871317,-0.0034920466,2.0455234,-0.014262144,-0.0037942373,0.69297975,0.47604692,0.5916334,0.39458323,0.19110827,0.46699682,0.15803632,0.4201449,126.144714,126.935814,126.4413,126.956436,0,0,0,0,0,0,0,0,0,0,0,0,1.0769726,1.3420788,0.47387463,0.5424851,1.0937972,1.4210073,0.49953243,0.6861573,0.012221701,-0.0003399998,0.006339509,-0.005077444,85,4,132,2,10,-160.93361,247.99028,3384.3013,43.21598,540063.1,681.1698,130.41379,133.70241,135.57463,135.57463,8.963077,1,44.797176,0,0,5.391703,5.3917027,0,8,255,0,0,0,3,127,41,0
True,7673703,9499.995,1203.1134,7952.01,15.15458,-0.45732972,5.3082995,-2.8068752,-0.13832332,43.73846,-0.052615516,0.5482431,0.002080312,2.1076553,-0.015936647,-0.0047982614,0.6019937,0.2830594,0.6123366,0.41626963,0.36752242,1.06917,0.43058094,0.7656349,130.35281,135.60205,132.0146,133.37943,0,0,0,0,0,0,0,0,0,0,0,0,1.1982808,1.52645,0.6473926,0.75248384,1.2533753,1.8636454,0.777507,1.0735123,0.006953068,-0.011515126,0.0075390413,-0.0038209483,85,4,132,2,10,-156.17975,248.06342,3381.9912,43.82865,568888.8,683.3354,131.73608,135.53609,135.7786,135.7786,11.864884,1,50.014137,0,0,5.5132456,5.513245,0,8,255,0,0,0,3,127,45,0
True,7673812,9499.995,1203.1134,8069.193,17.331535,0.8332798,7.464079,-3.4955845,-0.17635708,44.41352,0.03909646,0.46623296,-0.037452713,2.1724544,-0.019597592,-0.00870028,0.6530281,0.2841618,0.710907,0.4880736,0.51467353,1.0962919,0.42360967,0.70484734,133.57407,137.79135,133.72359,134.87836,0,0,0,0,0,0,0,0,0,0,0,0,1.4394953,1.6914542,0.72115034,0.8694742,1.5287366,2.015657,0.8363629,1.1192833,0.009908263,-0.011451289,0.013250142,0.00033932552,85,4,132,2,10,-151.45612,248.1436,3379.4185,44.55122,562674.5,666.0929,133.87961,138.51103,136.23685,136.23685,12.569411,1,55.123444,0,0,5.6349583,5.6349583,0,8,255,0,0,0,3,127,47,0
True,7673937,9499.995,1203.1134,8228.968,16.352732,-0.39771616,7.4758215,-4.1812973,-0.11623953,44.93776,0.002316068,0.49406165,0.0004558341,2.2266915,-0.015697628,-0.012364073,0.59787494,0.29839894,0.6717693,0.44863883,0.5492413,1.0452249,0.5149134,0.84930617,135.74022,138.8987,136.14354,138.76668,0,0,0,0,0,0,0,0,0,0,0,0,1.5120318,1.780318,0.8480165,1.0165496,1.608697,2.064468,0.99210274,1.3246486,0.0067145675,-0.010626875,0.010982532,-0.0019454993,85,4,132,2,10,-147.0467,248.22119,3376.7554,45.132015,537488.5,623.81213,136.51456,141.55632,136.76448,136.76448,12.9663725,1,60.20911,0,0,5.749843,5.749843,0,8,255,0,0,0,3,127,47,0
True,7674046,9499.995,1203.1134,8293.755,18.816061,0.9117036,9.282454,-4.790619,-0.14276621,45.526333,-0.032308765,0.48820484,-0.025057953,2.2845297,-0.017469501,-0.013776357,0.67652136,0.36667052,0.69613403,0.46191835,0.2670839,0.9530564,0.4372847,0.7993588,135.15608,141.3755,136.58449,140.61716,0,0,0,0,0,0,0,0,0,0,0,0,0.7133847,0.89088845,0.9115973,1.0944912,0.7617424,1.3046067,1.0110527,1.3553175,0.011268664,-0.0066735446,0.012394208,-0.0011760928,85,4,132,2,10,-142.71127,248.29723,3373.8772,45.777912,589187.6,678.58636,138.42741,143.6246,137.81554,137.81554,13.177934,1,65.34487,0,0,5.86438,5.8643794,0,8,255,0,0,0,3,0,45,0
True,7674156,9499.995,1203.1134,8490.507,14.188843,-0.7198543,6.857801,-5.196926,-0.12741917,46.055534,0.07456308,0.35072157,-0.054315038,2.330433,-0.014296067,-0.01913076,0.6304825,0.33535054,0.698312,0.50615287,0.4003136,1.1659522,0.7368871,0.7543259,137.99425,145.79176,141.8413,141.60912,0,0,0,0,0,0,0,0,0,0,0,0,0.88746357,1.0190779,1.0241209,1.158567,0.9735721,1.5485362,1.261676,1.3824923,0.008602738,-0.0084871575,0.012520399,0.001386825,85,4,132,2,10,-138.57994,248.37637,3370.8647,46.347996,530951.9,597.5128,138.42957,144.10344,139.12436,139.12436,13.444842,1,70.379555,0,0,5.975361,5.975361,0,8,255,0,0,0,3,0,39,0
True,7674250,9499.995,1203.1134,8474.468,7.2561364,-1.7370545,7.5020204,-5.8831844,-0.16176313,46.570057,-0.013561722,0.2172774,-0.043577686,2.3574526,-0.00976587,-0.024150584,0.60259587,0.43469143,0.6648803,0.5053608,0.3271378,0.2740299,0.6523601,0.81106585,138.9845,137.33081,144.2838,141.90009,0,0,0,0,0,0,0,0,0,0,0,0,-0.2855921,-0.13206637,1.1293354,1.1869195,0.4342603,0.30419388,1.3042133,1.4375694,0.006987937,-0.0027347282,0.010583386,0.0013409331,85,4,132,2,10,-135.27568,248.42172,3368.321,46.940475,553676.9,623.69745,138.337,144.05836,140.24991,140.24991,13.629493,1,74.35523,0,0,6.0648003,6.0648003,0,8,255,0,0,0,3,-127,34,0
True,7674359,9499.995,1203.1134,8536.289,13.885435,0.9846758,7.6601057,-4.9910164,-0.22758558,47.37312,0.001391042,0.006860652,0.041089665,2.368823,-0.014011418,-0.023138288,0.54956234,0.51509094,0.7548748,0.6565913,0.5969353,0.6103316,0.30676836,0.659183,143.56064,143.614,140.22563,143.87717,0,0,0,0,0,0,0,0,0,0,0,0,0.98216593,1.0329205,0.78537023,1.0182432,1.1493397,1.1997622,0.8431567,1.2129886,0.003916979,0.0019208826,0.015797611,0.010103129,85,4,132,2,10,-131.2086,248.47691,3365.073,47.63585,591871.25,663.0244,138.24442,143.5989,141.51831,141.51831,13.621486,1,79.490776,0,0,6.1747556,6.1747556,0,8,255,0,0,0,3,0,30,0
True,7674468,9499.995,1203.1134,8636.701,17.102137,-0.017455822,8.68206,-3.4946346,-0.32493377,48.092976,-0.060392953,-0.0059659155,0.09709813,2.367955,-0.015483937,-0.014963196,0.4862774,0.4500095,0.6015938,0.59404707,0.23540758,0.65491176,0.33307806,0.66196984,140.996,146.55734,142.97446,145.88403,0,0,0,0,0,0,0,0,0,0,0,0,0.5673989,0.69410384,0.5525502,0.6670518,0.61429495,0.9543006,0.6451765,0.93976706,0.00025240704,-0.0018477216,0.0069166087,0.0064793564,85,4,132,2,10,-127.79035,248.52136,3362.146,48.220867,592690.06,655.20795,138.35199,143.43484,141.83049,141.83049,13.89376,1,83.924416,0,0,6.268709,6.268709,0,8,255,0,0,0,3,0,24,0
True,7674578,9499.995,1203.1134,8609.602,12.601696,0.5447716,7.6923876,-1.2158203,-0.2732506,49.11751,0.06407079,-0.17522532,-0.013988692,2.358037,-0.018633747,-0.009401586,0.47040218,0.43876928,0.7119511,0.6289546,0.38328964,0.23272507,0.2538961,0.23717298,145.09912,143.84346,143.09615,143.77583,0,0,0,0,0,0,0,0,0,0,0,0,-0.39835566,-0.31038877,0.17372388,0.17627215,0.55280936,0.38794607,0.30764136,0.29550448,-0.0006668642,-0.002498597,0.013310637,0.008501876,85,4,132,2,10,-123.60513,248.59341,3358.262,49.133316,593185.6,658.1809,138.29947,143.06372,142.03185,142.03185,13.844739,1,89.5319,0,0,6.3859525,6.3859525,0,8,255,0,0,0,3,-31,12,0
True,7674687,9499.995,1203.1134,8561.843,-3.3845499,-0.8274391,6.400695,-0.10316467,-0.3242718,49.826145,-0.025279231,-0.43365622,-0.03715476,2.323287,-0.016179731,-0.011027081,0.40480763,0.451856,0.57570386,0.58427215,0.20612137,0.059544314,0.10258007,0.055121277,143.2478,143.45274,142.05594,143.04561,0,0,0,0,0,0,0,0,0,0,0,0,-0.8107937,-0.6590413,-0.07649584,-0.07421417,0.8365838,0.6617257,0.12796204,0.092445105,-0.0044651777,-0.0017407984,0.0054165646,0.0059130043,85,4,132,2,10,-119.53397,248.65247,3354.4055,49.82731,-201525.25,-224.17493,138.29166,142.75653,141.98563,141.98563,7.796563,1,95.03307,0,0,6.4992447,6.4992437,0,8,255,0,0,0,3,-42,254,0
True,7674812,9499.995,1203.1134,7982.6646,-6.8729477,-0.5076918,0.17519426,1.1772976,-0.17831278,49.67254,0.050984897,-0.2891037,-0.0075358488,2.2807624,-0.013247744,-0.011790229,0.41863945,0.5541577,0.56101733,0.6420555,-0.00016045677,0.0013544001,-0.00013376398,0.001987078,140.86852,142.26929,140.35869,141.78357,0,0,0,0,0,0,0,0,0,0,0,0,-0.15714231,-0.10556156,-0.29242212,-0.2742267,0.15714239,0.10557025,0.29242215,0.2742339,-0.0036642328,0.0041830763,0.0045656376,0.009260934,85,4,132,2,10,-115.50872,248.70697,3350.7168,49.686813,-172865.75,-206.38043,138.13281,142.3653,141.86823,141.86823,-7.51443,1,100.40464,0,0,6.608982,6.6089807,0,8,255,0,0,0,3,0,243,0
True,7674921,9499.995,1203.1134,7320.573,-11.376826,1.397386,-0.7379441,1.1527519,-0.08620658,49.53978,-0.0514396,-0.20825262,0.0020450838,2.2550983,-0.014554086,-0.012256825,0.52659005,0.6770348,0.52463245,0.65307295,0.035918094,0.011796108,0.05778814,0.015399321,141.36703,141.98264,141.11195,141.82771,0,0,0,0,0,0,0,0,0,0,0,0,-0.39330536,-0.30431068,-0.25736028,-0.23901835,0.39494205,0.3045392,0.26376843,0.2395139,0.0025867485,0.011298396,0.0024575219,0.009899277,85,4,132,2,10,-111.361336,248.76323,3347.0703,49.553265,-91182.95,-118.59553,137.99539,142.02393,141.78552,141.78552,-10.07365,1,105.84552,0,0,6.7202907,6.720289,0,8,255,0,0,0,4,-127,236,0
True,7675015,9499.995,1203.1134,6393.4023,-10.658354,0.25684,2.2707796,1.0646172,-0.14939827,49.811325,0.026604239,-0.22262605,0.04667053,2.2344995,-0.016410029,-0.008977443,0.35273588,0.6653322,0.52880144,0.69352496,0.3216112,0.10944285,0.19058849,0.101153426,145.5109,143.87164,143.97708,143.67801,0,0,0,0,0,0,0,0,0,0,0,0,-0.81342804,-0.6749825,-0.25425604,-0.23697376,0.87469935,0.68379754,0.31775793,0.25765982,-0.0074804425,0.010620743,0.0026990697,0.01224304,85,4,132,2,10,-107.73641,248.82797,3344.046,49.82293,256843.58,383.65723,137.98294,141.8749,141.76553,141.76553,-2.725007,1,110.502205,0,0,6.8153396,6.8153386,0,8,255,0,0,0,4,-127,232,0
True,7675140,9499.995,1203.1134,6417.613,-12.310316,-0.91795,4.5327,1.3213806,-0.19710474,50.24847,0.007745879,-0.2849824,0.039406955,2.2032886,-0.014557245,-0.003788689,0.22069672,0.5401745,0.43022087,0.649215,0.30226207,0.12968406,0.3064713,0.1843714,147.04115,146.03459,146.75002,146.64513,0,0,0,0,0,0,0,0,0,0,0,0,-0.19628578,-0.13870114,-0.31318375,-0.28623506,0.3604032,0.18988407,0.438188,0.34047514,-0.015126295,0.0033733696,-0.0030126236,0.009675749,85,4,132,2,10,-103.30731,248.89366,3340.5254,50.266224,468070.12,696.53375,138.12944,141.84825,141.75978,141.75978,6.960311,1,116.07792,0,0,6.9284873,6.9284863,0,8,255,0,0,0,4,0,231,0
True,7675250,9499.995,1203.1134,6467.446,-11.586756,-0.4029773,5.799115,1.2727394,-0.26570633,50.811302,-0.027168933,-0.13428654,0.050972342,2.18378,-0.014809469,0.0006296877,0.31008458,0.6483932,0.3872332,0.66488475,0.20298696,0.116356514,0.2617772,0.16981778,147.72395,147.18062,148.16461,147.71947,0,0,0,0,0,0,0,0,0,0,0,0,-0.21924594,-0.16392758,-0.267878,-0.23651282,0.298785,0.2010251,0.3745476,0.29116386,-0.009950206,0.009639878,-0.0055033006,0.010583647,85,4,132,2,10,-99.37582,248.94168,3337.5476,50.827927,489683.6,723.0324,138.08107,141.62341,141.79784,141.79784,8.931212,1,120.94522,0,0,7.0260587,7.0260572,0,8,255,0,0,0,4,0,233,0
True,7675343,9499.995,1203.1134,6522.6562,-9.174145,0.7250328,6.137309,0.64832306,-0.19739479,51.436775,0.002875343,-0.016938042,0.038723696,2.1773782,-0.015515905,0.005366171,0.38054967,0.61650753,0.5677131,0.7122054,0.13620137,0.11064384,0.20214762,0.16492589,148.82483,148.54732,149.37428,149.05919,0,0,0,0,0,0,0,0,0,0,0,0,-0.17347658,-0.12828371,-0.11889101,-0.117951244,0.22055598,0.16940711,0.23451808,0.20276351,-0.005869858,0.0077935047,0.0049535856,0.013325375,85,4,132,2,10,-95.09835,248.99878,3334.4458,51.44124,498356.3,729.77594,138.03598,141.39882,141.81432,141.81432,9.455737,1,126.15789,0,0,7.129377,7.1293755,0,8,255,0,0,0,4,-7,237,0
True,7675453,9499.995,1203.1134,6625.2354,-8.453765,0.49289793,5.4635487,0.20641899,-0.23069179,52.131668,-0.014743339,-0.15879431,0.026161084,2.1690807,-0.017161718,0.008906048,0.45426682,0.65674245,0.56443214,0.67926294,0.24281466,0.12836254,0.22492039,0.152822,151.89143,151.03918,151.46234,151.24875,0,0,0,0,0,0,0,0,0,0,0,0,-0.54770917,-0.45079476,-0.07164701,-0.07300311,0.5991196,0.46871406,0.23605609,0.16936357,-0.0016011968,0.010123346,0.0047634877,0.011416707,85,4,132,2,10,-89.93398,249.07619,3330.8286,52.132584,507878.5,732.197,138.04405,141.22318,141.81786,141.81786,9.730945,1,132.37463,0,0,7.2511163,7.251115,0,8,255,0,0,0,4,-127,242,0
True,7675578,9499.995,1203.1134,6745.2285,-8.088322,-0.5443754,6.0286775,0.746891,-0.22977525,52.72918,0.073664755,-0.2724172,0.031628434,2.1390646,-0.016620945,0.012415512,0.4645576,0.61290175,0.6219907,0.70618695,0.39981663,0.2425324,0.2755188,0.17928973,155.67502,154.71964,153.66606,153.59544,0,0,0,0,0,0,0,0,0,0,0,0,-0.09161434,-0.039633997,-0.18611829,-0.18289475,0.41017866,0.2457495,0.33249155,0.2561158,-0.0010052994,0.0075847097,0.008098394,0.012976669,85,4,132,2,10,-84.95468,249.15677,3327.4854,52.734966,517410.5,732.7226,138.19281,141.20659,141.85101,141.85101,9.948308,1,138.25291,0,0,7.3654914,7.36549,0,8,255,0,0,0,4,0,245,0
True,7675671,9499.995,1203.1134,6928.771,-4.7544546,-4.542747,4.939384,1.4132328,-0.23078403,53.161232,0.07375698,-0.20164967,-0.0027585626,2.1189537,-0.006666582,0.014066384,0.25689188,0.33799952,0.50055474,0.57920325,0.39845094,0.282537,0.5380389,0.47296977,157.20361,156.50166,158.83112,159.21204,0,0,0,0,0,0,0,0,0,0,0,0,-0.21676892,-0.16864406,-0.301067,-0.28439674,0.45359886,0.329041,0.61654454,0.5518894,-0.01303038,-0.008333765,0.0010624751,0.0056193173,85,4,132,2,10,-80.8655,249.194,3324.816,53.18051,502867.88,692.8383,138.21661,141.06108,141.91866,141.91866,10.281507,1,143.0723,0,0,7.4577203,7.4577193,0,8,255,0,0,0,4,0,245,0
True,7675781,9499.995,1203.1134,6854.72,-9.205962,-0.9332622,6.3423243,1.3484383,-0.34615946,53.929047,-0.049753524,-0.11760928,-0.030667726,2.0997033,-0.006781045,0.011195939,0.31594962,0.45536846,0.43521193,0.52245086,0.2093657,0.10364065,0.19862355,0.1906701,156.98422,155.9791,156.97015,156.44322,0,0,0,0,0,0,0,0,0,0,0,0,-0.2582339,-0.19368725,-0.25092733,-0.22206242,0.3324436,0.2196728,0.32002476,0.29268894,-0.009610586,-0.001537405,-0.0027234443,0.0023311228,85,4,132,2,10,-75.80564,249.19727,3321.6062,53.94701,527461.5,734.7844,138.26968,140.96184,142.04176,142.04176,10.336955,1,148.98465,0,0,7.5695477,7.5695467,0,8,255,0,0,0,4,-11,247,115
True,7675906,9499.995,1203.1134,6929.3,-10.971053,0.8112338,6.5119314,0.8743553,-0.33357945,54.45832,0.031149564,-0.124272764,0.018927932,2.0894122,-0.0087124845,0.011182328,0.27457058,0.49294254,0.51050544,0.67366,0.2890045,0.17465271,0.2359515,0.14470097,159.35866,158.29462,158.31467,157.9029,0,0,0,0,0,0,0,0,0,0,0,0,-0.59550184,-0.5108801,-0.1728372,-0.16079366,0.66192603,0.5399093,0.29248214,0.21631685,-0.012006678,0.0006383583,0.0016390122,0.011092078,85,4,132,2,10,-71.483475,249.20758,3318.994,54.46636,531786.3,733.11365,138.33687,140.93797,142.1106,142.1106,10.385324,1,153.96463,0,0,7.662693,7.662692,0,8,255,0,0,0,4,-127,251,118
True,7676015,9499.995,1203.1134,6572.4844,-10.461828,-1.6295472,-2.671032,0.9341564,-0.23227435,54.37078,0.061335605,-0.23871642,-0.0053220354,2.0676544,-0.0021066626,0.011837645,0.25035045,0.45742753,0.39869422,0.5465759,-0.12829201,-0.44059545,-0.22790056,-0.2259902,151.15878,148.20341,149.93211,150.91393,0,0,0,0,0,0,0,0,0,0,0,0,-1.0185254,-0.843599,-0.22258253,-0.1984237,1.0265733,0.9517267,0.31856185,0.3007383,-0.0134091675,-0.0014181733,-0.0048392564,0.0037289113,85,4,132,2,10,-65.80711,249.2095,3315.7092,54.3793,508025.84,738.7145,138.59897,141.09775,142.15933,142.15933,10.147113,1,160.42412,0,0,7.782745,7.7827435,0,8,255,179,0,0,4,-127,4,26
True,7676125,9499.995,1203.1134,6876.364,-11.301981,0.11222473,-0.24369955,1.3660984,-0.0043343008,54.02722,-0.0016427296,-0.29296625,0.01617761,2.036081,0.0016226999,0.011406,0.38765827,0.63014716,0.3750442,0.5739082,0.19951124,0.10779712,0.27921924,0.16273876,156.67693,156.68228,157.4483,157.23381,0,0,0,0,0,0,0,0,0,0,0,0,-0.18169333,-0.12829599,-0.30141756,-0.2705668,0.26984665,0.16757111,0.41087216,0.3157377,-0.0054582283,0.008583322,-0.0062095225,0.0053125247,85,4,132,2,10,-60.977016,249.19981,3313.0613,54.044487,526386.2,731.28564,138.94836,141.31335,142.19876,142.19876,10.1171255,1,165.84412,0,0,7.8847055,7.8847036,0,8,255,0,0,0,4,0,15,108
True,7676218,9499.995,1203.1134,6971.234,-10.857731,-1.015034,4.7135744,1.4828606,-0.18737136,54.564713,-0.014843023,-0.1409036,0.024614686,2.0154762,0.0006311182,0.013286501,0.2906577,0.536676,0.38770556,0.5685696,0.3138044,0.13423121,0.28329492,0.20202215,160.27837,158.29987,159.47638,159.12505,0,0,0,0,0,0,0,0,0,0,0,0,-0.24751784,-0.18484029,-0.28360215,-0.25765705,0.39967272,0.22843806,0.40085682,0.32741427,-0.011075139,0.0031707846,-0.005475931,0.00500321,85,4,132,2,10,-56.311024,249.18684,3310.627,54.585182,534161.56,731.7853,138.98993,141.26793,142.30661,142.30661,10.412526,1,171.01335,0,0,7.9816,7.981598,0,8,255,0,0,0,4,0,28,99
True,7676328,9499.995,1203.1134,6988.427,-9.491432,-0.050416492,6.581779,1.0693893,-0.3183707,55.063507,-0.05569603,-0.07729882,0.02097187,2.0077212,-0.0016117455,0.015262271,0.28786626,0.5452664,0.41781938,0.6188657,0.17174473,0.099559814,0.21297604,0.15785587,159.74579,159.0477,159.98544,159.67064,0,0,0,0,0,0,0,0,0,0,0,0,-0.31799027,-0.25396177,-0.19525097,-0.1774865,0.3614057,0.27277964,0.28893206,0.2375288,-0.011236779,0.0036682189,-0.0037311576,0.007917333,85,4,132,2,10,-52.36265,249.16858,3308.651,55.07481,497384.1,679.64923,139.0428,141.25482,142.38815,142.38815,10.230029,1,175.34247,0,0,8.062113,8.06211,0,8,241,0,0,0,4,-127,40,89
True,7676437,9499.995,1203.1134,6340.015,-9.855625,1.4223567,-10.2310095,0.6041584,-0.09495261,53.946213,0.09010163,-0.14008927,0.03066847,1.9969475,-0.0012028248,0.018028691,0.47098207,0.6789549,0.5143458,0.685627,-0.5610448,-0.8422396,-0.4096331,-0.36090437,144.59904,141.1204,145.2832,146.36166,0,0,0,0,0,0,0,0,0,0,0,0,-0.6435344,-0.5451917,-0.1365136,-0.1350108,0.85376096,1.0032953,0.43178147,0.38533086,-0.00063328445,0.011409581,0.0018615201,0.011785436,85,4,132,2,10,-47.382816,249.15941,3306.2683,53.94968,184053.38,277.08832,139.21753,141.38713,142.46353,142.46353,4.0549498,1,180.77928,0,0,8.162991,8.162988,0,8,97,255,0,0,4,-127,58,197
True,7676546,9499.995,1203.1134,5549.2686,-8.326479,-1.2248849,-16.023554,1.006752,0.0741117,52.2543,0.038865477,-0.29735735,0.042007927,1.9741498,0.0059457915,0.020470858,0.38316804,0.653517,0.418696,0.59906334,-0.9513005,-1.4299284,-1.3958032,-1.3258307,133.09778,122.69788,125.71243,126.864914,0,0,0,0,0,0,0,0,0,0,0,0,-0.7774296,-0.66422653,-0.252649,-0.2456301,1.2285639,1.5766712,1.4184844,1.3483921,-0.0057182387,0.009936575,-0.003680367,0.006769996,85,4,132,2,10,-42.45569,249.14642,3304.0117,52.264046,76769.664,131.7575,140.25212,141.73753,142.78358,142.78358,-2.0889463,1,186.08136,0,0,8.265,8.2649975,0,8,95,255,0,0,4,-40,78,190
True,7676671,9499.995,1203.1134,6389.4624,-9.679529,-1.2937894,-7.5421906,1.7913151,0.23454696,50.757618,-0.008753745,-0.24442379,-0.0061337864,1.939189,0.013386334,0.023323642,0.39758313,0.61904365,0.23474638,0.38741463,0.07215242,0.032406956,0.18157978,0.068058915,145.32062,145.91975,145.3369,147.0305,0,0,0,0,0,0,0,0,0,0,0,0,-0.27406558,-0.21603999,-0.40852585,-0.3514856,0.28340417,0.21845706,0.4470622,0.3580142,-0.0048835203,0.007940363,-0.014338285,-0.005492788,85,4,132,2,10,-36.549988,249.10698,3301.408,50.789753,206640.27,308.9582,141.15927,143.36763,143.55542,143.55542,-1.0834379,1,192.38339,0,0,8.391082,8.391078,0,8,255,0,0,0,4,0,101,47
True,7676781,9499.995,1203.1134,6520.9893,-13.738563,7.937766,2.4185529,1.4452362,0.17732665,51.097378,-0.34495583,-0.23884866,-0.50040066,1.916479,-0.002299748,0.0034118174,1,0.5027563,0.21022722,0.59036195,0.059316758,0.1745396,0.35862976,0.10576358,146.6997,149.43628,149.89294,149.0111,0,0,0,0,0,0,0,0,0,0,0,0,-0.2983131,-0.3825793,-0.31849682,-0.18392617,0.30415323,0.42051277,0.47964105,0.21216685,0.030000001,0.0012066327,-0.01575891,0.006265845,85,4,132,2,10,-31.590637,249.082,3299.374,51.118114,465026.28,681.37366,141.36356,143.33585,143.6062,143.6062,5.95424,1,198.21689,0,0,8.496332,8.496329,0,8,255,0,0,0,4,-127,120,42
True,7676875,9499.995,1203.1134,6642.328,-10.759375,0.8361993,4.4738855,1.4864349,-0.5432968,51.480156,-0.04303404,-0.15721633,-0.26869956,1.9001477,-0.01723699,-0.028285574,0.44180736,0.22868925,0.729376,0.5976248,0.69196355,0.19422081,0.3812222,0.22272204,155.89519,149.86644,151.93402,150.59195,0,0,0,0,0,0,0,0,0,0,0,0,-0.8964556,-0.7107959,-0.30314326,-0.25215366,1.1324514,0.7368531,0.4870587,0.33643213,-0.0023226738,-0.01466348,0.014320228,0.0066866465,85,4,132,2,10,-27.588999,249.11339,3297.8445,51.504475,444656.44,639.9057,141.48491,143.366,143.67534,143.67534,8.242661,1,202.44801,0,0,8.579821,8.579817,0,8,225,0,0,0,4,-127,127,33
True,7676984,9499.995,1203.1134,5912.4253,-17.816772,5.9368706,-14.7098255,1.0001669,-0.30025673,49.866203,-0.08874717,-0.34116232,-0.29014704,1.8747712,-0.023225162,-0.053071912,0.7084557,0.6595338,0.6527312,0.5588737,-0.10439044,-0.3748532,-0.6997725,-0.18912585,138.34695,134.1534,130.42633,138.69682,0,0,0,0,0,0,0,0,0,0,0,0,-0.82278687,-0.68269193,-0.26608536,-0.17470603,0.82938266,0.7788345,0.74865407,0.25746995,0.01311785,0.010284983,0.009879477,0.0044414364,85,4,132,2,10,-22.332077,249.15405,3295.964,49.87714,154606.12,249.03844,142.16507,143.80988,143.75076,143.75076,2.4501715,1,207.95349,0,0,8.689416,8.689412,0,8,0,255,0,0,4,-127,127,147
True,7677093,9499.995,1203.1134,3985.0244,-32.2535,5.4216743,-97.73428,-1.7004056,-0.04231541,32.48765,-0.022534937,-0.7378063,0.045688473,1.8110187,-0.043906778,-0.05172172,0.60766685,0.68872607,0.712465,0.7028861,-0.47597224,-0.24873507,-0.33176893,-0.5162647,86.48655,91.876366,86.89089,88.35868,0,0,0,0,0,0,0,0,0,0,0,0,-0.61981297,-0.4485891,0.17644225,0.17106329,0.78148425,0.512934,0.3757692,0.5438675,0.007281579,0.011975389,0.013340414,0.01278542,85,4,132,2,10,-18.358156,249.29291,3295.027,32.532146,-35582.848,-84.94564,143.94855,144.54626,144.90187,144.90187,-6.8817825,1,213.92462,0,0,8.800028,8.800024,0,8,0,255,0,0,4,-127,127,129
True,7677203,9499.995,1203.1134,3719.9326,-19.825333,0.46092469,-51.23149,-0.73470926,0.05008118,27.305197,0.04628986,-0.87328094,0.04924152,1.7199516,-0.045216575,-0.04342859,0.30174735,0.5717588,0.43476617,0.42296174,0,-0.6110217,-1.4407337,-2.0079737,61.418472,74.3693,64.082535,62.777657,0,0,0,0,0,0,0,0,0,0,0,0,0,-0.912979,-0.17026672,-0.16376257,0,1.0985801,1.4507599,2.0146406,-0.010432981,0.0052022897,-0.0027492717,-0.0034332126,85,4,132,2,10,-15.213931,249.45056,3294.564,27.315126,167985.72,434.70544,144.65137,145.45258,145.70029,145.70029,-9.219926,1,217.0753,0,0,8.909882,8.909877,0,8,94,255,0,0,3,-127,117,129
True,7677312,9499.995,1203.1134,4185.4243,-15.012799,-2.0576594,-18.009172,1.0950763,-0.040192217,25.467796,0.028327646,-1.0154879,0.22642697,1.6026052,-0.039509688,-0.027522122,0.096692555,0.6946041,0.2529753,0.4235282,0,0.044140596,0,-0.6239398,17.435759,74.06942,69.80742,71.87809,0,0,0,0,0,0,0,0,0,0,0,0,0,-1.4149939,0,-0.94353306,0,1.4156822,0,1.1311744,-0.022306874,0.012315761,-0.013282113,-0.0034003928,85,4,132,2,10,-11.895161,249.58784,3294.2234,25.491356,70223.95,158.98227,144.31396,147.55774,146.39273,146.39273,-4.0651436,1,222.02814,0,0,9.036506,9.036501,0,8,222,255,0,0,3,-127,91,129
True,7677421,9499.995,1203.1134,3546.804,-19.097385,1.9179729,-14.609919,2.2696714,-0.06355888,23.502804,0.047977142,-0.99748224,0.09145296,1.4757044,-0.047961555,-0.004031313,0.16957285,0.6557758,0.216519,0.69837904,-0.73753744,-1.573353,-1.1438364,-0.98994595,57.400627,56.579487,56.009533,59.9318,0,0,0,0,0,0,0,0,0,0,0,0,-2.4982314,-2.0509646,-1.4934579,-1.1747366,2.6048267,2.5849361,1.8811641,1.5362289,-0.018086672,0.01006737,-0.015394367,0.012524284,85,4,132,2,10,-8.996829,249.69937,3294.101,23.612226,-26836.438,-71.9891,149.78503,152.36458,147.03186,147.03186,-2.4023924,1,224.66551,0,0,9.154924,9.15492,0,8,255,255,0,0,3,-127,61,129
True,7677546,9499.995,1203.1134,3311.7751,-16.736961,0.5471752,-10.02864,3.0693955,0.120440714,21.90523,0.005848656,-1.0090061,0.0050462517,1.3625829,-0.041511644,0.0076805684,0.45461845,0.6858362,0.2631456,0.5630802,-0.21127348,-0.021810375,-1.8332617,-0.010188334,56.183926,62.455982,48.899773,64.606094,0,0,0,0,0,0,0,0,0,0,0,0,-2.7712166,-2.2526848,-2.0372036,-1.5935578,2.7792585,2.2527905,2.740629,1.5935904,-0.0015808344,0.011808049,-0.012692854,0.004685156,85,4,132,2,10,-6.3710938,249.82239,3294.1892,22.119555,-22289.314,-64.21445,156.62978,158.79044,151.08765,151.08765,-9.552807,1,227.12819,0,0,9.270413,9.270409,0,8,255,0,0,0,3,-127,31,0
True,7677656,9499.995,1203.1134,4394.6016,-15.69096,-0.3076887,-3.1430411,3.6266708,0.06337332,21.333439,-0.010648699,-1.0215178,-0.022168102,1.2679831,-0.041491274,0.010371109,0.37803552,0.6672607,0.3304377,0.54232943,0.12003787,0.040636186,-0.16219646,0.013761897,56.127182,61.0273,57.282753,63.183952,0,0,0,0,0,0,0,0,0,0,0,0,-3.1865823,-2.4314153,-2.2986867,-1.8253521,3.1888425,2.4317548,2.3044019,1.8254039,-0.0060154423,0.010732416,-0.008793995,0.0034828708,85,4,132,2,10,-4.3607254,249.91675,3294.396,21.6396,260750.44,572.3748,161.63284,163.74646,154.19919,154.19919,-0.09887028,1,229.18076,0,0,9.362962,9.362957,0,8,255,0,0,0,2,-127,7,0
True,7677765,9499.995,1203.1134,5856.3726,-14.664794,-0.60758126,-0.90263987,4.272064,-0.0005713217,20.639631,0.01454017,-0.99172443,-0.024457708,1.150325,-0.040606245,0.0122172125,0.27106956,0.5370208,0.3380648,0.58403575,0.92016786,0.2388849,0.62385285,0.1147868,58.378365,59.955418,58.43832,63.10815,0,0,0,0,0,0,0,0,0,0,0,0,-3.5528343,-2.8706164,-2.667021,-2.1005008,3.67006,2.880539,2.7390132,2.1036348,-0.012209408,0.0031907521,-0.008352086,0.00589931,85,4,132,2,10,-1.9284263,250.0266,3294.831,21.077116,109943.234,179.5733,168.55109,170.61609,158.13104,158.13104,0.5443735,1,231.28319,0,0,9.47887,9.478867,0,8,255,0,0,0,2,-127,234,0
True,7677875,9499.995,1203.1134,6196.6865,-18.547888,0.51135874,1.7895904,4.48862,0.0755066,20.295116,-0.037362896,-0.9953621,-0.029291049,1.0545062,-0.03963616,0.013060269,0.3788999,0.6682216,0.3537981,0.6008144,1.8798097,0.6328446,1.3953574,0.78500307,62.626507,61.755737,63.39555,65.78828,0,0,0,0,0,0,0,0,0,0,0,0,-3.5867295,-2.8670347,-2.7974465,-2.147294,4.0494833,2.9360485,3.1261363,2.2862856,-0.0059653893,0.010788057,-0.0074405074,0.0068714544,85,4,132,2,10,0.03116948,250.11421,3295.3457,20.785694,199015.53,306.80252,174.63744,177.7891,162.85968,162.85968,3.0480566,1,233.083,0,0,9.575892,9.57589,0,8,255,0,0,0,2,-127,211,0
True,7677968,9499.995,1203.1134,6245.475,-17.878489,0.01823984,4.492694,4.9611254,-0.051376894,20.117105,-0.06240962,-0.98967934,-0.030787127,0.9599508,-0.043981664,0.014860983,0.38707617,0.52620393,0.33535185,0.60729367,1.8537844,0.65924805,1.8354714,0.7513242,64.101074,62.94113,64.24602,66.61221,0,0,0,0,0,0,0,0,0,0,0,0,-2.8113484,-2.3093774,-2.9530206,-2.2057815,3.3675208,2.401631,3.476965,2.3302274,-0.0054919347,0.0025643893,-0.008509271,0.0072468556,85,4,132,2,10,1.8802105,250.20052,3295.9875,20.719877,197316.55,301.73734,180.27788,184.2041,168.3622,168.3622,7.5933733,1,234.88231,0,0,9.670361,9.670358,0,8,255,0,0,0,2,0,191,0
True,7678093,9499.995,1203.1134,5885.511,-21.729435,1.910433,2.4131823,3.6781497,0.1594415,18.881,-0.024359956,-0.945959,-0.032322306,0.84878767,-0.041345667,0.014769245,0.5538222,0.67874324,0.5699792,0.6700697,1.1849301,0.34673563,2.2454495,0.8159306,58.285034,58.382412,63.87767,60.87738,0,0,0,0,0,0,0,0,0,0,0,0,-1.1951399,-0.95398533,-2.536776,-2.0866988,1.6829791,1.0150436,3.3878129,2.240548,0.0041636527,0.0113973245,0.0050848797,0.010884058,85,4,132,2,10,3.8883493,250.29219,3296.9912,19.236588,247284.11,401.6653,182.52917,184.80374,175.48172,175.48172,8.206286,1,237.03438,0,0,9.7883835,9.78838,0,8,255,0,0,0,2,0,174,0
True,7678203,9499.995,1203.1134,5999.3594,-14.764213,-0.30738845,6.911961,4.13619,-0.016224682,19.179962,-0.0792017,-0.8933392,-0.018745955,0.73658156,-0.046875875,0.015521439,0.47082755,0.570608,0.35712364,0.54029197,0.95344096,0.2497377,2.2800944,0.88213444,58.509045,59.09907,64.222435,63.56627,0,0,0,0,0,0,0,0,0,0,0,0,-0.2044685,0.033895813,-2.648396,-2.1694229,0.975119,0.25202745,3.4946861,2.341913,-0.0006422326,0.0051356517,-0.007247828,0.0033648238,85,4,132,2,10,5.8210998,250.40851,3298.2578,19.620888,255485.62,406.78522,183.05365,182.99536,181.79393,181.79393,8.446647,1,239.25159,0,0,9.907713,9.907709,0,8,255,0,0,0,2,52,165,0
True,7678328,9499.995,1203.1134,6170.129,-8.332347,0.7283658,8.799549,5.038755,-0.08924201,19.765015,-0.021868328,-0.61787945,-0.033771478,0.64792305,-0.053293433,0.017415904,0.5050291,0.3813995,0.5814075,0.69803864,0.2888562,0.8734028,1.9772162,0.8905222,58.018524,64.3291,65.44831,65.321754,0,0,0,0,0,0,0,0,0,0,0,0,0.08647647,0.52703,-2.6878538,-2.1582081,0.30152294,1.0200946,3.3367562,2.3347147,0.0013382398,-0.005820647,0.0057470277,0.012504559,85,4,132,2,10,7.6980934,250.52267,3299.6719,20.397373,332914.72,515.6289,180.84552,181.06123,188.84088,188.84088,8.730836,1,241.56541,0,0,10.025234,10.025232,0,8,255,0,0,0,2,127,159,0
True,7678421,9499.995,1203.1134,6406.0728,-10.456794,-0.024029464,7.426586,5.060632,-0.14771938,20.26249,-0.048288867,-0.508173,-0.100710586,0.5952621,-0.055932563,0.0134697165,0.458268,0.37215868,0.54991055,0.6018772,1.4396328,0.82954264,2.1486063,0.8544061,65.3678,64.58457,68.32194,66.06932,0,0,0,0,0,0,0,0,0,0,0,0,-1.993779,-1.7824256,-2.6392722,-2.0610824,2.4592066,1.9660066,3.4032729,2.231159,-0.0013695061,-0.0063557476,0.003922116,0.0069330297,85,4,132,2,10,9.242753,250.6256,3300.9702,20.885406,237563.1,354.1771,179.6812,179.83144,193.93652,193.93652,9.135327,1,243.5586,0,0,10.122948,10.122946,0,8,255,0,0,0,2,0,157,0
True,7678546,9499.995,1203.1134,6504.2876,-15.289155,0.15902954,8.430307,4.3901463,-0.11551952,20.841055,-0.038181365,-0.4586577,-0.10314418,0.53925514,-0.059097916,0.0046077264,0.4581505,0.37347054,0.5668375,0.6275693,1.2696002,0.67379844,1.8034536,0.98021,66.41322,65.17725,67.85448,68.76421,0,0,0,0,0,0,0,0,0,0,0,0,-1.6935104,-1.4791343,-2.271115,-1.8479797,2.1165686,1.6253746,2.9000704,2.091851,-0.0013763085,-0.0062797815,0.0049028546,0.008421615,85,4,132,2,10,11.020553,250.75665,3302.7278,21.298737,264058.2,387.90506,182.38367,181.56921,198.34409,198.34409,9.433806,1,246.02626,0,0,10.241658,10.241655,0,8,255,0,0,0,2,0,159,0
True,7678671,9499.995,1203.1134,6624.4966,-9.296585,0.52218974,8.977148,4.1487465,-0.14339232,21.667027,-0.06551214,-0.3096258,-0.05508072,0.49055463,-0.06546758,-0.0016375752,0.554375,0.41266134,0.5387609,0.62410766,0.34562713,0.5689428,1.2684151,1.1345443,64.42002,67.260666,69.632545,70.614975,0,0,0,0,0,0,0,0,0,0,0,0,0.14235687,0.42950985,-1.8659911,-1.6873317,0.37379616,0.7128637,2.2562802,2.0332925,0.0041956604,-0.0040104017,0.0032761134,0.008221049,85,4,132,2,10,12.660483,250.89734,3304.649,22.061115,374188.56,539.7932,182.07971,180.81293,201.36646,201.36646,9.688935,1,248.5008,0,0,10.358612,10.358609,0,8,255,0,0,0,2,127,166,0
True,7678765,9499.995,1203.1134,6792.703,-7.3505883,0.78490674,10.106055,3.9549904,-0.16117764,22.519526,-0.02012086,-0.079881914,-0.045506507,0.47166485,-0.07068718,-0.0052924305,0.4373026,0.32751703,0.6647238,0.6867626,0.45116052,0.5175517,1.0578529,0.90325385,68.12637,68.86688,72.834,70.04644,0,0,0,0,0,0,0,0,0,0,0,0,0.15399367,0.40655828,-1.5529208,-1.4017199,0.4767178,0.65814084,1.8789933,1.667539,-0.002583526,-0.008940764,0.010574322,0.0118512325,85,4,132,2,10,14.020606,251.0278,3306.388,22.864754,409035.38,575.2794,180.32713,179.38911,202.84256,202.84256,10.003436,1,250.64967,0,0,10.457084,10.457081,0,8,255,0,0,0,2,127,175,0
True,7678875,9499.995,1203.1134,7030.071,-3.9262547,0.3718633,9.103654,3.4994583,-0.17758346,23.42171,-0.046474334,0.15253502,-0.020187018,0.47562817,-0.073071525,-0.008457652,0.46420363,0.38071117,0.6035828,0.57328886,0.3535375,0.43134195,1.26289,0.71187425,70.64505,70.42437,75.35673,72.85177,0,0,0,0,0,0,0,0,0,0,0,0,0.26237628,0.4872719,-1.2072227,-1.1918837,0.44026136,0.65076095,1.7470769,1.3882909,-0.0010257959,-0.0058605075,0.0070318505,0.0052766427,85,4,132,2,10,15.394184,251.17368,3308.261,23.68236,405527.28,551.079,178.67865,178.04251,202.96686,202.96686,10.399224,1,252.89738,0,0,10.557037,10.5570345,0,8,255,0,0,0,2,127,187,0
True,7679015,9499.995,1203.1134,7222.721,-2.500866,1.2595277,9.360737,2.05484,-0.1825012,24.864162,-0.042198032,0.48540312,0.0068666637,0.5217568,-0.0802437,-0.013869772,0.40373173,0.4812836,0.6806342,0.63438576,0.5176972,0.5236701,0.49641618,0.5242295,76.330505,73.95126,75.687675,74.06195,0,0,0,0,0,0,0,0,0,0,0,0,0.8032914,1.0040245,-0.46076104,-0.492879,0.9556607,1.1323849,0.6772959,0.7195459,-0.0045274794,-3.676489E-05,0.01149616,0.008816555,85,4,132,2,10,17.385977,251.40652,3311.0928,24.949596,461321.8,610.26074,176.59361,176.39871,200.7587,200.7587,10.857377,1,256.23416,0,0,10.699679,10.699676,0,8,255,0,0,0,2,127,207,0
True,7679109,9499.995,1203.1134,7535.0405,2.7690742,0.83140147,9.700655,0.7876301,-0.18352985,25.903566,-0.021545496,0.7229009,0.057861626,0.58477616,-0.08260915,-0.015323139,0.42055854,0.46115848,0.64633554,0.6707378,0.46019197,1.1157284,0.2822506,0.6617685,79.049355,79.953804,77.783615,77.39345,0,0,0,0,0,0,0,0,0,0,0,0,1.1285602,1.4797498,0.05580647,0.053385217,1.21878,1.8532429,0.28771475,0.6639183,-0.0035531074,-0.0012021288,0.009508919,0.010922767,85,4,132,2,10,18.877893,251.59924,3313.2422,25.916187,515543.7,653.818,175.5339,176.42912,198.17699,198.17699,11.334832,1,258.7533,0,0,10.802799,10.802795,0,8,255,0,0,0,2,127,225,0
True,7679234,9499.995,1203.1134,7955.3403,9.543353,0.14696081,9.451337,-0.34847927,-0.1866113,26.84691,0.0049021114,0.8188533,0.05328941,0.67694384,-0.08216238,-0.01637185,0.39098996,0.32849774,0.6636779,0.62513936,0.577145,1.4694815,0.35960808,1.0240468,82.4669,84.477425,81.73287,82.537285,0,0,0,0,0,0,0,0,0,0,0,0,1.4672093,1.8619869,0.41888756,0.5023458,1.5766419,2.3719974,0.5520732,1.140624,-0.005265303,-0.008883975,0.010513719,0.008280825,85,4,132,2,10,20.711485,251.83138,3315.7146,26.849821,467433.6,561.4154,175.6059,178.57722,195.4578,195.4578,12.1313925,1,261.7973,0,0,10.919709,10.919705,0,8,255,0,0,0,2,127,246,0
True,7679359,9499.995,1203.1134,8247.171,14.254929,0.3389532,7.665619,-1.3415947,-0.15507817,27.56943,-0.0210406,0.8838757,0.064135134,0.7781597,-0.080826566,-0.018086461,0.43823466,0.34832233,0.60925275,0.51183885,0.5422713,1.5946519,0.46400854,1.2002602,84.19612,87.04459,85.16768,85.9901,0,0,0,0,0,0,0,0,0,0,0,0,1.6642678,2.1450279,0.70531803,0.8667374,1.7503843,2.6728375,0.8442615,1.4804926,-0.002529554,-0.0077360123,0.0073603652,0.0017162673,85,4,132,2,10,22.774752,252.07492,3318.1816,27.602488,415130.62,480.89746,177.33488,182.19104,193.13477,193.13477,12.845063,1,264.85367,0,0,11.038091,11.038086,0,8,255,0,0,0,2,127,9,0
True,7679484,9499.995,1203.1134,8439.211,16.174164,0.84530354,7.4203534,-2.3397942,-0.16043198,28.122465,-0.02015275,0.87575394,0.03903927,0.8883197,-0.08387577,-0.019868813,0.49560705,0.35937047,0.6878685,0.54468614,0.7610753,1.8754967,0.42612937,1.1740738,86.954926,90.028854,86.6368,87.67888,0,0,0,0,0,0,0,0,0,0,0,0,2.0512986,2.5686016,0.90953535,1.1672877,2.1879356,3.1804404,1.0044106,1.6555996,0.00079264864,-0.007096261,0.0119153075,0.0036194175,85,4,132,2,10,25.120907,252.33847,3320.609,28.220087,363824.88,411.75565,180.43457,186.99638,191.31015,191.31015,13.350287,1,268.12183,0,0,11.159364,11.159359,0,8,255,0,0,0,2,127,25,0
True,7679593,9499.995,1203.1134,8614.47,14.481047,0.014563978,5.3125467,-3.2393017,-0.09009886,28.429684,-0.0017085783,0.8535943,0.02760398,0.9862529,-0.079982765,-0.024117708,0.5254515,0.3197175,0.5931035,0.4452679,0.67288685,1.9709682,0.6434247,1.3632526,86.76827,91.17866,89.29692,89.91738,0,0,0,0,0,0,0,0,0,0,0,0,2.2044091,2.877138,1.21949,1.484759,2.3048203,3.4874976,1.3788224,2.0156803,0.0025208183,-0.009392403,0.0064246915,-0.0021408089,85,4,132,2,10,27.584354,252.6035,3322.8154,28.613773,311558.78,345.48773,184.80916,192.58618,190.7106,190.7106,13.713241,1,271.36588,0,0,11.2760105,11.276006,0,8,255,0,0,0,2,127,36,0
True,7679703,9499.995,1203.1134,8652.034,16.637062,0.36868587,5.796385,-4.2079735,-0.09998405,28.575476,-0.010022663,0.84088916,0.034650523,1.0868399,-0.07897494,-0.028283518,0.63790816,0.37583712,0.66743803,0.5227293,0.75462013,2.148639,0.5869578,1.2820133,87.40897,92.28069,89.473915,90.06613,0,0,0,0,0,0,0,0,0,0,0,0,2.4587245,3.2204664,1.3840177,1.7365956,2.5719209,3.8714406,1.5033379,2.1585464,0.00903273,-0.006142743,0.010731582,0.0023472533,85,4,132,2,10,30.226315,252.86679,3324.888,28.883812,292806.97,323.1605,190.44241,198.92168,191.73273,191.73273,13.945121,1,274.68304,0,0,11.39317,11.393166,0,7,255,0,0,0,2,127,45,0
True,7679796,9499.995,1203.1134,8696.144,16.800972,-0.15658617,4.4716954,-4.8783655,-0.08044249,28.601383,0.013488136,0.7934085,0.015410706,1.1663675,-0.075864084,-0.03275524,0.6065209,0.28073952,0.6655739,0.5103642,0.9436317,2.107838,0.6725428,1.3732455,88.28383,91.6144,89.95043,90.83845,0,0,0,0,0,0,0,0,0,0,0,0,2.7996342,3.4453566,1.6109661,1.9809008,2.9543853,4.038993,1.7457163,2.4103467,0.0072152205,-0.01164946,0.010623574,0.0016308278,85,4,132,2,10,32.549324,253.08884,3326.4778,29.014547,248903.1,273.3343,195.81134,203.79803,193.48378,193.48378,14.022313,1,277.47226,0,0,11.490695,11.49069,0,7,255,0,0,0,2,127,49,0
True,7679906,9499.995,1203.1134,8706.047,17.714952,0.10972983,4.7370377,-5.441003,-0.053415358,28.566986,-0.023564437,0.8085153,0.031421058,1.2421988,-0.07345953,-0.03550379,0.5583007,0.32607904,0.66511106,0.46802554,0.8636646,2.0907154,0.67245364,1.4883392,87.627075,91.31816,89.975204,91.56538,0,0,0,0,0,0,0,0,0,0,0,0,2.8042529,3.5519056,1.7667234,2.1780403,2.9342377,4.121544,1.8903718,2.637994,0.0044229813,-0.009024031,0.01059676,-0.0008222461,85,4,132,2,10,34.909214,253.30196,3327.9087,29.080578,251791.88,276.21387,202.05087,208.74565,195.90741,195.90741,14.072438,1,279.91003,0,0,11.585971,11.585966,0,7,255,0,0,0,2,117,52,0
True,7680015,9499.995,1203.1134,8798.604,15.147039,0.5961672,5.4208713,-6.1696796,-0.050691247,28.582727,-0.039257195,0.7944016,0.046456493,1.3378294,-0.07323605,-0.03805949,0.5704577,0.432049,0.6622528,0.4600708,0.5310805,1.3196572,0.8537657,1.4704205,88.713524,90.95362,93.01506,91.01203,0,0,0,0,0,0,0,0,0,0,0,0,1.3985841,1.6665562,1.8282014,2.3691666,1.4960227,2.1257715,2.0177305,2.7883842,0.0051269457,-0.0028877407,0.010431152,-0.001283139,85,4,132,2,10,37.96387,253.5676,3329.5078,29.241064,380653.97,413.26685,206.77011,213.23442,200.05688,200.05688,14.170173,1,283.21954,0,0,11.70471,11.704705,0,7,255,0,0,0,2,0,53,0
True,7680125,9499.995,1203.1134,8867.595,1.4357018,0.5876619,1.218857,-9.454949,-0.07917702,27.695217,-0.011370037,0.7000557,0.05252157,1.4218245,-0.07319701,-0.041038904,0.54883415,0.46155065,0.6850665,0.5904035,0.9317526,1.8539479,0.96023935,2.0944593,89.47127,92.60212,91.80659,93.1933,0,0,0,0,0,0,0,0,0,0,0,0,2.4077058,2.7673147,2.708517,3.304596,2.5817068,3.3309388,2.8736951,3.9124308,0.0038748123,-0.0011794195,0.011752963,0.0062682517,85,4,132,2,10,40.880413,253.82771,3331.083,29.26478,305838.34,329.38193,209.04517,216.27974,207.70117,207.70117,14.364808,1,286.48737,0,0,11.818559,11.818553,0,7,255,0,0,0,2,0,59,0
True,7680250,9499.995,1203.1134,8923.043,14.560779,0.16634995,5.6052623,-9.7135,0.0054677725,27.608805,-0.01424988,0.6812322,0.017462796,1.4992033,-0.07054347,-0.043381356,0.6394011,0.4427375,0.6443696,0.4981512,1.0012044,2.1162477,1.3312016,2.0811925,89.2727,93.54386,91.68926,94.653755,0,0,0,0,0,0,0,0,0,0,0,0,2.6709688,3.1487577,3.017637,3.5161293,2.8524523,3.7938344,3.2982163,4.0858936,0.009119179,-0.0022688136,0.009395011,0.00092321634,85,4,132,2,10,43.863113,254.0981,3332.4958,29.267698,265457.2,284.12604,213.75531,221.24078,217.21057,217.21057,14.460475,1,289.75504,0,0,11.931706,11.931701,0,7,255,0,0,0,2,60,64,0
True,7680359,9499.995,1203.1134,8899.516,16.694576,0.06373131,6.167817,-10.029105,-0.00491482,27.46694,0.011548193,0.6457303,0.027417079,1.5622112,-0.06839547,-0.044842485,0.52970004,0.3909116,0.6830341,0.53882295,1.2651807,2.3042927,1.4047087,1.8979673,89.73582,93.32312,94.23067,91.27956,0,0,0,0,0,0,0,0,0,0,0,0,3.1229246,3.6195042,2.8780591,3.6031144,3.3694718,4.290755,3.2025661,4.0724335,0.0027668364,-0.0052698404,0.01163521,0.0032797083,85,4,132,2,10,46.407757,254.3176,3333.5288,29.240652,247351.78,265.34933,218.66843,225.20166,224.00604,224.00604,14.522212,1,292.4771,0,0,12.025888,12.025883,0,7,255,0,0,0,2,127,65,0
True,7680468,9499.995,1203.1134,8897.36,12.863656,-0.5071798,4.62665,-10.388178,-0.04986769,27.215708,-0.007906895,0.64357346,0.035718046,1.6376498,-0.064610966,-0.047043297,0.48684677,0.2815832,0.5997104,0.46056613,1.4043192,2.6276076,1.5463239,2.0023232,89.18742,93.60147,94.93439,90.6373,0,0,0,0,0,0,0,0,0,0,0,0,3.4818375,4.0510826,3.1501808,3.6798875,3.7543714,4.8286223,3.5092387,4.189376,0.00028537586,-0.011600606,0.0068074875,-0.0012544394,85,4,132,2,10,49.624695,254.58093,3334.623,29.130934,241209.16,258.8485,225.54333,229.82979,231.75256,231.75256,14.49652,1,295.83752,0,0,12.142679,12.142673,0,7,255,0,0,0,2,127,64,0
True,7680578,9499.995,1203.1134,8853.25,15.569722,0.022753477,5.499422,-10.487396,-0.01391381,27.037086,-0.008707974,0.62880707,0.0055649756,1.7110353,-0.06172696,-0.05013588,0.5497446,0.31698912,0.6400752,0.4285963,1.2995582,2.714353,1.1916916,2.460455,88.03638,94.067635,89.285355,95.262,0,0,0,0,0,0,0,0,0,0,0,0,3.4632998,3.9954054,3.2134948,3.7689452,3.699094,4.830215,3.4273427,4.500976,0.0039275363,-0.009550393,0.009146199,-0.0031067505,85,4,132,2,10,52.867565,254.83568,3335.4956,28.99982,255199.73,275.33173,232.32503,234.27527,239.6889,239.6889,14.416127,1,298.76813,0,0,12.258568,12.258562,0,7,255,0,0,0,2,26,60,0
True,7680687,9499.995,1203.1134,8868.799,16.02848,0.57062405,6.8601747,-10.545408,0.011523396,26.99239,-0.01710115,0.6117046,0.0020342967,1.770208,-0.060204167,-0.052491166,0.6380759,0.39006937,0.6707802,0.47682095,0.9121275,2.2012494,1.59159,1.9746196,88.18326,94.12682,93.17994,91.74513,0,0,0,0,0,0,0,0,0,0,0,0,2.443261,2.964366,3.0329542,3.7880847,2.6079686,3.6922843,3.4251964,4.2718506,0.009042442,-0.005318612,0.010925222,-0.000312645,85,4,132,2,10,55.5529,255.0415,3336.0474,28.979214,318420.22,342.88562,236.32803,237.65977,245.71793,245.71793,14.41627,1,301.48282,0,0,12.353456,12.353451,0,7,255,0,0,0,2,-5,55,0
True,7680781,9499.995,1203.1134,8898.378,13.816864,-0.049839675,5.7863474,-10.651022,-0.0140221715,26.920996,-0.000107137486,0.58484596,0.023867674,1.8288133,-0.057628818,-0.05584039,0.52510226,0.3370829,0.6683967,0.53010094,1.3071889,2.2164266,1.687082,2.0719213,89.82737,92.98286,95.03052,90.56219,0,0,0,0,0,0,0,0,0,0,0,0,2.9536796,3.3476653,3.2134607,3.7483127,3.2300103,4.014899,3.6294043,4.282839,0.0025005974,-0.008386843,0.010787126,0.0027743615,85,4,132,2,10,58.350224,255.25345,3336.4556,28.951416,268521.22,288.14557,240.28738,240.96713,251.60205,251.60205,14.463954,1,304.27292,0,0,12.451354,12.451349,0,7,255,0,0,0,2,0,49,0
True,7680890,9499.995,1203.1134,8898.098,15.320625,-0.21405298,6.362529,-10.640746,-0.007501222,26.896564,-0.019278718,0.5809743,0.012429246,1.8880533,-0.05463379,-0.057571843,0.47837391,0.29313466,0.64355075,0.4438845,1.1281328,2.3275032,1.7844255,2.099053,88.45509,93.6609,92.47033,93.441055,0,0,0,0,0,0,0,0,0,0,0,0,2.8785372,3.3687027,3.288755,3.8359792,3.0917084,4.0945606,3.7416687,4.3727293,-0.00020525232,-0.010931708,0.009347569,-0.0022209622,85,4,132,2,10,61.301872,255.47029,3336.7166,28.924913,270234.88,290.0413,245.06992,244.35098,257.68564,257.68564,14.470746,1,307.17798,0,0,12.554029,12.554026,0,7,255,0,0,0,2,0,41,0
True,7681015,9499.995,1203.1134,8897.48,15.895967,0.023064673,6.7650304,-10.6546755,-0.043560963,26.876118,-0.004294183,0.54755545,0.015610242,1.9600526,-0.052974414,-0.057987463,0.5562836,0.33762473,0.6476068,0.44391644,1.1919707,2.5268168,1.5345066,2.2015526,88.69981,94.99065,91.03452,94.11582,0,0,0,0,0,0,0,0,0,0,0,0,2.9435358,3.4351091,3.104255,3.7966158,3.17572,4.2643614,3.4628181,4.38875,0.0043061823,-0.0083554685,0.009582572,-0.0022191107,85,4,132,2,10,64.954285,255.72685,3336.8062,28.911064,274243.1,294.33664,250.5427,248.30663,264.48093,264.48093,14.50166,1,310.58542,0,0,12.68071,12.680705,0,7,255,0,0,0,2,0,27,0
True,7681109,9499.995,1203.1134,8925.212,14.943327,-0.21923208,6.630125,-10.654833,-0.04636247,26.88233,0.0077321343,0.5213511,0.03237833,2.015204,-0.049473707,-0.058052536,0.52381307,0.3957684,0.69007146,0.53076,1.1588228,2.006443,1.2089136,2.6446254,90.12904,93.44402,90.7025,95.350174,0,0,0,0,0,0,0,0,0,0,0,0,2.400249,2.7248538,2.9843488,3.7663069,2.6653452,3.3838797,3.2199082,4.602077,0.0024259463,-0.0049886033,0.012042947,0.0028125457,85,4,132,2,10,67.92312,255.92657,3336.6892,28.916904,283962.62,303.79434,254.47617,251.27832,269.41937,269.41937,14.538741,1,313.49704,0,0,12.783743,12.783737,0,7,255,0,0,0,2,-15,13,0
True,7681234,9499.995,1203.1134,8981.403,8.105525,-0.58138406,7.36141,-11.022968,-0.10648359,27.168226,-0.016300058,0.36654383,-0.0041171173,2.0710464,-0.046727996,-0.059934426,0.45134312,0.3672557,0.6233958,0.5479569,1.0003763,0.62396675,1.5657144,2.3937051,92.25826,87.76073,92.96767,96.47654,0,0,0,0,0,0,0,0,0,0,0,0,-1.1881933,-0.15178737,3.399217,3.4813645,1.5532405,0.64216346,3.7424774,4.2248936,-0.0017704964,-0.0066396594,0.008179802,0.003808923,85,4,132,2,10,71.34679,256.14767,3336.3564,29.31944,404057.1,429.65604,250.99466,249.38437,274.82086,274.82086,14.594443,1,316.83395,0,0,12.902281,12.902275,0,7,255,0,0,0,2,-127,253,0
True,7681328,9499.995,1203.1134,9059.042,4.790526,0.001995042,6.519602,-11.260166,-0.12682638,27.5385,-0.0049178926,0.14280352,-0.022704579,2.0951357,-0.046063934,-0.061918102,0.3874515,0.30861366,0.62889737,0.53917015,0.86504126,0.4737721,1.8440208,2.0451725,92.42714,88.631004,93.58498,97.740585,0,0,0,0,0,0,0,0,0,0,0,0,-1.0389686,-0.04845045,3.290259,3.5007548,1.3519439,0.47624305,3.7717657,4.0543823,-0.0054702014,-0.010035381,0.008498561,0.003299825,85,4,132,2,10,74.144516,256.32272,3336.0034,29.751913,435657.9,459.39578,247.82735,245.01163,278.38858,278.38858,14.637555,1,319.63324,0,0,12.997924,12.997918,0,7,255,0,0,0,2,-127,240,0
True,7681421,9499.995,1203.1134,9065.604,-23.575583,1.2260984,-2.5656223,-13.934049,-0.08948776,27.173628,-0.020885559,-0.17897467,0.012960682,2.0928814,-0.048132665,-0.06536121,0.3867971,0.37826094,0.5127355,0.50549924,0.7483109,0.1503374,2.0571778,2.3054998,92.49159,89.02437,94.36468,96.945465,0,0,0,0,0,0,0,0,0,0,0,0,-1.5125684,-0.0064762416,4.048282,4.20738,1.6875521,0.15047683,4.5409875,4.7976427,-0.005508095,-0.006002389,0.0017682202,0.0013489574,85,4,132,2,10,77.116646,256.52008,3335.7424,30.538038,-249029.27,-261.5993,244.06006,240.71573,281.20865,281.20865,9.900428,1,322.58356,0,0,13.097149,13.097144,0,7,255,0,0,0,2,-127,232,0
True,7681546,9499.995,1203.1134,8923.129,-5.2609673,-1.4099274,0.2554462,-13.16017,-0.214887,27.781048,0.036896363,-0.4748873,0.038924105,2.0535371,-0.049256213,-0.06097711,0.30591604,0.35233817,0.44406766,0.4961053,0.7573827,0.12019613,1.7175133,1.4764291,92.593895,90.84284,92.59027,93.46305,0,0,0,0,0,0,0,0,0,0,0,0,-1.9219629,-0.39437622,3.744166,3.6892455,2.0658097,0.41228595,4.1193,3.9737105,-0.01019159,-0.0075034723,-0.0022103488,0.0008046776,85,4,132,2,10,80.72095,256.76224,3335.5952,30.741224,414256.34,443.74796,242.40488,235.8522,284.64716,284.64716,3.1108541,1,326.1564,0,0,13.2150345,13.21503,0,7,255,0,0,0,2,-127,229,0
True,7681656,9499.995,1203.1134,8859.174,0.45780557,-1.0401833,0.4904235,-10.946344,-0.13366386,28.750597,0.053412404,-0.75094724,-0.0038188482,1.9804375,-0.04694059,-0.055515442,0.3784542,0.4314534,0.48131952,0.48804864,0.62926185,0.13713413,1.4688798,0.9729445,90.1193,91.56985,93.526474,91.39735,0,0,0,0,0,0,0,0,0,0,0,0,-2.4183924,-0.95949614,3.0823278,2.9403982,2.4989183,0.9692464,3.414433,3.0971863,-0.005991198,-0.0029222295,-5.2001327E-05,0.0003378801,85,4,132,2,10,84.34425,256.9844,3335.4358,30.76422,379967.1,410.078,242.63823,231.5008,287.71527,287.71527,1.4425421,1,329.7471,0,0,13.333132,13.333128,0,7,255,0,0,0,2,-127,232,0
True,7681765,9499.995,1203.1134,9104.914,-0.014785618,-0.26832455,0.5955776,-8.582201,-0.07567638,29.564627,0.0036840905,-0.9741189,0.012145754,1.898,-0.048651073,-0.0504879,0.41565555,0.49256968,0.42707387,0.496018,0.8800324,0.25050998,1.2762679,1.0699606,93.359825,93.37259,95.039,95.01271,0,0,0,0,0,0,0,0,0,0,0,0,-1.7506988,-0.782325,2.1511965,2.101125,1.9594395,0.82145464,2.5013008,2.357868,-0.0038370192,0.0006167665,-0.003194958,0.00079961866,85,4,132,2,10,87.26013,257.1553,3335.306,30.785173,338871.22,355.5414,244.45526,228.77411,288.71045,288.71045,11.542611,1,332.7444,0,0,13.42821,13.428206,0,7,255,0,0,0,2,0,238,0
True,7681890,9499.995,1203.1134,8828.248,8.118911,-0.18735708,5.642578,-3.9059095,-0.16249496,31.147408,-0.008681988,-1.1762706,0.0934044,1.7724634,-0.05837147,-0.037861783,0.44652417,0.5554782,0.57948846,0.55022854,0.22882754,0.61369497,0.09134947,0.44800222,88.713875,97.852196,86.39315,95.2872,0,0,0,0,0,0,0,0,0,0,0,0,1.1596892,1.2150332,0.6123496,0.68195015,1.1820495,1.3612226,0.61912584,0.8159424,-0.002049543,0.0042595454,0.0056358427,0.0039405413,85,4,132,2,10,90.82931,257.36475,3335.1104,31.391775,-215381.42,-232.32544,240.46497,225.01088,286.1535,286.1535,4.2479906,1,336.24976,0,0,13.54338,13.543376,0,7,255,0,0,0,2,127,247,0
True,7681984,9499.995,1203.1134,8192.7295,5.669818,-1.4318,-0.14119697,0.5284209,-0.11194934,31.285084,0.068841286,-1.0740595,0.0076739024,1.6540816,-0.056281757,-0.026247535,0.43863004,0.4190445,0.5996157,0.548018,-0.00048096172,0.008761277,-0.0009678599,0.005739963,86.37265,91.4938,86.20134,91.45048,0,0,0,0,0,0,0,0,0,0,0,0,0.66383755,0.72584105,-0.57409465,-0.54681456,0.66383773,0.7258939,0.5740954,0.5468447,-0.0025066584,-0.0036407784,0.006802,0.003812462,85,4,132,2,10,93.97708,257.53876,3334.8154,31.289745,-183053.48,-213.03816,237.04442,222.42023,279.87387,279.87387,-7.7698994,1,339.36328,0,0,13.6443815,13.644378,0,7,255,0,0,0,2,127,253,0
True,7682078,9499.995,1203.1134,7565.3096,-0.565665,-0.10650965,-1.0609773,3.4127212,-0.050633937,30.973837,-0.030276217,-0.843859,-0.033160333,1.5588323,-0.056355286,-0.022040589,0.36877242,0.40454027,0.518091,0.484902,0.05584195,0.018052833,0.23120119,0.09337869,87.21838,90.77929,87.87185,91.56807,0,0,0,0,0,0,0,0,0,0,0,0,0.10757147,0.2039904,-1.3309296,-1.2097428,0.12120208,0.20478767,1.3508619,1.2133414,-0.006551832,-0.00448066,0.0020785145,0.0001555644,85,4,132,2,10,97.063416,257.69824,3334.5037,31.161314,-92572.16,-116.591354,233.33524,219.5282,274.29587,274.29587,-9.941933,1,342.41965,0,0,13.743859,13.743855,0,7,255,0,0,0,3,127,4,0
True,7682203,9499.995,1203.1134,5010.685,-10.089084,-0.9525776,0.14125592,5.198515,-0.19440499,30.92042,0.08035593,-0.52693623,-0.09491301,1.4655095,-0.06600659,-0.024203222,0.06810083,0.083766416,0.27198905,0.32953534,0,0,-0.26468512,-0.34379008,81.98327,81.03247,85.12535,84.256226,0,0,0,0,0,0,0,0,0,0,0,0,0,0,-1.8110405,-1.4169235,0,0,1.8302802,1.4580343,-0.023962505,-0.023055375,-0.01218047,-0.0088462755,85,4,132,2,10,101.32841,257.93643,3334.1587,31.354979,208085.5,397.9194,228.51016,215.89192,270.05505,270.05505,-0.75100327,1,346.62833,0,0,13.880362,13.880358,0,7,81,255,0,0,3,127,21,129
True,7682312,9499.995,1203.1134,4460.509,-6.1258726,-6.0328207,-3.3784473,5.8183765,-0.07994743,30.329756,0.2578152,-0.3471806,-0.014108794,1.4251734,-0.044754494,-0.029536428,0,0,0.07385997,0.0627318,0,-0.7161894,0,-1.2343951,62.779736,81.46114,76.63382,74.56233,0,0,0,0,0,0,0,0,0,0,0,0,0,0.00019466998,0,-1.997929,0,0.71618944,0,2.3484998,-0.027905948,-0.027905948,-0.023659937,-0.024304695,85,4,132,2,10,104.27739,258.07355,3334.0142,30.882904,46817.53,100.33306,225.19456,213.3161,266.9943,266.9943,-2.8321,1,349.24326,0,0,13.975343,13.975338,0,7,0,255,0,0,3,127,38,129
True,7682421,9499.995,1203.1134,4083.6511,-2.6779735,-1.9371556,-16.308472,6.7534375,0.018741786,28.510284,0.04312668,-0.23760456,0.043550763,1.3904083,-0.030673167,-0.022192523,0.44498158,0.65237486,0.020787667,0.163395,-0.27536702,-0.5107328,-1.8655667,-1.5483556,80.06743,78.18307,64.3647,68.07588,0,0,0,0,0,0,0,0,0,0,0,0,0.10726772,0.4457012,-2.205732,-2.1385672,0.29552218,0.6778625,2.888874,2.6402414,-0.002138868,0.009870436,-0.02673491,-0.018472336,85,4,132,2,10,107.62994,258.16257,3333.8535,29.29924,-37341.68,-87.38776,222.20059,210.83551,262.79126,262.79126,-9.099022,1,352.3882,0,0,14.086415,14.0864105,0,7,0,182,0,0,3,127,61,165
True,7682531,9499.995,1203.1134,4154.797,-3.6671886,1.2127007,-6.3056927,6.658378,0.15081365,27.580769,-0.032987755,0.027987607,0.012493319,1.3788224,-0.035138063,-0.016499292,0.6451381,0.68184954,0.38686,0.4693685,-0.001936569,0.004329403,0.014137914,0.026988238,80.991135,80.74793,78.58705,78.57765,0,0,0,0,0,0,0,0,0,0,0,0,0.18027613,0.6048567,-2.0900264,-1.9780598,0.18028653,0.6048722,2.0900743,1.9782438,0.009451386,0.011577196,-0.005524922,-0.00074443594,85,4,132,2,10,110.89575,258.26907,3333.6855,28.3735,207626,481.57654,218.85814,208.42065,263.26477,263.26477,-6.772371,1,355.4564,0,0,14.200607,14.200603,0,7,255,0,0,0,2,127,87,0
True,7682656,9499.995,1203.1134,6075.34,-2.5073638,-0.6524238,-2.7670066,5.831841,0.035401523,27.453087,0.0021290109,0.29020527,-0.00963468,1.3970221,-0.035285547,-0.017615234,0.55593115,0.485098,0.43320704,0.53365767,-0.0012345187,0.0060008173,0.01191039,0.021419473,80.87319,79.38983,78.78449,77.472855,0,0,0,0,0,0,0,0,0,0,0,0,0.30564234,0.7438206,-1.8207524,-1.653483,0.30564484,0.7438448,1.8207914,1.6536218,0.0042857714,0.0001841113,-0.0028396063,0.0029804371,85,4,132,2,10,114.05508,258.37653,3333.5623,28.0657,420238.34,666.0352,215.80356,206.20293,261.48056,261.48056,4.7368193,1,358.41068,0,0,14.312752,14.312746,0,7,255,0,0,0,2,127,114,0
True,7682765,9499.995,1203.1134,7677.2314,-0.23339793,3.632524,-2.7860622,4.4852486,0.27998492,27.399328,-0.19237015,0.5449112,-0.30929527,1.4442891,-0.03918579,-0.029997379,1,0.37809098,0.36939788,0.43898857,-0.00014702155,0.111078046,-0.13040982,0.15599157,80.72201,78.95402,78.69368,78.10575,0,0,0,0,0,0,0,0,0,0,0,0,0.46795747,1.1374879,-1.2980912,-0.9462604,0.46795747,1.1428984,1.3046254,0.9590319,0.030000001,-0.006012231,-0.0065366663,-0.0025046282,85,4,132,2,10,117.16253,258.48193,3333.4539,27.765429,142934.3,177.91866,213.12543,204.23056,258.14368,258.14368,4.287154,1,361.31177,0,0,14.424232,14.424225,0,7,255,0,0,0,2,127,127,0
True,7682859,9499.995,1203.1134,8129.486,-4.2024593,-3.0210044,0.8377764,2.3436663,-0.33062303,27.761957,-0.03374131,0.7131393,-0.002831875,1.5051224,-0.04862435,-0.049410168,0.36973703,0.6319569,0.7134175,0.40527058,0.6749137,1.1359562,0.29546726,0.58325577,86.26378,85.62008,83.44578,82.05705,0,0,0,0,0,0,0,0,0,0,0,0,1.3746953,1.7999896,-0.48173493,-0.44578165,1.5314358,2.128464,0.5651278,0.7341039,-0.006495975,0.008688115,0.0133956,-0.0044582263,85,4,132,2,10,119.758766,258.5915,3333.3843,27.862669,380944.72,448.29388,211.13814,203.33139,254.14359,254.14359,5.965684,1,363.72852,0,0,14.517833,14.517827,0,7,255,0,0,0,2,127,127,0
True,7682953,9499.995,1203.1134,8730.408,1.1146206,-4.694465,2.8331518,0.38407817,-0.5608987,28.205185,0.029366236,0.8307099,0.05356106,1.5825962,-0.043881226,-0.05390526,0.17132953,0.61553437,0.5720216,0.40621316,0,1.646692,0.95589405,1.2193732,97.19251,89.063866,90.3497,88.48847,0,0,0,0,0,0,0,0,0,0,0,0,0,2.4483933,0.21095322,0.23304695,0,2.9506311,0.9788946,1.2414435,-0.017984949,0.0077371523,0.0052032173,-0.0044036135,85,4,132,2,10,122.45987,258.6799,3333.3262,28.213375,351037.47,384.39218,209.79456,204.61531,250.20798,250.20798,11.793477,1,366.23727,0,0,14.614133,14.614127,0,7,255,0,0,0,2,127,127,0
True,7683078,9499.995,1203.1134,8469.113,58.820957,-2.6028867,-54.469116,5.6884556,-0.055087343,20.765057,0.25517967,1.0365857,0.1633412,1.6913809,-0.017554283,-0.02342698,0.03002507,0.16368273,0.2931571,0.55077463,0,6.2091966,1.6144387,6.2586684,102.76758,97.47051,73.190414,91.07649,0,0,0,0,0,0,0,0,0,0,0,0,0,-0.35564438,-1.8957839,-2.0925612,0,6.2193737,2.490062,6.599223,-0.026167318,-0.018427745,-0.0109540075,0.00397218,85,4,132,2,10,125.266815,258.74414,3332.7043,21.53019,42187.277,47.57654,207.05765,209.70703,246.9777,246.9777,13.457501,1,368.06265,0,0,14.733023,14.733017,0,7,255,0,0,0,2,127,127,0
True,7683203,9499.995,1203.1134,7889.362,15.067996,-3.3108022,-5.467473,4.2491846,-0.27947757,20.860119,0.048377797,1.2037491,0.062234066,1.8218554,-0.0014721708,-0.01871155,0,0.19420561,0.12048102,0.2312992,1.9260561,0.45100918,3.2907643,5.705767,77.23176,61.672672,84.4623,91.01072,0,0,0,0,0,0,0,0,0,0,0,0,0.3951762,0.815008,-1.0865251,-1.2134788,1.9661782,0.9314759,3.4654965,5.833379,-0.027905948,-0.016660288,-0.020958744,-0.014538012,85,4,132,2,10,127.49866,258.7373,3331.6511,21.290333,0,0,206.73819,213.97964,250.79218,250.79218,13.166205,1,370.49533,0,0,14.850471,14.850465,0,7,255,0,0,0,2,127,127,0
True,7683296,9499.995,1203.1134,6937.3687,6.91062,0.015100382,4.038893,2.0252633,-0.27375826,21.890347,-0.03406709,1.4306996,0.08003114,1.9503417,-0.00082629645,-0.009884797,0.2236145,0.39610654,0.4411061,0.50628257,0.4319126,0.85891134,0.32309434,3.444535,70.37203,66.16659,68.62416,78.88886,0,0,0,0,0,0,0,0,0,0,0,0,1.1656178,1.6644944,-0.05387212,-0.06416179,1.2430661,1.8730377,0.32755482,3.4451325,-0.014957339,-0.004969023,-0.0023819394,0.0013943426,85,4,132,2,10,129.3878,258.70496,3330.7122,21.985535,72128.3,98.842705,205.86566,212.65646,250.53006,250.53006,11.621713,1,372.57663,0,0,14.947799,14.947792,0,7,255,0,0,0,2,127,127,0
True,7683406,9499.995,1203.1134,6779.4956,13.697231,0.85492104,5.269774,0.22300053,-0.1510247,22.483965,0.019852102,1.5873287,0.07910432,2.1318176,-0.0018536967,-0.0010074873,0.2920941,0.302761,0.5929973,0.633795,0.34459782,1.8848937,0.25651634,1.608433,70.11725,71.321304,69.99604,70.38553,0,0,0,0,0,0,0,0,0,0,0,0,1.27705,1.7917198,0.63068926,0.81484336,1.3227261,2.600593,0.68085945,1.8030603,-0.010991961,-0.010374285,0.0064185373,0.008782327,85,4,132,2,10,131.58319,258.68613,3329.4155,22.485577,325105.2,458.50186,205.39145,214.87164,246.2364,246.2364,10.256297,1,375.09128,0,0,15.063029,15.063023,0,8,255,0,0,0,2,0,127,0
True,7683515,9499.995,1203.1134,6672.987,25.68954,-0.09039265,6.7910795,0.02352047,-0.13810465,22.803726,0.005895047,1.2063338,0.0059248335,2.2674797,-0.0003948055,0.002429524,0.30749556,0.24467342,0.5154302,0.49674416,0.3495233,0.7172993,0.19455777,1.1415857,70.34506,66.83883,69.542755,69.59153,0,0,0,0,0,0,0,0,0,0,0,0,-0.69854903,-0.7311507,0.5636224,0.64380056,0.78111285,1.0242556,0.59625745,1.3106095,-0.010100126,-0.013737902,0.0019243509,0.0008416921,85,4,132,2,10,133.33076,258.67465,3328.0728,22.804157,338294.34,484.42847,204.0863,214.91649,242.96967,242.96967,10.120854,1,377.23798,0,0,15.161006,15.160998,0,8,255,0,0,0,2,0,127,0
True,7683640,9499.995,1203.1134,7094.075,8.723566,-0.14229718,10.092808,-2.210867,-0.17542338,23.785936,-0.016098373,0.9274298,0.016568508,2.3946247,-0.0012432281,0.0042612385,0.29595593,0.27503958,0.49538636,0.44830242,0.29016176,0.5389537,0.6261157,1.3044981,72.30537,69.45715,74.58887,75.24767,0,0,0,0,0,0,0,0,0,0,0,0,-0.15345788,-0.082603775,1.1555866,1.3423513,0.32824254,0.5452472,1.3143064,1.8717965,-0.010768339,-0.01197952,0.0007630214,-0.00196499,85,4,132,2,10,135.44133,258.6573,3326.246,23.889107,428406.75,577.0718,202.12537,212.4263,239.59709,239.59709,10.442933,1,379.92627,0,0,15.280524,15.280518,0,8,255,0,0,0,2,-127,127,0
True,7683734,9499.995,1203.1134,7287.784,8.219368,-0.92563117,-5.0984144,-3.1453447,-0.25298405,21.992977,0.07040452,0.7440649,-0.036278322,2.475822,0.0001019911,0.0022576274,0.37767616,0.12012563,0.562087,0.54782987,0.08709256,0,1.3024815,1.8083369,65.273384,93.12125,72.59457,75.317795,0,0,0,0,0,0,0,0,0,0,0,0,-0.05365509,0,1.5340852,1.5623323,0.10229362,0,2.0124302,2.3897624,-0.006036252,-0.02094996,0.0046276115,0.0038015656,85,4,132,2,10,137.0195,258.63693,3324.7852,22.218195,416063,545.71045,200.616,210.32251,239.79837,239.79837,10.929812,1,381.9809,0,0,15.376706,15.376699,0,8,255,0,0,0,2,-127,127,0
True,7683859,9499.995,1203.1134,7721.643,5.561983,0.35465655,5.2206874,-3.9679823,0.023349524,22.63684,0.06314577,0.47438052,-0.109975085,2.5459676,0.0110117225,-0.0039133,0.68210036,0.034042053,0.48744735,0.6149982,0.038303386,0,2.2931266,1.7976197,66.60875,98.73197,80.257835,77.630806,0,0,0,0,0,0,0,0,0,0,0,0,-0.08833309,0,1.9491926,1.6326507,0.09628024,0,3.0096147,2.428371,0.011591721,-0.025934711,0.0003030412,0.0076932535,85,4,132,2,10,138.87086,258.60892,3322.9333,22.981993,345955.72,428.31082,198.83218,207.88272,241.95078,241.95078,11.638499,1,384.45547,0,0,15.492399,15.492393,0,9,255,0,0,0,2,-127,127,0
True,7683953,9499.995,1203.1134,8581.421,2.5461051,-6.296499,3.6022062,-4.790655,-0.7634828,22.721256,0.00281208,0.4222732,-0.2658,2.5894418,0.012316117,-0.028268129,0.34624153,0.06502621,0.6519519,0.30562633,0,3.9761248,3.5582206,2.5002997,81.66348,97.11659,92.91811,84.8941,0,0,0,0,0,0,0,0,0,0,0,0,0,0.20682198,2.0495892,1.6743214,0,3.9815001,4.106306,3.0091279,-0.007856503,-0.024140544,0.009834327,-0.010231547,85,4,132,2,10,140.46544,258.55777,3321.2725,23.233355,205329.77,227.77138,197.35114,205.91177,245.03899,245.03899,12.931321,1,386.6177,0,0,15.592088,15.592082,0,9,255,0,0,0,2,-127,127,0
True,7684078,9499.995,1203.1134,7854.7183,-8.217064,3.1004472,5.9410024,-8.06929,0.12990046,23.499466,0.11323103,0.06567369,-0.050406724,2.612836,0.026811004,-0.041365314,0.049863454,0.646174,0.7023717,0.22871964,3.4472673,0.045309756,1.7297297,2.153453,94.39241,70.88012,80.486534,81.49857,0,0,0,0,0,0,0,0,0,0,0,0,-0.8810971,-0.042509772,2.6327116,3.3461716,3.558087,0.062129337,3.1501007,3.9792242,-0.025018558,0.00951137,0.0127556175,-0.014687471,85,4,132,2,10,142.65765,258.50793,3319.3945,24.846632,218928.17,266.25302,199.65424,206.86674,255.4328,255.4328,12.548089,1,389.3104,0,0,15.710031,15.710027,0,9,255,0,0,0,2,-127,127,0
True,7684171,9499.995,1203.1134,8000.579,-1.5665443,0.14222541,4.1018133,-8.012912,0.25120467,23.85041,0.00012396276,-0.10620239,0.048177235,2.6100762,0.031155752,-0.038170148,0.027717687,0.6566903,0.4503287,0.18414654,3.1884794,0.06835493,1.9209138,2.2012818,93.89182,72.738014,83.84002,81.96005,0,0,0,0,0,0,0,0,0,0,0,0,-0.8491692,-0.054768346,2.6401138,3.1616764,3.2996197,0.08758977,3.2649825,3.8525107,-0.02630093,0.0101203285,-0.0018475875,-0.017270006,85,4,132,2,10,144.52069,258.49408,3317.784,25.161716,207268.27,247.47765,203.8865,205.1098,261.48706,261.48706,12.559047,1,391.69223,0,0,15.808492,15.808488,0,9,255,0,0,0,2,-127,113,0
True,7684296,9499.995,1203.1134,8177.329,-1.2922153,-1.2555474,6.061669,-7.627821,-0.41294745,24.65795,-0.27143237,-0.31901205,0.10882478,2.5866568,0.012611652,-0.026280208,0.16253759,0.66291904,0.109506145,0.29881647,1.2396666,0.33101556,2.0876224,1.9608448,83.438324,77.95501,85.61189,88.054855,0,0,0,0,0,0,0,0,0,0,0,0,-0.8785671,-0.18599062,2.2537656,2.4149637,1.5194254,0.3796891,3.072072,3.1107817,-0.018494055,0.010481007,-0.021594621,-0.010626107,85,4,132,2,10,146.81401,258.44412,3315.8018,25.814116,278194.03,324.14117,205.81024,203.16574,259.25348,259.25348,13.0086565,1,394.62384,0,0,15.927776,15.9277725,0,9,255,0,0,0,2,-127,97,0
True,7684406,9499.995,1203.1134,7798.2266,6.882506,4.153952,9.215481,-5.775344,-0.25551724,25.972397,-0.03855311,-0.54840344,0.11528407,2.5432842,-0.006155448,-0.011183402,0.30282018,0.55813736,0.64927405,0.7292015,0.5961269,0.67283344,0.6796332,0.8579525,79.26345,82.730194,79.78601,82.019424,0,0,0,0,0,0,0,0,0,0,0,0,-1.384162,-0.83985794,1.4709233,1.5178783,1.5070739,1.0761349,1.6203446,1.7435702,-0.010370858,0.0044135265,0.009679172,0.014310114,85,4,132,2,10,148.76746,258.41394,3314.041,26.60799,375215.28,459.46823,205.83118,201.81699,264.12894,264.12894,12.560172,1,397.15604,0,0,16.027962,16.027958,0,9,255,0,0,0,2,-127,81,0
True,7684515,9499.995,1203.1134,7929.6714,1.3739631,1.5100706,5.310289,-3.9632597,-0.16053104,26.778881,-0.02668238,-0.77672845,0.017615663,2.477674,-0.008363423,-0.0061003407,0.26255116,0.44265,0.5565174,0.65933037,0.8162522,0.4179275,0.93962264,0.5072458,81.55481,82.69673,83.66243,81.093124,0,0,0,0,0,0,0,0,0,0,0,0,-1.5781114,-1.0442746,0.9512758,0.91117173,1.7767113,1.124799,1.3370925,1.0428481,-0.012702674,-0.00227388,0.0043049157,0.01026183,85,4,132,2,10,150.68782,258.4187,3312.2205,27.071053,375581.53,452.41888,207.03612,200.92953,262.75195,262.75195,12.440854,1,399.68887,0,0,16.12654,16.126535,0,9,255,0,0,0,2,0,64,0
True,7684609,9499.995,1203.1134,7801.3394,-0.024022192,-0.24455214,-0.18922578,-1.7506161,-0.31548303,26.822472,-0.056570847,-0.8588536,0.08841333,2.3902857,-0.011910114,-0.0017608736,0.5937616,0.5516043,0.56105655,0.6402212,0.5133187,0.6379357,0.5443845,0.3934455,79.24627,83.99089,79.52713,81.78716,0,0,0,0,0,0,0,0,0.120000005,0.120000005,0,0,1.0186708,0.86543083,0.1631596,0.16400696,1.1406956,1.075143,0.56830937,0.42626005,0.0064763837,0.0040352196,0.00456791,0.009154655,85,4,132,2,10,152.6698,258.41998,3310.359,26.88139,555910.9,680.25214,206.0347,199.80568,259.34064,259.34064,12.387656,1,402.2945,0,0,16.227608,16.227602,0,9,255,0,0,0,2,0,46,0
True,7684718,9499.995,1203.1134,8026.053,-3.5716658,2.4164233,6.396967,0.27620316,0.04091972,27.820038,-0.033944275,-0.60202235,-0.08238596,2.3029368,-0.015868064,-0.0021819544,0.49237326,0.4496747,0.68417555,0.6662094,0.28684738,0.22895716,0.47187698,0.5882349,80.937805,83.14941,82.489494,85.28714,0,0,0,0,0,0,0,0,0,0,0,0.120000005,0.18538466,0.2057776,-0.2757461,-0.33903888,0.341539,0.30784056,0.546538,0.678946,0.0006053932,-0.001867108,0.011701342,0.010660395,85,4,132,2,10,155.06212,258.45444,3308.1326,27.821438,543647.1,646.4721,204.28104,198.64925,254.80777,254.80777,12.387736,1,405.4297,0,0,16.347162,16.347157,0,9,255,0,0,0,2,0,25,0
True,7684828,9499.995,1203.1134,8256.139,-9.95734,1.7497237,10.650798,0.71021175,-0.13500015,28.72516,-0.1382807,-0.3905001,-0.061328176,2.2559788,-0.02518033,-0.005978908,0.60379136,0.5609235,0.5057241,0.52625865,0.32060114,0.20712501,0.4986963,0.4463562,84.09769,84.960205,85.84423,86.61642,0,0,0,0,0,0,0,0,0,0,0,0,-0.056624867,-0.015954463,-0.3822241,-0.3308474,0.3255633,0.20773856,0.62832576,0.55560225,0.007057164,0.0045748614,0.001361981,0.002551742,85,4,132,2,10,157.05814,258.50006,3306.3564,28.734257,586398.5,678.4668,202.85413,197.53075,251.62912,251.62912,12.898528,1,408.02753,0,0,16.441849,16.441845,0,9,255,0,0,0,2,0,9,0
True,7684937,9499.995,1203.1134,8550.239,-11.483481,3.36892,11.8303385,0.391222,-0.17806423,30.065758,-0.015460326,-0.22181435,-0.032381903,2.222373,-0.039980166,-0.010831912,0.32510737,0.3081951,0.70685124,0.74303496,0.48857245,0.29434767,0.38114947,0.20912711,89.470856,88.97164,88.64585,88.373146,0,0,0,0,0,0,0,0,0,0,0,0,-0.5012959,-0.4342467,-0.19233604,-0.1754301,0.70000046,0.52460533,0.42692864,0.27296495,-0.009080298,-0.010059617,0.0130151585,0.015111618,85,4,132,2,10,159.69856,258.5905,3304.1946,30.06883,590263.56,659.62286,201.28223,196.28163,247.77759,247.77759,13.45271,1,411.34402,0,0,16.557945,16.557941,0,9,255,0,0,0,2,-127,249,0
True,7685062,9499.995,1203.1134,8335.937,-10.474552,1.9232011,4.585039,0.19573212,-0.20963389,30.697523,-0.11805489,-0.4018704,-0.044123046,2.1844954,-0.048460416,-0.01556512,0.48742944,0.5137652,0.52252525,0.6171058,-0.020001547,-0.012360202,-0.049734417,-0.021349398,86.515396,88.47026,85.882286,88.06859,0,0,0,0,0,0,0,0,0,0,0,0,-0.110761985,-0.06983327,-0.21279554,-0.18580817,0.11255345,0.07091869,0.21853021,0.18703067,0.00031911582,0.0018441156,0.002335433,0.007815365,85,4,132,2,10,162.61163,258.72626,3302.0166,30.698862,-189679.62,-216.98332,199.88751,195.22794,244.00273,244.00273,-1.3555975,1,414.90506,0,0,16.677118,16.677114,0,9,255,0,0,0,2,0,237,0
True,7685156,9499.995,1203.1134,7870.581,-8.427977,3.8150609,0.48760796,0.37563705,-0.057249278,30.59935,-0.055471502,-0.21627684,-0.034593154,2.1602795,-0.054760426,-0.015985185,0.5325747,0.55788636,0.614575,0.6529707,-0.00085324707,0.0019868086,-0.0012052549,0.002422773,86.78284,87.834915,86.46041,87.53991,0,0,0,0,0,0,0,0,0,0,0,0,-0.030107224,0.0043283617,-0.18810537,-0.182393,0.030119313,0.0047625755,0.18810923,0.1824091,0.0029332973,0.0043989904,0.0076687336,0.009893354,85,4,132,2,10,164.60089,258.84125,3300.624,30.60171,-167669.34,-203.15182,198.8446,194.41383,241.57596,241.57596,-8.15377,1,417.29227,0,0,16.756458,16.756454,0,9,255,0,0,0,3,0,230,0
True,7685265,9499.995,1203.1134,6863.6924,-5.317999,3.5533795,2.8452578,0.22293854,-0.04556811,30.766483,-0.16138606,-0.06612801,-0.022990528,2.1472232,-0.06642329,-0.018777063,0.61985797,0.60449773,0.5222181,0.5959177,0.13844849,0.12597586,0.24653313,0.18664943,89.22528,89.42906,89.98431,89.873405,0,0,0,0,0,0,0,0,0,0,0,0,-0.071067266,-0.034953754,-0.08614173,-0.084296994,0.15562308,0.13073516,0.26114935,0.20480233,0.007987514,0.0070980676,0.0023176372,0.00658774,85,4,132,2,10,167.25813,259.02988,3298.8376,30.767324,69791.586,96.40834,197.54785,193.38275,238.52081,238.52081,-7.1767693,1,420.44748,0,0,16.861275,16.861267,0,9,255,0,0,0,3,-3,223,0
True,7685375,9499.995,1203.1134,5531.184,-6.304646,3.8413153,7.537232,-0.06023884,-0.1908944,31.822216,-0.13512002,-0.1594139,-0.024955653,2.1376061,-0.08491285,-0.020581448,0.61881685,0.6126357,0.6642867,0.6784532,0.18391502,0.11987823,0.18833213,0.13758641,92.316055,92.48674,92.23643,92.452286,0,0,0,0,0,0,0,0,0,0,0,0,-0.38096693,-0.31174198,-0.035085443,-0.04042098,0.42303726,0.3339968,0.19157238,0.14340112,0.007927228,0.007569302,0.010548994,0.011369795,85,4,132,2,10,170.1602,259.2792,3296.9573,31.822844,367010.47,633.91235,196.35895,192.4569,235.58597,235.58597,2.8940039,1,423.86166,0,0,16.97179,16.971785,0,9,255,0,0,0,3,-127,216,0
True,7685484,9499.995,1203.1134,5700.6807,-8.873474,3.0555215,6.916577,-0.08057499,-0.14246106,32.531105,-0.05421252,-0.37322244,-0.038920753,2.1079867,-0.09510735,-0.020611867,0.63038343,0.662067,0.68864447,0.69789535,0.3690766,0.2245038,0.31823716,0.14259115,95.33233,96.00365,94.919464,95.01865,0,0,0,0,0,0,0,0,0,0,0,0,-0.72969705,-0.64361966,-0.10560668,-0.10208057,0.8177257,0.6816511,0.33530235,0.17536442,0.008597001,0.01043167,0.011960268,0.012496259,85,4,132,2,10,173.14183,259.58057,3295.1294,32.531513,412527.62,691.6626,195.37366,191.7156,232.8558,232.8558,6.9033136,1,427.2347,0,0,17.08085,17.080845,0,9,255,0,0,0,3,-127,211,0
True,7685578,9499.995,1203.1134,5949.536,-8.140178,-0.50004,6.844202,0.41190052,-0.09920743,33.195282,0.07567403,-0.41882306,-0.039194096,2.065697,-0.09220751,-0.019488577,0.51162565,0.57934463,0.6497096,0.68218774,0.84400076,0.35195154,0.5836352,0.34277377,101.08609,98.6817,99.2952,98.897026,0,0,0,0,0,0,0,0,0,0,0,0,-1.1092299,-0.8907309,-0.26739907,-0.25318858,1.3938179,0.95774287,0.64197534,0.42614353,0.0017202199,0.0056415536,0.009704407,0.011586171,85,4,132,2,10,176.1647,259.89807,3293.396,33.197983,441430.28,709.2415,194.77663,191.16048,230.4148,230.4148,8.007113,1,430.68,0,0,17.187286,17.187279,0,9,255,0,0,0,3,-127,206,0
True,7685703,9499.995,1203.1134,6142.2173,-10.885568,-1.529061,6.8776603,1.156642,-0.16551301,33.949467,0.050395217,-0.50420696,-0.021007966,2.0052292,-0.08848548,-0.017530834,0.33869484,0.48392224,0.6151511,0.6798004,1.1176218,0.42949414,0.6865256,0.3598975,105.484535,101.83956,102.18596,101.91265,0,0,0,0,0,0,0,0,0,0,0,0,-1.3032843,-1.0767536,-0.49998096,-0.44159058,1.7168659,1.1592512,0.8492929,0.569674,-0.008293502,0.00011602789,0.007702112,0.011447847,85,4,132,2,10,179.81673,260.2519,3291.4558,33.969566,437792.03,681.00525,195.1581,190.7594,227.91017,227.91017,8.648047,1,434.77414,0,0,17.310894,17.310888,0,9,255,0,0,0,3,-127,204,0
True,7685812,9499.995,1203.1134,6318.8486,-11.661756,-1.4734955,7.1662035,1.9260597,-0.19114687,34.646275,0.023660716,-0.5420181,-0.0200808,1.9414314,-0.08425706,-0.014479268,0.36187458,0.50472254,0.4720937,0.6181814,1.0211957,0.37447312,0.87089866,0.4423128,107.12283,103.77481,105.88701,105.206795,0,0,0,0,0,0,0,0,0,0,0,0,-1.1057761,-0.9270463,-0.7228162,-0.6208038,1.5051848,0.99982244,1.1317807,0.76225847,-0.0069512576,0.0013204888,-0.0005865395,0.007877685,85,4,132,2,10,183.57199,260.586,3289.6538,34.700294,439929.53,665.0972,195.78978,190.48679,225.71751,225.71751,9.04972,1,438.89886,0,0,17.43259,17.432587,0,9,255,0,0,0,3,-127,203,0
True,7685921,9499.995,1203.1134,6458.337,-11.763034,-1.2845751,7.2746334,2.4851913,-0.192907,35.177536,0.043332722,-0.52279085,-0.019635249,1.8890179,-0.081781045,-0.0119367,0.30816552,0.50576955,0.53379786,0.6563115,1.2490609,0.43108812,0.8677688,0.53010064,110.7025,105.707245,107.955696,107.3942,0,0,0,0,0,0,0,0,0,0,0,0,-1.3545911,-1.1138777,-0.8474234,-0.74123144,1.8425716,1.1943871,1.2129093,0.91127974,-0.010061331,0.0013811179,0.0029885583,0.01008692,85,4,132,2,10,186.70422,260.84756,3288.3035,35.265736,441909.53,653.74805,196.48251,190.44513,224.21959,224.21959,9.320737,1,442.27252,0,0,17.530352,17.530346,0,9,255,0,0,0,3,-127,205,0
True,7686031,9499.995,1203.1134,6590.427,-13.290681,-1.6609455,6.379215,3.0492277,-0.18516228,35.632557,0.06792773,-0.5032299,-0.0036232732,1.8374249,-0.07728381,-0.008888885,0.23424663,0.5190275,0.5199439,0.6805949,1.5539093,0.45516002,0.99326843,0.5140517,114.89243,107.020386,110.462494,108.78421,0,0,0,0,0,0,0,0,0,0,0,0,-1.5198848,-1.2809517,-0.98376864,-0.8526976,2.1736338,1.3594146,1.3979925,0.99566174,-0.014341675,0.0021488294,0.00218587,0.011493884,85,4,132,2,10,189.98457,261.10547,3287.0315,35.763264,401877.2,582.5438,197.935,190.92342,223.16791,223.16791,9.609733,1,445.5881,0,0,17.629662,17.629656,0,9,255,0,0,0,3,-127,208,0
True,7686140,9499.995,1203.1134,6737.193,-10.501092,-2.6696515,6.0532975,3.701992,-0.1467678,36.0223,0.06347275,-0.50927263,-0.008269809,1.7861766,-0.0689479,-0.0045653954,0.24154758,0.313085,0.36638913,0.6203399,1.1359938,0.6989511,1.0604316,0.8561517,112.38371,110.7935,112.52118,113.34163,0,0,0,0,0,0,0,0,0,0,0,0,-1.5826656,-1.4495658,-1.192482,-1.005611,1.9481561,1.6092774,1.5957845,1.3207003,-0.013918906,-0.009776466,-0.0067109913,0.008002747,85,4,132,2,10,193.51053,261.3589,3285.8076,36.21232,375332.3,531.98645,199.85255,192.03299,222.65933,222.65933,9.895114,1,449.27994,0,0,17.73357,17.733566,0,9,255,0,0,0,3,-127,214,0
True,7686250,9499.995,1203.1134,6768.0337,-13.737474,-0.8965645,7.182031,4.3639946,-0.17781463,36.48147,-0.031517033,-0.5796209,-0.048293956,1.7266804,-0.068026215,-0.004662063,0.4463224,0.55639744,0.41430852,0.5308232,1.0155294,0.37787038,1.1937431,0.5220978,113.64885,110.001366,115.789825,111.36551,0,0,0,0,0,0,0,0,0,0,0,0,-0.9428122,-0.78557813,-1.3069276,-1.1034049,1.385711,0.87173337,1.7700515,1.2206918,-0.0020612255,0.0043127723,-0.0039345734,0.0028162077,85,4,132,2,10,197.24257,261.60345,3284.6672,36.74199,460597.47,650.1276,201.48727,193.42523,222.70609,222.70609,10.07714,1,453.13223,0,0,17.840796,17.840792,0,9,255,0,0,0,3,0,222,0
True,7686359,9499.995,1203.1134,6888.1196,-13.749521,-1.0054796,7.3323245,4.843926,-0.16113071,36.97454,0.06638635,-0.44532657,-0.038022418,1.6712409,-0.06664726,-0.005726536,0.32790625,0.38641998,0.552322,0.65720713,1.0500858,0.53230727,0.994277,0.8108493,115.591415,112.626335,114.126114,116.777176,0,0,0,0,0,0,0,0,0,0,0,0,-1.1101023,-0.98257625,-1.4046029,-1.2232256,1.5280731,1.1175004,1.7208997,1.4675686,-0.008918226,-0.0055299327,0.004061833,0.01013881,85,4,132,2,10,201.10239,261.85123,3283.6746,37.29083,438572.4,608.56396,201.71817,193.05814,223.23787,223.23787,10.22841,1,457.05127,0,0,17.948622,17.948618,0,9,255,0,0,0,3,0,233,0
True,7686484,9499.995,1203.1134,7012.351,-12.516831,-1.7147679,6.876916,5.4278817,-0.21599701,37.465355,0.012878656,-0.44969913,-0.06338691,1.614272,-0.06250201,-0.008575708,0.26233694,0.3633868,0.48180702,0.50932765,1.3335164,0.45301872,1.0683181,0.73106664,120.16133,113.45919,118.76634,115.6949,0,0,0,0,0,0,0,0,0,0,0,0,-1.2610298,-1.050243,-1.4762954,-1.2756903,1.835337,1.1437817,1.8222929,1.4703212,-0.012715079,-0.006863691,-2.3756176E-05,0.0015707724,85,4,132,2,10,205.72908,262.12274,3282.6907,37.857113,416776.72,567.5937,202.27023,193.00876,223.99464,223.99464,10.542752,1,461.63995,0,0,18.074724,18.07472,0,9,255,0,0,0,3,0,247,0
True,7686578,9499.995,1203.1134,7110.328,-13.417749,-1.3897933,6.449955,5.6774373,-0.22494063,37.848064,0.045310747,-0.3963835,-0.025122449,1.5699533,-0.06065547,-0.010607192,0.25928742,0.37583905,0.4536807,0.59817576,1.5654796,0.45043048,1.1917241,0.662561,123.74937,114.29251,118.928535,118.2631,0,0,0,0,0,0,0,0,0,0,0,0,-1.3468156,-1.1616557,-1.5253905,-1.3192613,2.0651002,1.245926,1.9357226,1.4762918,-0.012891665,-0.006142631,-0.001653377,0.006718572,85,4,132,2,10,209.61601,262.33572,3282.0364,38.27218,391940.44,526.603,203.46024,193.1932,224.89679,224.89679,10.71178,1,465.51712,0,0,18.178396,18.17839,0,9,255,0,0,0,3,0,7,0
True,7686687,9499.995,1203.1134,7223.6206,-11.069976,-2.797319,5.8249164,6.011451,-0.18375039,38.2324,0.08387012,-0.34122813,-0.02212309,1.5272484,-0.051846053,-0.010662808,0.2035193,0.31905255,0.4244979,0.55293876,1.2108103,0.5549419,1.4119238,0.7119133,122.17652,117.00202,122.79714,119.42592,0,0,0,0,0,0,0,0,0,0,0,0,-0.95396906,-0.8169293,-1.6004362,-1.384259,1.5414664,0.98759,2.134227,1.5565968,-0.01612097,-0.009430908,-0.003344208,0.0040975697,85,4,132,2,10,214.11636,262.5576,3281.4507,38.702553,381660.8,504.5556,205.1087,193.7953,226.16666,226.16666,10.957915,1,469.9604,0,0,18.296457,18.296448,0,9,255,0,0,0,3,9,27,0
True,7686796,9499.995,1203.1134,7159.1426,-5.2430573,-1.7424598,7.874798,6.488963,-0.19305676,38.804295,-0.011985084,-0.16771652,0.01213929,1.5011066,-0.048221104,-0.009332064,0.36158985,0.3898353,0.3861118,0.48667875,0.31870833,0.3391592,1.1235485,0.64898455,115.605804,116.61455,124.28138,118.05325,0,0,0,0,0,0,0,0,0,0,0,0,0.07865352,0.29273516,-1.5581688,-1.438835,0.3282703,0.44802102,1.9210026,1.5784255,-0.0069677457,-0.0053321645,-0.0055682734,0.00025850907,85,4,132,2,10,217.84956,262.71704,3281.0676,39.343575,504652.88,673.2484,204.37334,193.39648,227.3266,227.3266,10.969634,1,473.6184,0,0,18.39272,18.39271,0,9,255,0,0,0,3,127,45,0
True,7686906,9499.995,1203.1134,7233.8145,-5.864693,-0.77847356,7.52843,6.00062,-0.258821,39.55164,0.029744035,0.07246629,-0.007068483,1.4965194,-0.049018525,-0.00978799,0.2985361,0.395605,0.53794646,0.5905594,0.56212,0.3290443,0.7821681,0.6266206,120.85209,117.93393,121.25158,121.65743,0,0,0,0,0,0,0,0,0,0,0,0,0.1482588,0.3457023,-1.2995735,-1.2350057,0.58134294,0.47726327,1.5167987,1.38488,-0.010618933,-0.0049980655,0.0032289252,0.0062772855,85,4,132,2,10,221.91504,262.8842,3280.716,40.00508,503596.28,664.96234,203.20299,192.92218,228.14055,228.14055,11.009538,1,477.5848,0,0,18.495615,18.495604,0,9,255,0,0,0,3,127,65,0
True,7687015,9499.995,1203.1134,7340.396,-6.072043,-1.6931468,7.8044715,4.2206306,-0.24869502,40.62313,0.029968688,0.36332208,-0.017564315,1.5239687,-0.04282146,-0.011236233,0.36513615,0.37782696,0.4928698,0.56910723,0.2777068,0.34451145,0.5381491,0.7298351,120.970505,120.03648,124.72367,122.375824,0,0,0,0,0,0,0,0,0,0,0,0,0.038040675,0.14954947,-0.8346955,-0.788555,0.28030014,0.37557048,0.993137,1.0744665,-0.006762393,-0.0060275197,0.00061721355,0.005034361,85,4,132,2,10,226.92708,263.0749,3280.3855,40.842556,529134.9,688.363,201.88162,192.38199,227.33125,227.33125,11.220078,1,482.44727,0,0,18.619995,18.619986,0,9,255,0,0,0,3,110,88,0
True,7687125,9499.995,1203.1134,7373.187,-8.062319,-1.0342886,8.60395,1.5462824,-0.23560184,41.63675,-0.00099449,0.4907574,-0.16884083,1.5701157,-0.039659943,-0.017523073,1,0.31795812,0.5433361,0.6148722,0.13415173,0.37383956,0.43479422,0.34585992,122.13035,122.333755,124.65454,122.426636,0,0,0,0,0,0,0,0,0,0,0,0,-0.2768688,-0.47970864,-0.20309003,-0.16675477,0.3076573,0.6081746,0.47988704,0.38396123,0.030000001,-0.009494282,0.0035411976,0.007685952,85,4,132,2,10,231.04951,263.21384,3280.1885,41.66612,558424.94,723.19745,200.8872,191.98781,225.66231,225.66231,11.320806,1,486.87857,0,0,18.720087,18.72008,0,9,255,0,0,0,3,0,106,0
True,7687250,9499.995,1203.1134,7633.691,0.20253953,-1.9937774,5.9651675,-0.3687297,-0.3625456,42.42708,0.09490076,0.26063502,-0.20193383,1.6128976,-0.04536236,-0.05779847,0.37264863,0.14904365,0.78907645,0.5228114,0.7060246,0.82236224,0.5256136,0.3554001,129.83353,129.87558,128.38332,124.31268,0,0,0,0,0,0,0,0,0,0,0,0,-0.02522826,0.03824039,0.17198388,0.1703307,0.7064752,0.8232509,0.5530354,0.39410883,-0.006327376,-0.019275434,0.017779231,0.0023520105,85,4,132,2,10,236.08902,263.4216,3280.035,42.43023,412522.84,517.0325,199.97029,191.56754,223.60657,223.60657,11.602258,1,491.82846,0,0,18.839893,18.839886,0,9,255,0,0,0,3,0,127,0
True,7687359,9499.995,1203.1134,7770.442,2.823099,-4.8058662,5.354549,-1.2054498,-0.72694635,42.927433,0.050154738,0.20717703,0.008360261,1.6394268,-0.03219911,-0.06555209,0.040829618,0,0.44703218,0.30968243,0.4072156,0.51197505,0.5681702,0.7427512,128.16156,128.40794,131.50955,129.38638,0,0,0,0,0,0,0,0,0,0,0,0,0.17240539,0.21919891,0.29140484,0.32754502,0.4422083,0.5569261,0.6385406,0.8117666,-0.02554167,-0.027905948,-0.002038587,-0.009996541,85,4,132,2,10,241.09732,263.5448,3279.8608,42.950504,446972.6,548.5316,199.0497,191.10437,221.89049,221.89049,12.277457,1,496.74887,0,0,18.957636,18.95763,0,9,255,0,0,0,3,0,127,0
True,7687468,9499.995,1203.1134,7234.0986,5.3522153,0.34148946,-11.690167,-1.0227895,-0.54799753,40.757572,0.0033357735,0.019622806,0.040180113,1.6518347,-0.030046394,-0.062045015,0.32337794,0.28222048,0.5593074,0.54076684,0.29840094,0.5722572,0.32904226,0.379969,119.99633,123.062126,121.38325,119.52568,0,0,0,0,0,0,0,0,0,0,0,0,0.19743565,0.25875,0.20992476,0.22502273,0.35780436,0.6280365,0.390304,0.44160128,-0.0091804415,-0.011563703,0.0044665635,0.003392335,85,4,132,2,10,245.83525,263.62607,3279.64,40.774082,536586.25,707.9251,198.19247,190.80232,220.36818,220.36818,11.705306,1,501.41092,0,0,19.071873,19.071865,0,9,255,0,0,0,3,0,127,0
True,7687578,9499.995,1203.1134,7348.082,3.3831398,-1.5015621,0.5980977,-0.5367422,-0.38733685,41.250164,0.10926418,-0.10713839,-0.026654843,1.64737,-0.022995738,-0.06147035,0.28237373,0.27139407,0.67698485,0.61394334,0.4877411,0.3316255,0.50894624,0.37835383,123.153915,121.7983,122.79724,122.8202,0,0,0,0,0,0,0,0,0,0,0,0,-0.36693287,-0.2958788,0.09159021,0.08376958,0.6103533,0.4444319,0.5171219,0.3875164,-0.01155483,-0.012190618,0.011284716,0.0076321363,85,4,132,2,10,249.72217,263.69177,3279.3992,41.25547,531839.9,691.27423,197.47905,190.5437,219.08733,219.08733,11.337409,1,505.24387,0,0,19.166628,19.16662,0,9,255,0,0,0,3,-127,127,0
True,7687671,9499.995,1203.1134,7457.284,-4.267393,-1.3123314,6.3871074,-0.028051138,-0.29529044,42.143085,0.015239818,-0.35566926,-0.047543995,1.6206802,-0.017379273,-0.06480869,0.36495215,0.36815095,0.5087007,0.5915734,0.46616048,0.247558,0.38878793,0.33636346,124.94085,124.09213,124.16381,124.89615,0,0,0,0,0,0,0,0,0,0,0,0,-0.8106097,-0.67925227,-0.09098728,-0.08323393,0.9350902,0.7229582,0.3992928,0.34650868,-0.006773047,-0.0065878183,0.0015344471,0.006336037,85,4,132,2,10,254.50438,263.7462,3279.1243,42.144127,562405.25,720.1408,196.82773,190.31638,217.62054,217.62054,11.458648,1,510.61108,0,0,19.281523,19.281515,0,9,255,0,0,0,3,-127,127,0
True,7687796,9499.995,1203.1134,7708.45,-13.386749,3.6868005,6.077528,0.63300383,-0.58656424,42.829002,-0.3090994,-0.5690417,-0.045020703,1.5672884,-0.03910321,-0.05809636,0.2793943,0.7820081,0.6904683,1,0,0.24482006,0.44577187,0.26577142,137.75534,126.38215,127.21165,127.070496,0,0,0,0,0,0,0,0,0,0,0,0,0,-1.2179397,-0.2689221,-0.2781664,0,1.242302,0.520607,0.38472196,-0.011727355,0.017376974,0.01206594,0.030000001,85,4,132,2,10,259.32178,263.83148,3278.9802,42.83769,570496.1,707.8187,196.8533,190.70743,216.30952,216.30952,11.769399,1,515.37024,0,0,19.394875,19.394869,0,9,255,0,0,0,3,-127,127,0
True,7687906,9499.995,1203.1134,8202.952,-7.0777736,-3.863164,4.841762,1.8871366,-0.7719542,43.24192,0.14025679,-0.38504753,0.24447957,1.5244405,-0.037662953,-0.028059492,0.122013174,0.2189794,0.42132673,0.64518934,0,0,1.2662667,0.94179904,137.74448,137.49171,137.48329,135.86694,0,0,0,0,0,0,0,0,0,0,0,0,0,0,-0.56740594,-0.5746792,0,0,1.3875809,1.1032867,-0.02084066,-0.015225738,-0.003527943,0.009442508,85,4,132,2,10,263.3994,263.93683,3278.9749,43.289963,511751.5,596.74426,196.02872,191.11655,215.33046,215.33046,12.347463,1,519.396,0,0,19.489426,19.489418,0,9,255,0,0,0,3,-127,127,0
True,7688000,9499.995,1203.1134,8837.813,-1.684351,-8.602734,1.6582143,2.8223162,-1.2231317,41.658215,0.15457669,-0.3416948,0.0072206557,1.4889086,-0.0248716,-0.014798997,0.015003079,0.05799147,0.16031405,0.17767653,0,0,1.7298431,1.7363863,151.29143,151.28941,146.69954,144.9578,0,0,0,0,0,0,0,0,0,0,0,0,0,0,-0.79223984,-0.76583564,0,0,1.9026301,1.8977728,-0.027037181,-0.024547897,-0.018650845,-0.017644875,85,4,132,2,10,267.57117,263.9617,3278.999,41.771618,292143.1,315.3992,195.22052,190.62613,214.88037,214.88037,13.640489,1,523.5133,0,0,19.586437,19.586432,0,9,255,0,0,0,3,0,127,0
True,7688109,9499.995,1203.1134,7475.042,-12.781455,-0.8193663,0.6771806,2.8038113,-0.5921825,40.689606,0.05659632,-0.32564798,-0.032858405,1.453335,-0.0044693383,-0.015124258,0.1028521,0.44672528,0.27131343,0.49346724,0.8042718,0.22228183,1.0489508,0.58041275,124.94176,119.93793,126.72492,125.16558,0,0,0,0,0,0,0,0,0,0,0,0,-0.52460724,-0.41022748,-0.72796106,-0.5933594,0.9602426,0.4665788,1.2768027,0.83003277,-0.0219502,-0.0020378977,-0.012219615,0.00065182894,85,4,132,2,10,272.2622,263.9017,3279.1506,40.790394,417888.7,531.9191,195.42984,190.68208,218.43158,218.43158,12.998355,1,528.75256,0,0,19.703379,19.703375,0,9,255,0,0,0,3,0,127,0
True,7688234,9499.995,1203.1134,7384.5435,-10.718601,1.6790667,7.947719,2.1675472,-0.08736323,41.795555,0.038718678,-0.098017715,0.046144094,1.4264694,-0.00356828,-0.012772246,0.37819174,0.6208533,0.5364959,0.71002793,0.28545415,0.26606506,0.4233899,0.29496148,122.63712,122.87606,123.96402,123.18069,0,0,0,0,0,0,0,0,0,0,0,0,0.19631623,0.26975745,-0.4974753,-0.46892303,0.346445,0.37889272,0.6532539,0.5539775,-0.0060063973,0.008045152,0.0031448826,0.013199214,85,4,132,2,10,277.10938,263.89078,3279.5283,41.851814,561484.25,726.455,194.88475,190.51395,217.31169,217.31169,11.557672,1,533.55206,0,0,19.82085,19.820847,0,9,255,0,0,0,3,127,127,0
