IsRaceOn,TimestampMS,EngineMaxRpm,EngineIdleRpm,CurrentEngineRpm,AccelerationX,AccelerationY,AccelerationZ,VelocityX,VelocityY,VelocityZ,AngularVelocityX,AngularVelocityY,AngularVelocityZ,Yaw,Pitch,Roll,NormalizedSuspensionTravelFrontLeft,NormalizedSuspensionTravelFrontRight,NormalizedSuspensionTravelRearLeft,NormalizedSuspensionTravelRearRight,TireSlipRatioFrontLeft,TireSlipRatioFrontRight,TireSlipRatioRearLeft,TireSlipRatioRearRight,WheelRotationSpeedFrontLeft,WheelRotationSpeedFrontRight,WheelRotationSpeedRearLeft,WheelRotationSpeedRearRight,WheelOnRumbleStripFrontLeft,WheelOnRumbleStripFrontRight,WheelOnRumbleStripRearLeft,WheelOnRumbleStripRearRight,WheelInPuddleDepthFrontLeft,WheelInPuddleDepthFrontRight,WheelInPuddleDepthRearLeft,WheelInPuddleDepthRearRight,SurfaceRumbleFrontLeft,SurfaceRumbleFrontRight,SurfaceRumbleRearLeft,SurfaceRumbleRearRight,TireSlipAngleFrontLeft,TireSlipAngleFrontRight,TireSlipAngleRearLeft,TireSlipAngleRearRight,TireCombinedSlipFrontLeft,TireCombinedSlipFrontRight,TireCombinedSlipRearLeft,TireCombinedSlipRearRight,SuspensionTravelMetersFrontLeft,SuspensionTravelMetersFrontRight,SuspensionTravelMetersRearLeft,SuspensionTravelMetersRearRight,CarOrdinal,CarClass,CarPerformanceIndex,DrivetrainType,NumCylinders,PositionX,PositionY,PositionZ,Speed,Power,Torque,TireTempFl,TireTempFr,TireTempRl,TireTempRr,Boost,Fuel,Distance,BestLapTime,LastLapTime,CurrentLapTime,CurrentRaceTime,Lap,RacePosition,Accelerator,Brake,Clutch,Handbrake,Gear,Steer,NormalDrivingLine,NormalAiBrakeDifference
True,13708437,7999.995,1082.2844,1082.3015,-0.050479934,0.013321901,-0.07826428,-0.00943603,-7.02407E-05,-0.0016386365,0.0002708023,-0.00026007555,-0.0034584408,-0.68002677,-0.00056392804,0.0012188174,0.3519237,0.33766407,0.375861,0.36944103,0.00077867636,0.00079377374,-0.044914216,0.011302915,-0.0047836415,-0.0047836415,-0.0047836415,-0.0047836415,0,0,0,0,0,0,0,0,0,0,0,0,0.027678812,0.014590731,0.0029621911,-0.01008031,0.027689762,0.014612307,0.045011792,0.015144918,0.0016864687,-0.0013458431,0.0008280575,-0.00061684847,59,3,32,2,4,331.7177,559.4172,3146.0344,0.009577511,-0.02052594,-0.00018110321,138.4159,136.37556,137.53763,137.53763,-11.024998,1,0,0,0,0,259.23483,0,0,0,0,0,255,1,-127,0,127
True,13734796,7999.995,1082.2844,1829.2887,0.0387889,-0.03935598,0.3384514,0.0021196436,-0.0019565937,0.03929764,-0.004112184,-3.7251826E-05,-0.0035465024,2.3600717,0.053208187,0.00024046557,0.34778446,0.34817693,0.36667526,0.3676092,-0.0013521586,-0.0013088346,-0.0015565599,-0.0015241195,0.121711485,0.121884,0.12246621,0.1226839,0,0,0,0,0,0,0,0,0,0,0,0,0.0015425497,0.00095336797,0.0012343321,0.00057816046,0.0020512906,0.0016192463,0.0019865686,0.0016300951,0.0008062571,0.00088971853,-0.0012393296,-0.0010291338,59,3,32,2,4,270.06146,260.55798,3220.5886,0.03940337,35282.29,187.79402,107.995346,107.95117,108.76988,108.76988,-11.024998,1,-249.3653,0,0,0.09177113,0.09177113,0,8,255,0,0,0,1,0,76,0
True,13734906,7999.995,1082.2844,4257.241,0.3837455,0.1362527,1.0870695,0.006126404,-0.0031485278,0.10186109,-0.0065552685,-5.7244702E-05,-0.010132849,2.3600698,0.0527712,-0.0005285796,0.34546235,0.34916097,0.36855596,0.3730625,0.051604908,0.048220657,0.06014951,0.057203986,0.43007985,0.42140648,0.45010787,0.4429028,0,0,0,0,0,0,0,0,0,0,0,0,0.0013253296,0.0008247677,0.0010010517,0.00042842218,0.051621925,0.04822771,0.06015784,0.057205588,0.00031246245,0.0010989755,-0.0008160472,0.00019821525,59,3,32,2,4,270.06604,260.55734,3220.5833,0.10209372,182253.72,413.5743,107.96883,107.92453,108.74245,108.74245,-8.606643,1,-249.34613,0,0,0.2001771,0.2001771,0,8,255,0,0,0,1,0,76,0
True,13735000,7999.995,1082.2844,4559.4697,0.088658094,-0.35640103,7.8636813,0.008062273,-0.040463045,0.9861287,-0.13273323,-0.0006360316,-0.012862567,2.3600373,0.04654473,-0.0017688546,0.3267295,0.33756617,0.4024437,0.41291812,0.6205695,0.46151742,0.37347427,0.32974,4.7819858,4.3639135,4.120121,4.0340695,0,0,0,0,0,0,0,0,0,0,0,0,-0.0009228361,3.403582E-05,-0.0051395623,-0.00435643,0.62057024,0.46151742,0.37350965,0.32976878,-0.0036710799,-0.00136666,0.0068109035,0.009168327,59,3,32,2,4,270.09714,260.5534,3220.551,0.9869915,202239.62,422.63126,108.03459,107.9879,108.80461,108.80461,2.2442732,1,-249.22334,0,0,0.29421857,0.29421854,0,8,255,0,0,0,1,0,76,0
True,13735125,7999.995,1082.2844,4266.375,-0.47642803,-0.064977795,13.353163,0.0011457205,-0.07065139,2.6175966,-0.19522199,-0.0038027186,-0.0058575645,2.359841,0.025353853,-0.0028393422,0.25157654,0.26217267,0.51880175,0.5451293,2.2998195,1.9325638,0.45269677,0.38163352,14.025831,13.147534,9.2751255,9.115636,0,0,0,0,0,0,0,0,0,0,0,0,0.014968003,0.015742298,-0.007787151,0.00065080234,2.2998683,1.9326279,0.45276374,0.38163406,-0.019652367,-0.017399102,0.03299904,0.038924456,59,3,32,2,4,270.24667,260.53903,3220.3997,2.61855,245317.06,548.6797,108.971405,108.477264,108.98016,108.98016,19.47963,1,-248.64133,0,0,0.41243353,0.41243348,0,8,255,0,0,0,1,0,76,0
True,13735234,7999.995,1082.2844,4140.724,-0.53432894,-0.47026134,14.527767,-0.008064985,-0.16201845,4.348097,-0.096924424,-0.023864644,0.0014707446,2.358575,0.0071114097,-0.0031928124,0.1627741,0.18157639,0.60997593,0.6364579,7.7625933,7.0692687,4.040639,3.77225,31.93389,30.651648,24.226557,23.673586,0,0,0,0,0,0,0,0,0,0,0,0,0.05956189,0.055926286,-0.047413077,-0.026848067,7.7628217,7.06949,4.0409174,3.7723455,-0.03853622,-0.03453791,0.053519174,0.05947934,59,3,32,2,4,270.53665,260.52066,3220.1086,4.351122,264579.53,612.0337,116.20366,115.35374,111.18472,111.18472,27.737953,1,-247.52025,0,0,0.52915436,0.5291543,0,8,255,0,0,0,1,0,75,0
True,13735359,7999.995,1082.2844,4942.2046,-0.021395683,-0.6538422,13.803768,-0.0019414425,-0.25022554,5.8512545,0.015308043,-0.02785072,-0.021478243,2.3553038,0.0035343587,-0.004181224,0.12934339,0.1432809,0.6366981,0.6491362,8.739515,7.9476314,4.925751,5.216868,38.752182,37.317356,31.107424,31.805927,0,0,0,0,0,0,0,0,0,0,0,0,0.063231066,0.057133533,-0.03961181,-0.01743705,8.739744,7.947837,4.9259105,5.216897,-0.045645267,-0.042681456,0.059533402,0.06233278,59,3,32,2,4,270.94998,260.49353,3219.6958,5.8566027,312925.5,605.82446,124.04025,123.43733,121.5244,121.5244,29.11166,1,-245.92538,0,0,0.64359796,0.6435979,0,8,255,0,0,0,1,0,75,0
True,13735453,7999.995,1082.2844,5481.5947,-0.23191881,-0.5999552,12.83353,0.009940147,-0.29686317,7.0877924,0.025989505,-0.046192437,0.011492576,2.3520365,0.0059794364,-0.004658911,0.15033309,0.15770526,0.60565895,0.6458677,6.5329413,7.031198,5.1928673,4.1433806,40.27159,41.831203,37.197243,34.85138,0,0,0,0,0,0,0,0,0,0,0,0,0.038866967,0.036069855,-0.08523999,-0.060487177,6.5330567,7.0312905,5.193567,4.143822,-0.041181803,-0.03961411,0.052547574,0.061597154,59,3,32,2,4,271.37363,260.4649,3219.274,7.094013,340711.56,594.7356,130.2623,129.82393,129.1872,129.1872,29.329815,1,-244.29256,0,0,0.7359235,0.73592347,0,8,255,0,0,0,1,0,74,0
True,13735578,7999.995,1082.2844,5910.6826,0.27302504,-0.6071208,14.98519,0.02696991,-0.33582383,8.760539,-0.0005589796,-0.043623284,0.00584085,2.3471467,0.006760371,-0.0049953316,0.14774233,0.16691391,0.60395116,0.6272316,5.332807,4.964931,3.451882,2.8785822,45.00038,44.22357,39.403946,37.590183,0,0,0,0,0,0,0,0,0,0,0,0,0.019339684,0.01596415,-0.07644807,-0.05426157,5.3328424,4.9649568,3.4527283,2.8790936,-0.04173273,-0.03765589,0.0521632,0.05740282,59,3,32,2,4,272.03296,260.4232,3218.6206,8.767014,357687.97,578.43805,137.85165,137.68973,138.53946,138.53946,29.38821,1,-241.75903,0,0,0.85247636,0.85247636,0,8,255,0,0,0,1,0,74,0
True,13735671,7999.995,1082.2844,6090.427,-1.1347594,-0.51548666,14.31968,0.035603046,-0.38271025,10.238375,-0.005891159,-0.034015864,-0.013141601,2.342691,0.006697138,-0.004661922,0.15372927,0.16598207,0.61831725,0.6231003,4.0043573,3.4439566,1.920941,2.1726048,46.99383,44.999382,39.048153,40.231415,0,0,0,0,0,0,0,0,0,0,0,0,0.01143892,0.008087245,-0.055710874,-0.038508687,4.0043736,3.4439662,1.9217488,2.172946,-0.040459603,-0.037854046,0.055396512,0.056473,59,3,32,2,4,272.7087,260.38083,3217.956,10.245587,358327.28,562.12665,144.02893,143.77237,144.67506,144.67506,29.397427,1,-239.1712,0,0,0.95219916,0.95219916,0,8,255,0,0,0,1,0,74,0
True,13735781,7999.995,1082.2844,6228.7495,-0.7707267,-0.68042636,14.992258,0.026552677,-0.47350472,11.994914,-0.0045991223,-0.021427816,-0.0041241506,2.339147,0.006169134,-0.004743859,0.14423095,0.14572057,0.61357886,0.62511003,2.38479,2.4690163,0.992743,0.9123596,47.048447,47.384003,40.561787,40.168407,0,0,0,0,0,0,0,0,0,0,0,0,0.0025371793,-0.000886226,-0.038446724,-0.019796621,2.3847911,2.4690166,0.99348724,0.91257435,-0.042479426,-0.042162657,0.054330066,0.056925327,59,3,32,2,4,273.6548,260.32108,3217.0337,12.004286,358781.16,549.86096,149.5768,148.99683,145.86633,145.86633,29.399574,1,-235.56485,0,0,1.0710094,1.0710094,0,8,255,0,0,0,1,0,74,0
True,13735921,7999.995,1082.2844,6234.1636,-1.0115395,-0.692781,13.293024,0.001054287,-0.5572805,13.896868,0.026043449,-0.008141256,0.0036474168,2.3370974,0.006510278,-0.0044381353,0.12749317,0.13560642,0.6105279,0.6185382,0.81115854,0.7554345,0.31320113,0.30670926,45.221123,44.96877,42.562016,42.56298,0,0,0,0,0,0,0,0,0,0,0,0,0.005361528,0.001514839,-0.015806297,0.0020964586,0.81117624,0.755436,0.31359974,0.3067164,-0.046038717,-0.04431343,0.05364339,0.055446237,59,3,32,2,4,274.92993,260.24008,3215.8025,13.908037,321903.06,493.72314,150.01244,148.95631,143.79384,143.79384,29.399948,1,-230.7274,0,0,1.2072212,1.2072213,0,8,255,0,0,0,1,0,74,0
True,13736031,7999.995,1082.2844,6640.948,0.1851511,-0.5512948,13.253656,-0.0019750595,-0.5658972,15.032406,0.03891661,-0.0032968319,0.007924637,2.33658,0.009901259,-0.0038631032,0.13810343,0.14708729,0.5948312,0.5995593,0.58980036,0.54836214,0.29180202,0.29282674,47.605312,47.372784,45.87819,45.898052,0,0,0,0,0,0,0,0,0,0,0,0,0.0021635427,-0.00087067083,-0.010565165,0.0045545725,0.5898043,0.5483628,0.29199323,0.29286215,-0.043782443,-0.041872025,0.050110623,0.051174745,59,3,32,2,4,275.92087,260.17508,3214.8496,15.043052,358991.03,516.7488,148.2786,147.25812,142.32796,142.32796,29.399952,1,-226.97589,0,0,1.3021898,1.30219,0,8,255,0,0,0,1,0,75,0
True,13736125,7999.995,1082.2844,7041.946,-0.48973846,-0.16019845,11.617434,-0.0047779083,-0.5251808,16.179022,0.027072936,-0.0012237739,0.012422921,2.3363588,0.013434768,-0.0028499602,0.1767238,0.18920839,0.57345396,0.57436144,0.39488357,0.37509158,0.2529076,0.25669223,49.955868,49.840675,49.10424,49.13028,0,0,0,0,0,0,0,0,0,0,0,0,0.00031717392,-0.0012387937,-0.007606435,0.0043576034,0.3948837,0.37509364,0.253022,0.25672922,-0.035569817,-0.032914966,0.04529935,0.045503587,59,3,32,2,4,277.0409,260.10205,3213.7737,16.187544,356158.78,483.61807,146.52434,145.546,140.88383,140.88383,29.399952,1,-222.73679,0,0,1.4016236,1.4016236,0,8,255,0,0,0,1,0,75,0
True,13736250,7999.995,1082.2844,7053.578,-0.78105235,0.18105756,5.9321394,-0.00746727,-0.45614952,17.096195,0.04679946,-0.0002736156,0.013373842,2.3362799,0.015448113,-0.0012749165,0.21293026,0.22394261,0.5397404,0.539868,0.00059515913,0.0005867395,0.00053248205,0.0005393057,49.850777,49.850513,49.84894,49.84895,0,0,0,0,0,0,0,0,0,0,0,0,0.00017822969,-0.00029733754,-0.004985657,0.0044335453,0.00062127307,0.00065777876,0.0050140116,0.004466226,-0.027870506,-0.025528729,0.03771159,0.03774032,59,3,32,2,4,278.4784,260.01517,3212.3936,17.10228,-41582.688,-56.249886,144.49457,143.5705,139.24065,139.24065,9.536653,1,-217.29921,0,0,1.5204899,1.5204899,0,8,255,0,0,0,1,0,76,0
True,13736359,7999.995,1082.2844,5200.2437,-0.047143936,0.13591312,7.762429,-0.0076522827,-0.36256415,17.6006,-0.0077661825,-0.00014093614,0.010368446,2.3362515,0.020999556,-9.8138094E-05,0.24770625,0.25573134,0.5222726,0.52297723,0.68144476,0.675837,0.50661814,0.51756465,56.225502,56.213436,54.964493,55.023586,0,0,0,0,0,0,0,0,0,0,0,0,0.00041000574,0.000726964,-0.00277566,0.0036918635,0.6814449,0.6758374,0.5066258,0.5175778,-0.020475388,-0.018768847,0.033780202,0.033938795,59,3,32,2,4,279.66574,259.94534,3211.2537,17.604334,150319.28,273.85242,142.9118,142.03145,137.9696,137.9696,8.563926,1,-212.80849,0,0,1.6163256,1.6163255,0,8,255,0,0,0,2,0,76,0
True,13736453,7999.995,1082.2844,5242.692,-0.45818925,0.25002986,8.472815,-0.0048303604,-0.3736406,18.490395,-0.03231623,-0.0004479681,0.004293476,2.3362257,0.018244287,0.0005018952,0.23106937,0.23614466,0.5260088,0.5287156,0.27756965,0.28117,0.20561631,0.20559597,56.29947,56.327194,55.807137,55.808838,0,0,0,0,0,0,0,0,0,0,0,0,0.0009705265,0.0009775448,-0.0030256724,0.0042415927,0.27757135,0.2811717,0.20563856,0.20563972,-0.024013221,-0.02293396,0.03462109,0.03523031,59,3,32,2,4,280.93335,259.87576,3210.0364,18.494171,310000.84,565.38043,141.49945,140.66101,136.84146,136.84146,24.409355,1,-207.87842,0,0,1.7135633,1.7135632,0,8,255,0,0,0,2,0,76,0
True,13736562,7999.995,1082.2844,5520.551,-0.18373108,0.03815534,9.084159,-0.0020389557,-0.4474985,19.408665,-0.03630695,-0.0005524592,-0.0014862046,2.3361707,0.014726336,0.0006286558,0.19905724,0.19920887,0.520558,0.52505976,0.30615532,0.31704864,0.21926968,0.21626508,59.32548,59.411297,58.705612,58.684948,0,0,0,0,0,0,0,0,0,0,0,0,0.001651021,0.0008746596,-0.0031301382,0.0046221837,0.30615976,0.31704983,0.21929201,0.21631448,-0.030820608,-0.030788362,0.033394307,0.034407496,59,3,32,2,4,282.30524,259.80325,3208.7188,19.413822,338881.28,586.62054,140.1111,139.31448,135.72928,135.72928,28.325787,1,-202.68785,0,0,1.8139498,1.8139498,0,8,255,0,0,0,2,0,77,0
True,13736687,7999.995,1082.2844,5793.198,0.2131567,0.093014814,9.572304,0.002919197,-0.5226815,20.397644,-0.0470127,-0.00029344717,-0.013337683,2.3361332,0.010566275,-0.0001321123,0.21757866,0.20086794,0.5096614,0.51386,0.27882424,0.2967614,0.21891725,0.21005525,62.15054,62.289032,61.707653,61.64188,0,0,0,0,0,0,0,0,0,0,0,0,0.0021217798,0.0015552047,-0.002311578,0.00523123,0.27883232,0.29676548,0.21892945,0.21012038,-0.026882023,-0.030435562,0.030941859,0.031886816,59,3,32,2,4,283.82697,259.72482,3207.2568,20.40434,355303.9,586.16516,138.75284,138.00092,134.64517,134.64517,29.187794,1,-196.92911,0,0,1.9199497,1.9199497,0,8,255,0,0,0,2,0,79,0
True,13736812,7999.995,1082.2844,6122.7944,-0.18069029,0.1561629,8.904908,0.0041770935,-0.61823386,21.579592,-0.027976666,-0.0004983055,-0.006327742,2.3360856,0.004262019,-0.0015495502,0.20433587,0.20586236,0.5584925,0.5479182,0.31737188,0.29068652,0.19167659,0.1953682,66.024765,65.803696,65.01414,65.04417,0,0,0,0,0,0,0,0,0,0,0,0,0.00045861295,-0.0003438988,-0.005159136,0.0044585834,0.3173722,0.29068673,0.19174601,0.19541906,-0.029698104,-0.029373497,0.041932046,0.039552137,59,3,32,2,4,285.80753,259.63007,3205.3535,21.588446,358332.72,559.33826,137.20973,136.50456,133.41806,133.41806,29.371338,1,-189.43427,0,0,2.0507448,2.0507448,0,8,255,0,0,0,2,0,81,0
True,13736890,7999.995,1082.2844,6326.4277,0.5166936,-0.050204314,9.332122,-0.000872612,-0.6274616,22.302208,0.021754099,-0.00071976817,0.006447684,2.3360326,0.004294342,-0.0015254235,0.1784996,0.18553527,0.5582623,0.5601941,0.32390258,0.29566243,0.20656562,0.20812733,68.18403,67.94891,67.22531,67.2384,0,0,0,0,0,0,0,0,0,0,0,0,5.75085E-05,-0.0014155544,-0.0061792303,0.003968454,0.32390258,0.29566583,0.20665802,0.20816515,-0.03519219,-0.033696055,0.041880235,0.042315006,59,3,32,2,4,287.1285,259.57074,3204.0845,22.31103,359123.9,542.4228,136.30316,135.62128,132.69463,132.69463,29.392006,1,-184.43605,0,0,2.1341884,2.1341884,0,8,255,0,0,0,2,0,82,0
True,13737015,7999.995,1082.2844,6601.5854,0.25309753,-0.72114486,8.887425,-0.009007454,-0.6276328,23.343643,0.033937864,-0.00023300797,0.012135543,2.335965,0.008271624,-0.00024341975,0.17313659,0.17796704,0.52120197,0.5232152,0.27172202,0.2743018,0.20848478,0.20296018,70.86263,70.884895,70.33458,70.2837,0,0,0,0,0,0,0,0,0,0,0,0,0.0014800611,6.654033E-05,-0.0036213375,0.0043155784,0.27172604,0.2743018,0.20851623,0.20300604,-0.036332637,-0.03530544,0.03353925,0.03399235,59,3,32,2,4,289.17273,259.47473,3202.1223,23.35208,358848.94,519.2971,135.05052,134.40454,131.70079,131.70079,29.398804,1,-176.70451,0,0,2.2582974,2.2582972,0,8,255,0,0,0,2,0,84,0
True,13737125,7999.995,1082.2844,6811.0806,0.27217674,-0.039750088,8.562883,-0.011301041,-0.56595105,24.186377,0.0062334333,0.0006016942,0.0049032834,2.3359845,0.010524165,0.0008867896,0.21106462,0.2106104,0.4954646,0.49520653,0.21966976,0.2258553,0.18516,0.18512124,72.96538,73.01729,72.67491,72.668846,0,0,0,0,0,0,0,0,0,0,0,0,0.0024128216,0.0019125518,-0.000477899,0.005369881,0.219683,0.22586341,0.1851606,0.18519911,-0.028267235,-0.028363824,0.027746662,0.027688578,59,3,32,2,4,290.95667,259.38873,3200.4106,24.192999,358113.78,502.45465,134.07353,133.45868,130.93329,130.93329,29.399754,1,-169.95848,0,0,2.362291,2.3622909,0,8,255,0,0,0,2,0,85,0
True,13737234,7999.995,1082.2844,7018.4614,-0.17500281,0.7359198,7.703664,-0.006210327,-0.528926,24.968594,-0.034423627,0.00018722513,-0.0005268119,2.3360312,0.009050529,0.0009880303,0.2409925,0.24107294,0.50282514,0.50159925,0.19651239,0.19659983,0.17114641,0.17172189,75.15514,75.156105,74.94069,74.944664,0,0,0,0,0,0,0,0,0,0,0,0,0.0016853131,0.0017712038,-0.001055525,0.0046914406,0.19651961,0.1966078,0.17114966,0.17178597,-0.021903068,-0.021885961,0.02940327,0.02912736,59,3,32,2,4,292.7562,259.30844,3198.6836,24.974194,356589.38,485.48685,133.18216,132.59586,130.23734,130.23734,29.399948,1,-163.15318,0,0,2.4637494,2.463749,0,8,255,0,0,0,2,0,86,0
True,13737343,7999.995,1082.2844,7231.439,0.3510461,0.9871255,7.9448557,-0.0030584335,-0.55346674,25.738018,-0.05124777,-0.00012031134,0.0015479494,2.3360271,0.0040907585,0.000938891,0.23837833,0.23970342,0.5227201,0.52307767,0.19794536,0.19508885,0.16056307,0.16056682,77.50239,77.47488,77.16421,77.16468,0,0,0,0,0,0,0,0,0,0,0,0,0.0005666305,0.00064534444,-0.0027893868,0.003896279,0.19794616,0.19508992,0.1605873,0.16061409,-0.02245897,-0.02217719,0.03388092,0.0339614,59,3,32,2,4,294.67502,259.23444,3196.841,25.743967,354289.22,468.04462,132.32515,131.76614,129.5719,129.5719,29.399952,1,-155.89647,0,0,2.5686364,2.5686355,0,8,255,0,0,0,2,0,87,0
True,13737468,7999.995,1082.2844,6955.3145,0.120491624,0.35787678,2.3329687,-0.0029792786,-0.5416328,26.19039,0.05830156,-5.5475648E-05,-0.00078241713,2.33602,0.0024046402,0.0012357173,0.22877853,0.21881644,0.5102859,0.5107363,0.0007917887,0.0008376473,0.0007539054,0.0007244111,76.38155,76.38206,76.38152,76.3816,0,0,0,0,0,0,0,0,0,0,0,0,0.00096697395,0.0007062641,-0.0022124369,0.0037700261,0.0012497872,0.001095656,0.0023373596,0.0038389931,-0.02450037,-0.026618809,0.031082422,0.03118378,59,3,32,2,4,297.15698,259.15286,3194.4578,26.195988,-41026.39,-56.249886,131.29584,130.76817,128.76859,128.76859,2.139102,1,-146.1254,0,0,2.7005348,2.7005339,0,8,255,0,0,0,3,0,87,0
True,13737578,7999.995,1082.2844,5333.9243,-0.47544718,0.3393588,5.010312,0.0009870529,-0.4205497,26.77233,-0.0030945386,-0.0003060817,-0.009101229,2.3360014,0.0060363836,0.0007251829,0.25958034,0.2492693,0.47851595,0.47369355,0.1494727,0.15358625,0.14396308,0.14269301,79.975945,80.018234,79.933365,79.922646,0,0,0,0,0,0,0,0,0,0,0,0,0.0010314953,0.0013310519,-0.0010423907,0.0028451644,0.14947626,0.15359202,0.14396685,0.14272138,-0.017950356,-0.020143002,0.023932114,0.022846758,59,3,32,2,4,299.18527,259.08887,3192.51,26.77563,292474.16,523.98486,130.54495,130.04106,128.18507,128.18507,19.283249,1,-138.45453,0,0,2.8069196,2.8069186,0,8,255,0,0,0,3,0,87,0
True,13737687,7999.995,1082.2844,5479.3906,-0.30174828,0.42886376,5.8721914,0.005085945,-0.45063597,27.39325,-0.04375317,-0.0003808194,-0.011996403,2.3359663,0.0034542887,-0.00047666417,0.2444055,0.23858967,0.48014355,0.47517338,0.17975062,0.17817193,0.15939572,0.15819599,82.24519,82.22944,82.05384,82.044624,0,0,0,0,0,0,0,0,0,0,0,0,0.00062166026,0.00072595023,-0.0018140012,0.0024733408,0.1797517,0.17817341,0.15940605,0.15821533,-0.021177292,-0.022414029,0.02429843,0.023179814,59,3,32,2,4,301.15466,259.0322,3190.6182,27.396957,332445.25,579.64404,129.90146,129.41891,127.69147,127.69147,27.237305,1,-131.00583,0,0,2.907752,2.9077513,0,8,255,0,0,0,3,0,86,0
True,13737781,7999.995,1082.2844,5622.347,-0.021145105,0.10552178,6.554965,0.0028791428,-0.5758182,28.063599,-0.048569474,0.00019870198,0.00077583455,2.3359559,-0.0018365445,-0.0010092086,0.20948964,0.21537443,0.48507476,0.48505184,0.20357963,0.19602965,0.1583696,0.15896043,84.530716,84.45048,84.08042,84.0839,0,0,0,0,0,0,0,0,0,0,0,0,-0.0006236991,-0.0010277479,-0.0030621556,0.0018171679,0.20358059,0.19603235,0.1583992,0.15897082,-0.028602153,-0.027350754,0.025408268,0.025403112,59,3,32,2,4,303.2312,258.97693,3188.6233,28.069504,346407.72,588.5886,129.29712,128.83519,127.23309,127.23309,28.9585,1,-123.15185,0,0,3.0115683,3.0115676,0,8,255,0,0,0,3,0,85,0
True,13737890,7999.995,1082.2844,5776.4185,0.26419187,0.0038922029,6.732544,0.0011968613,-0.6756963,28.849983,-0.0153156305,0.00091709744,-0.009277483,2.3360384,-0.0053952252,-0.0010409873,0.22427489,0.20146944,0.48397014,0.48783544,0.18982199,0.20775646,0.16270578,0.15849686,86.692314,86.882706,86.42798,86.38145,0,0,0,0,0,0,0,0,0,0,0,0,0.00088762346,0.00040662778,-0.0015532527,0.003935459,0.18982406,0.20775686,0.16271318,0.1585457,-0.025458068,-0.03030765,0.025159657,0.026029602,59,3,32,2,4,305.71286,258.91373,3186.24,28.857895,355280.88,587.51276,128.65932,128.21986,126.7538,126.7538,29.330536,1,-113.766884,0,0,3.132438,3.1324372,0,8,255,0,0,0,3,0,84,0
True,13738015,7999.995,1082.2844,5913.3296,0.1429522,0.5742696,6.6228323,0.010538101,-0.6663384,29.604034,-0.014973477,3.107533E-05,-0.015698187,2.336112,-0.0068699406,-0.0033224954,0.22965473,0.23262486,0.52247673,0.50257397,0.18132068,0.16592301,0.15000625,0.15224144,88.8453,88.67474,88.52442,88.54988,0,0,0,0,0,0,0,0,0,0,0,0,-4.936168E-05,-8.350369E-05,-0.0036891522,0.0027691186,0.18132068,0.16592304,0.15005161,0.15226662,-0.024314046,-0.023682445,0.033826157,0.029346734,59,3,32,2,4,308.17435,258.85556,3183.8748,29.611536,357508.3,577.49274,128.1011,127.682724,126.338974,126.338974,29.388363,1,-104.45645,0,0,3.2491806,3.24918,0,8,255,0,0,0,3,0,82,0
True,13738109,7999.995,1082.2844,6023.0933,0.6196358,1.2357547,7.256959,0.002240181,-0.6220587,30.198242,-0.040037613,0.00010742277,0.014154095,2.3361254,-0.009370141,-0.0031956662,0.2513955,0.2762712,0.50978994,0.5207623,0.16049328,0.14995933,0.14149974,0.1405955,90.422424,90.30521,90.231094,90.21766,0,0,0,0,0,0,0,0,0,0,0,0,-0.0024374863,-0.0019242747,-0.0048927064,0.0008761821,0.16051179,0.14997166,0.1415843,0.14059822,-0.019690871,-0.014401048,0.030970797,0.033440292,59,3,32,2,4,310.22226,258.81702,3181.9067,30.204649,358146.94,568.00616,127.68515,127.28361,126.033844,126.033844,29.397282,1,-96.71035,0,0,3.3441212,3.344121,0,8,255,0,0,0,3,0,80,0
True,13738218,7999.995,1082.2844,6136.8096,-0.110718966,1.4963038,5.789402,-0.007881165,-0.6039293,30.77702,-0.05701942,0.0004967046,0.010395821,2.336158,-0.014068495,-0.0013353432,0.29331475,0.3061496,0.52556497,0.5412719,0.14620224,0.15703888,0.13792908,0.1352581,92.01296,92.13765,91.939705,91.90508,0,0,0,0,0,0,0,0,0,0,0,0,-0.00040134235,0.00074672216,-0.002732045,0.003903607,0.14620279,0.15704066,0.13795614,0.1353144,-0.010776728,-0.008047402,0.034521207,0.0380563,59,3,32,2,4,312.32803,258.7926,3179.8845,30.782942,358508.25,558.1709,127.29922,126.912,125.75255,125.75255,29.399368,1,-88.74848,0,0,3.439838,3.4398377,0,8,255,0,0,0,3,0,77,0
True,13738328,7999.995,1082.2844,6281.42,0.054133177,1.1738365,5.3749633,-0.004302025,-0.65344274,31.461216,-0.04107304,-0.0008518982,-0.0017718244,2.3361418,-0.020629682,-0.00075271825,0.27870724,0.28056657,0.56597304,0.5718718,0.17466183,0.17136702,0.13920663,0.14090987,94.366165,94.32827,93.97623,93.9963,0,0,0,0,0,0,0,0,0,0,0,0,0.00067999784,0.0017304651,-0.0033834549,0.0053028003,0.17466316,0.17137575,0.13924775,0.14100961,-0.013883024,-0.013487637,0.043615654,0.04494326,59,3,32,2,4,314.96603,258.7837,3177.3513,31.468,358870.9,545.86633,126.86821,126.497375,125.44415,125.44415,29.399883,1,-78.393974,0,0,3.557303,3.5573027,0,8,255,0,0,0,3,0,74,0
True,13738437,7999.995,1082.2844,6425.1157,-0.39910555,-0.24583298,5.5545635,-0.0036201477,-0.72714615,32.12897,0.009198331,-3.6245066E-05,0.007198678,2.3360384,-0.02201602,-0.00045336407,0.24131848,0.24582379,0.5526058,0.5541613,0.19513096,0.19310665,0.15957138,0.15841627,96.525764,96.50314,96.13499,96.1198,0,0,0,0,0,0,0,0,0,0,0,0,-0.00020514827,6.488586E-06,-0.0045269583,0.004145427,0.19513106,0.19310665,0.15963559,0.1584705,-0.021833748,-0.020875692,0.040607154,0.040957242,59,3,32,2,4,317.6787,258.78397,3174.7463,32.13719,359056.47,533.7789,126.480865,126.12606,125.17261,125.17261,29.399952,1,-68.15693,0,0,3.6755328,3.6755323,0,8,255,0,0,0,3,0,68,0
True,13738562,7999.995,1082.2844,6528.1387,0.29244637,-0.57004446,5.8854504,-0.004289627,-0.7655095,32.680683,0.013899593,0.00045597853,0.0024773139,2.3360858,-0.020790327,0.00015062466,0.22162122,0.2207523,0.5367937,0.53882974,0.17931196,0.18636134,0.1554773,0.1549259,97.977295,98.058784,97.71616,97.70931,0,0,0,0,0,0,0,0,0,0,0,0,0.0006061246,0.0002582687,-0.0033266547,0.004789185,0.17931299,0.18636152,0.15551288,0.15499991,-0.026022375,-0.026207149,0.0370484,0.03750664,59,3,32,2,4,319.9851,258.77844,3172.5315,32.689648,358974.72,525.26636,126.19237,125.84987,124.97273,124.97273,29.399952,1,-59.452286,0,0,3.774159,3.7741582,0,8,255,0,0,0,3,0,62,0
True,13738656,7999.995,1082.2844,6624.215,-0.13445497,-0.27957052,5.446345,0.0002975464,-0.75020087,33.23533,0.004078621,-0.0003846242,-0.0069575803,2.3360865,-0.0197743,-0.00017327347,0.22824204,0.22166045,0.5191646,0.5177505,0.15999019,0.16012676,0.14228046,0.14249778,99.40102,99.40408,99.20666,99.21102,0,0,0,0,0,0,0,0,0,0,0,0,0.0009851464,0.0008627676,-0.0028019703,0.004059626,0.15999322,0.16012909,0.14230804,0.1425556,-0.024614453,-0.02601403,0.033080712,0.032762438,59,3,32,2,4,322.37982,258.76868,3170.2314,33.243793,358706.06,517.2098,125.92542,125.59507,124.79131,124.79131,29.399952,1,-50.414402,0,0,3.8748534,3.8748527,0,8,255,0,0,0,3,0,56,0
True,13738781,7999.995,1082.2844,6746.7573,-0.27131844,0.797311,5.2124887,-0.00034713745,-0.6618152,33.887184,-0.0031802836,-9.576618E-05,0.005441808,2.3360229,-0.020032682,-0.00039792617,0.2479972,0.25555295,0.51064104,0.5090151,0.15639354,0.14990826,0.13141732,0.13171257,101.30806,101.2453,101.00792,101.00982,0,0,0,0,0,0,0,0,0,0,0,0,-0.00070056156,-0.0003579425,-0.0032800273,0.0020562035,0.15639511,0.14990869,0.13145824,0.13172862,-0.020413518,-0.018806785,0.031162351,0.030796409,59,3,32,2,4,325.349,258.7639,3167.3794,33.893646,358156.62,507.18378,125.63453,125.3186,124.599236,124.599236,29.399952,1,-39.192905,0,0,3.9974616,3.9974608,0,8,255,0,0,0,3,0,49,0
True,13738906,7999.995,1082.2844,6889.0117,-0.058180332,-0.90283644,5.3472414,-0.007986069,-0.65915996,34.505398,0.026220402,-0.00018370233,0.003778018,2.3360975,-0.017592503,0.00069675496,0.22312793,0.22875582,0.4964819,0.50186276,0.17420676,0.17882851,0.16212727,0.15979157,103.32724,103.3779,103.21213,103.184135,0,0,0,0,0,0,0,0,0,0,0,0,-0.0147851845,-0.014972811,-0.0017670124,0.003829595,0.17483306,0.17945422,0.1621369,0.15983745,-0.02570197,-0.024505198,0.027975619,0.029186666,59,3,32,2,4,328.35208,258.76422,3164.4956,34.511692,357318.47,495.4683,125.38172,125.07834,124.43855,124.43855,29.399952,1,-27.86246,0,0,4.11917,4.1191697,0,8,255,0,0,0,3,-3,42,0
True,13739015,7999.995,1082.2844,6990.125,-2.0292213,0.20303349,5.309806,-0.07777023,-0.6933856,35.11393,-0.026144719,-0.10469437,-0.050473526,2.33097,-0.01824013,-0.002318957,0.24624647,0.24957287,0.4822974,0.49947762,0.17633495,0.12123406,0.1474587,0.11598584,105.011604,104.75883,104.67264,104.721596,0,0,0,0,0,0,0,0,0,0,0,0,-0.14436024,-0.13241898,-0.010156959,-0.004952459,0.22789009,0.17953406,0.14780809,0.11609153,-0.020785809,-0.02007845,0.02478318,0.028649852,59,3,32,2,4,331.3974,258.75504,3161.5876,35.12086,356623.84,487.28806,125.181625,124.896225,124.30595,124.30595,29.399952,1,-16.400703,0,0,4.2400775,4.240077,0,8,255,0,0,0,3,-41,35,0
True,13739125,7999.995,1082.2844,7084.3813,-2.2302945,0.38276398,4.839662,0.14615822,-0.69918394,35.593086,-0.0048160357,-0.110224254,-0.011304345,2.318124,-0.020279111,-0.0055906693,0.23398864,0.25766146,0.49981675,0.5255372,0.17229125,0.13525334,0.14339596,0.11509646,106.35031,106.353516,105.99993,106.113,0,0,0,0,0,0,0,0,0,0,0,0,-0.00025931082,-1.975216E-05,-0.056848474,-0.04939287,0.17229144,0.13525334,0.15425353,0.12524717,-0.023392439,-0.01835841,0.028726175,0.03451495,59,3,32,2,4,333.9566,258.75415,3159.1846,35.600254,355805.25,479.73474,125.039795,124.766266,124.219925,124.219925,29.399952,1,-6.8400736,0,0,4.3393393,4.3393393,0,8,255,0,0,0,3,0,30,0
True,13739250,7999.995,1082.2844,7176.5977,-2.4928312,0.20999146,4.5150023,0.20228767,-0.70002896,36.061813,-0.0061656516,-0.044665262,0.0020571416,2.3109,-0.020358263,-0.0058739176,0.23404792,0.26960185,0.488674,0.51538855,0.1632018,0.13074379,0.14503628,0.1239225,107.77157,107.545715,107.55466,107.474594,0,0,0,0,0,0,0,0,0,0,0,0,-0.028238108,-0.026760641,-0.05192446,-0.044760715,0.16562673,0.13345437,0.15405087,0.13175853,-0.023379833,-0.015819281,0.02621834,0.032230854,59,3,32,2,4,336.55045,258.75696,3156.776,36.069168,354825.78,472.24927,124.905975,124.641464,124.15199,124.15199,29.399952,1,2.809379,0,0,0.040269867,4.4381046,0,8,255,0,0,0,3,0,26,0
True,13739328,7999.995,1082.2844,7249.8306,-1.5434773,0.23958953,5.071075,0.13827133,-0.70491856,36.45671,-0.008766709,-0.01452229,0.003153904,2.3085842,-0.021125298,-0.005496209,0.24150781,0.2692274,0.49511588,0.52857745,0.14998871,0.13528202,0.13436271,0.12049078,108.839424,108.709785,108.652145,108.53664,0,0,0,0,0,0,0,0,0,0,0,0,-0.022919215,-0.022098118,-0.031860404,-0.025313893,0.1517297,0.13707499,0.13808846,0.123121165,-0.021793485,-0.015898913,0.027668178,0.03519921,59,3,32,2,4,338.80972,258.761,3154.699,36.463783,353972.8,466.35355,124.80614,124.549835,124.10278,124.10278,29.399952,1,11.179334,0,0,0.1248701,4.5227046,0,8,255,0,0,0,3,0,22,0
True,13739453,7999.995,1082.2844,7066.1865,-1.1835448,0.29830134,1.614462,0.045171738,-0.6819297,36.82535,0.024927352,0.0011572209,0.011223425,2.307992,-0.021596069,-0.004909646,0.24436457,0.2708014,0.49172583,0.5153761,0.0016045752,0.001482638,0.0014806951,0.0014902975,107.50775,107.500465,107.50622,107.50074,0,0,0,0,0,0,0,0,0,0,0,0,-0.009649399,-0.009137158,-0.011601047,-0.0062020356,0.0097819,0.0092566665,0.01169516,0.006378576,-0.021185994,-0.015564203,0.026905194,0.032228038,59,3,32,2,4,342.32684,258.77264,3151.4902,36.831688,-41669.008,-56.249886,124.65994,124.41682,124.029076,124.029076,8.305259,1,24.153723,0,0,0.2545005,4.652335,0,8,255,0,0,0,4,0,17,0
True,13739578,7999.995,1082.2844,5257.304,0.24852669,1.3961732,3.9445543,-0.0014705658,-0.5128093,37.14581,-0.044689126,0.0019443664,0.011152856,2.3082078,-0.02144036,-0.0029875413,0.32358867,0.34146085,0.5010009,0.5176988,0.08924905,0.09554644,0.09345468,0.09238807,110.06199,110.18813,110.13399,110.110054,0,0,0,0,0,0,0,0,0,0,0,0,-0.0020653508,-0.0009412201,-0.0025604868,0.0015535966,0.089272946,0.09555107,0.09348975,0.09240113,-0.0043389797,-0.00053845346,0.028992683,0.032750815,59,3,32,2,4,345.68616,258.7945,3148.4368,37.149345,290714.47,528.2321,124.53714,124.305466,123.96177,123.96177,19.357296,1,36.5264,0,0,0.3774373,4.7752714,0,8,255,0,0,0,4,0,13,0
True,13739671,7999.995,1082.2844,5324.6997,-0.08208835,1.2143061,3.6279187,0.0005245209,-0.5333618,37.505783,-0.021510905,0.0014158968,-0.028455464,2.308384,-0.025140287,-0.0042162524,0.33134076,0.35767555,0.52834064,0.5496499,0.11048487,0.1410789,0.114096925,0.10446563,111.38919,111.862625,111.51386,111.37537,0,0,0,0,0,0,0,0,0,0,0,0,0.0018464029,0.0035071324,0.00040771478,0.005334761,0.1105003,0.14112249,0.11409765,0.104601756,-0.002690494,0.0029096007,0.03514591,0.039941877,59,3,32,2,4,348.36298,258.82892,3146.0054,37.509575,324638.5,582.2737,124.47206,124.240425,123.94011,123.94011,27.120682,1,46.382786,0,0,0.47431424,4.8721485,0,8,255,0,0,0,4,0,9,0
True,13739781,7999.995,1082.2844,5379.5894,-0.002415657,0.74810296,3.667015,0.00062561035,-0.57920206,37.89331,-0.04322079,-0.0011039549,0.07103913,2.3083985,-0.029219761,-0.004353436,0.4096787,0.4285849,0.63633466,0.6681685,0.15871798,0.1069412,0.0963512,0.10129089,113.27351,112.62325,112.3613,112.482025,0,0,0,0,0,0,0,0,0,0,0.120000005,0.120000005,-0.008755391,-0.004966794,-0.009829973,-0.0029889154,0.15895928,0.107056476,0.09685134,0.101334974,0.01396808,0.017988488,0.059451595,0.06661628,59,3,32,2,4,351.08237,258.87537,3143.5342,37.897736,334532.97,593.73267,124.416504,124.20339,123.93287,123.93287,28.887276,1,56.398197,0,0,0.5717707,4.9696054,0,8,255,0,0,0,4,0,6,0
True,13739906,7999.995,1082.2844,5440.56,0.127074,1.736608,3.74863,-0.014110565,-0.47024047,38.3571,-0.026553262,0.0004811082,0.013456147,2.3084931,-0.033296134,-0.00052544463,0.36683837,0.36083475,0.5469654,0.5472446,0.11019684,0.115476444,0.107157975,0.105752185,113.962616,114.03234,113.93511,113.91855,0,0,0,0,0,0,0,0,0,0,0,0,0.00019041076,0.0015821317,-0.0012006786,0.0033548188,0.110197,0.115487285,0.1071647,0.10580538,0.0048580766,0.0035814047,0.039337695,0.039400533,59,3,32,2,4,354.37357,258.9553,3140.5452,38.35998,339115.25,595.3692,124.35869,124.17147,123.93651,123.93651,29.313904,1,68.54982,0,0,0.68836945,5.086204,0,8,255,0,0,0,4,0,2,0
True,13740015,7999.995,1082.2844,5511.5864,-0.30809438,1.060866,3.6583977,-0.0031394958,-0.44057357,38.815697,-0.016134877,-0.0004830141,-0.016850317,2.308482,-0.036250975,-0.000983199,0.3625505,0.36247888,0.53373355,0.53556037,0.12148189,0.12700412,0.11565383,0.112662375,115.46122,115.551926,115.40926,115.37728,0,0,0,0,0,0,0,0,0,0,0,0,0.0015761381,0.003195957,-3.215583E-05,0.0040244916,0.12149211,0.12704432,0.11565383,0.112734236,0.0039462596,0.0039310306,0.036359668,0.03677082,59,3,32,2,4,357.75363,259.0618,3137.4746,38.818195,342872.78,594.18646,124.33733,124.15387,123.95981,123.95981,29.385925,1,80.999054,0,0,0.80672115,5.2045555,0,8,255,0,0,0,4,0,253,0
True,13740109,7999.995,1082.2844,5563.1006,0.4249606,1.0397507,4.3993454,0.0071849823,-0.44740415,39.184742,-0.033256095,0.0016139382,-0.009609026,2.3085346,-0.03866613,-0.0025601804,0.34677243,0.3440006,0.5149596,0.5204774,0.12008753,0.11938581,0.11203839,0.11270459,116.5795,116.565765,116.48275,116.487915,0,0,0,0,0,0,0,0,0,0,0,0,-0.0011206608,-2.4760997E-05,-0.0016007121,0.0021367483,0.12009276,0.11938581,0.11204982,0.11272484,0.00059105456,1.6242266E-06,0.032134295,0.033376172,59,3,32,2,4,360.51175,259.159,3134.9675,39.187294,345435.9,593.0428,124.33221,124.1538,123.98839,123.98839,29.396736,1,91.161095,0,0,0.90230346,5.300138,0,8,255,0,0,0,4,0,249,0
True,13740234,7999.995,1082.2844,5524.024,-4.1789737,1.0465477,-2.0044959,-0.43519783,-0.558193,38.9709,-0.05943275,-0.03800232,0.075994976,2.306852,-0.043605674,-0.00036372987,0.41567716,0.40458632,0.5716833,0.5619556,0.08990224,0.1100539,0.09284819,0.10575765,115.4851,115.92907,115.54799,115.87962,0,0,0,0,0,0,0,0,0,0,0,0,0.06648809,0.07258835,0.049617596,0.056950856,0.111817166,0.13183676,0.105274364,0.12011695,0.0152436495,0.012885183,0.044900835,0.042711467,59,3,32,2,4,363.85175,259.28052,3131.9827,38.977325,343591.88,593.939,124.350914,124.17408,124.040375,124.040375,29.399437,1,103.37763,0,0,1.0169204,5.414755,0,8,255,0,0,0,4,0,246,0
True,13740328,7999.995,1082.2844,5554.531,-0.015903711,3.5545204,1.4469159,-0.16534233,-0.4283992,39.207283,-0.09193018,-0.037425943,0.008810915,2.3029337,-0.051379588,0.0039868937,0.4954404,0.47034597,0.64679486,0.61536914,0.087311134,0.09395152,0.08583455,0.08921888,116.24699,116.495605,116.22977,116.42557,0,0,0,0,0,0,0,0,0,0,0,0,0.028128868,0.031277984,0.010863977,0.016679656,0.09173041,0.09902122,0.08651934,0.09076464,0.032205313,0.026868984,0.06180583,0.054732993,59,3,32,2,4,366.70682,259.41397,3129.4426,39.20997,344985.53,593.2688,124.39203,124.20484,124.0995,124.0995,29.399864,1,113.80287,0,0,1.11469,5.5125246,0,8,255,0,0,0,4,0,243,0
True,13740468,7999.995,1082.2844,5633.674,-0.24851966,2.2442174,2.8698149,0.029598236,-0.4057727,39.70374,-0.0557892,-0.017447917,-0.008238999,2.2990968,-0.060110964,0.0041083107,0.4745754,0.4577858,0.6435089,0.6235427,0.11287627,0.11481809,0.10784885,0.10232406,118.008965,118.12211,117.95015,117.94782,0,0,0,0,0,0,0,0,0,0,0,0,-0.0018848754,0.00097298744,-0.011501885,-0.004835223,0.11289201,0.11482221,0.10846045,0.102438234,0.027768373,0.024198055,0.06106627,0.056572586,59,3,32,2,4,370.72235,259.66196,3125.8557,39.70582,348787.56,591.3763,124.433624,124.24853,124.17827,124.17827,29.399952,1,128.53271,0,0,1.2512703,5.6491046,0,8,255,0,0,0,4,0,239,0
True,13740578,7999.995,1082.2844,5537.1274,-4.544573,2.5236406,-12.1701975,-0.29626274,-0.41507316,38.767967,-0.08194567,-0.016648049,-0.00813042,2.2975447,-0.0669969,0.0016393485,0.4449891,0.4280237,0.61359197,0.60497123,0.15572453,0.16288857,0.15582548,0.16264695,115.88323,116.06779,115.910774,116.07793,0,0,0,0,0,0,0,0,0,0,0,0,0.050098166,0.05258,0.040892083,0.047684856,0.1635847,0.17116468,0.16110165,0.16949299,0.021476835,0.017869145,0.054333016,0.05239278,59,3,32,2,4,374.20395,259.90823,3122.766,38.771324,344936.22,593.29395,124.48779,124.302986,124.25368,124.25368,29.399952,1,141.24164,0,0,1.3691574,5.7669916,0,8,255,0,0,0,4,0,235,0
True,13740687,7999.995,1082.2844,5385.0415,-2.0323567,2.1996481,-10.928087,-0.28552246,-0.57805026,37.833595,-0.08647762,-0.03296312,-0.014298551,2.295021,-0.07647054,0.0021019815,0.4985968,0.463595,0.65984607,0.640631,0.119254455,0.15931906,0.11186666,0.11207205,112.6312,113.3172,112.55384,112.694664,0,0,0,0,0,0,0,0,0,0,0,0,0.05194789,0.06030224,0.03523363,0.041941594,0.1300777,0.1703494,0.11728409,0.11966303,0.03287652,0.025433391,0.064743206,0.06041856,59,3,32,2,4,377.02502,260.12732,3120.3079,37.839085,336961.22,596.9351,124.55391,124.36123,124.332275,124.332275,29.399952,1,151.4635,0,0,1.4673264,5.8651605,0,8,255,0,0,0,4,0,233,0
True,13740812,7999.995,1082.2844,5291.0596,1.4409037,0.053744778,-8.11021,-0.14319038,-0.536656,37.042313,0.059394777,0.048172574,-0.009200402,2.2942677,-0.07580274,0.0003324225,0.4894591,0.43562773,0.68892354,0.6592978,0.13872595,0.2317316,0.13452236,0.16550934,110.50094,111.57421,110.505554,110.741714,0,0,0,0,0,0,0,0,0,0,0,0,0.26030624,0.3046363,0.031166302,0.041374285,0.2949648,0.38275686,0.1380855,0.1706024,0.030933395,0.019486144,0.07128753,0.06461981,59,3,32,2,4,379.808,260.3551,3117.8816,37.046474,332312.1,599.1661,124.645996,124.436195,124.415955,124.415955,29.399952,1,161.5513,0,0,1.5662946,5.9641285,0,8,255,0,0,0,4,127,231,0
True,13740921,7999.995,1082.2844,5151.237,5.4223166,-0.3767081,-10.023747,-0.17866898,-0.43744814,35.960205,0.007079563,0.28051955,0.050992265,2.311974,-0.07088794,0.0011946261,0.5158241,0.4509422,0.6909999,0.6246784,0.11838564,0.30539665,0.1100863,0.22213681,107.48009,108.72026,107.56779,107.83897,0,0,0,0,0,0,0,0,0,0,0,0,0.44845495,0.58788455,0.08548655,0.10660816,0.46381783,0.66247666,0.13938057,0.24639413,0.036539912,0.022742763,0.07175484,0.05682817,59,3,32,2,4,382.78357,260.58936,3115.2422,35.963306,325257.6,602.41364,124.8911,124.61876,124.51285,124.51285,29.399952,1,172.41483,0,0,1.6758046,6.0736384,0,8,255,0,0,0,4,127,228,0
True,13741031,7999.995,1082.2844,5142.5596,11.573388,1.2211915,-2.4087672,-0.45858574,-0.31653786,35.635353,-0.009766381,0.4922858,0.018307984,2.3565884,-0.07218029,0.0030787296,0.5747157,0.40529498,0.7023711,0.60286605,0.13694598,0.548975,0.10223884,0.2644232,106.97752,109.881,107.010956,107.010605,0,0,0,0,0,0,0,0,0,0,0,0,0.6728053,0.95862013,0.18676117,0.22774175,0.6866012,1.1046838,0.21291435,0.3489784,0.04906322,0.013035879,0.0743141,0.051918983,59,3,32,2,4,385.67813,260.82928,3112.5283,35.639706,324561.56,603.0718,125.3232,124.908295,124.64917,124.64917,29.399952,1,183.37143,0,0,1.787435,6.1852694,0,8,255,0,0,0,4,127,224,0
True,13741140,7999.995,1082.2844,5136.9717,11.113666,-0.82091004,1.5554147,-1.2862587,-0.34019172,35.77198,0.0495326,0.38997415,-0.006191694,2.4208782,-0.06923314,-0.00351598,0.51976466,0.308425,0.7052298,0.53072715,0.11705917,0.28869727,0.11431315,0.3191057,107.19887,107.845184,107.24641,108.1214,0,0,0,0,0,0,0,0,0,0,0,0,0.1404121,0.16865228,0.30587813,0.37774467,0.18280703,0.33434966,0.32654086,0.49448913,0.03737788,-0.0075635314,0.074957505,0.035683036,59,3,32,2,4,388.92303,261.11636,3109.2224,35.796715,324351.8,603.0998,125.68338,125.21037,124.882126,124.882126,29.399952,1,196.02342,0,0,1.9173633,6.3151975,0,8,255,0,0,0,4,0,212,0
True,13741234,7999.995,1082.2844,5219.6704,10.084107,-1.9568775,3.2123513,-1.3829441,-0.38557637,36.04079,0.037838284,0.23913354,-0.03447952,2.446374,-0.06533661,-0.0068082456,0.48244607,0.22626708,0.65813774,0.470655,0.15083908,0.4227615,0.15408294,0.36662892,108.23071,110.7254,108.36799,110.01685,0,0,0,0,0,0,0,0,0,0,0,0,0.19934249,0.2387777,0.29573658,0.3602107,0.2499797,0.4855328,0.33346915,0.51397324,0.029442072,-0.025034428,0.06435871,0.022162884,59,3,32,2,4,390.95044,261.2885,3107.023,36.069374,328558.53,601.17914,125.77446,125.30342,125.04791,125.04791,29.399952,1,204.1715,0,0,2.0007505,6.398585,0,8,255,0,0,0,4,1,202,0
True,13741359,7999.995,1082.2844,5243.5874,9.942038,-0.7824868,3.613394,-1.0087299,-0.5038047,36.476624,-0.03482984,0.23925129,-0.036139674,2.4723802,-0.06480411,-0.013702156,0.41193095,0.16878907,0.6224542,0.41177708,0.11797463,0.36710456,0.112805076,0.25794998,109.00434,111.24747,109.12186,109.97122,0,0,0,0,0,0,0,0,0,0,0,0,0.40262505,0.5179525,0.22059527,0.26955527,0.41955328,0.63485473,0.24776453,0.3730928,0.0144470185,-0.037257135,0.056327596,0.00891152,59,3,32,2,4,393.82574,261.51785,3103.7163,36.49405,329737.06,600.6024,126.004845,125.48761,125.2677,125.2677,29.399952,1,216.06651,0,0,2.1216636,6.519498,0,8,255,0,0,0,4,127,186,0
True,13741468,7999.995,1082.2844,5300.8945,11.942486,0.8232786,2.8369145,-0.7081604,-0.5959128,36.823654,-0.06292525,0.3808188,-0.011290904,2.508734,-0.07001118,-0.019094747,0.48102638,0.20549446,0.65776086,0.39714196,0.13125657,0.4142705,0.097287975,0.27776724,110.382164,112.37742,110.31732,111.06954,0,0,0,0,0,0,0,0,0,0,0,0,0.5872675,0.7796671,0.1906846,0.24465287,0.60175693,0.88289344,0.21406907,0.37014815,0.029140174,-0.029451728,0.064273894,0.0056176633,59,3,32,2,4,396.56088,261.7482,3100.2974,36.835285,332607.38,599.2603,126.41519,125.76284,125.46925,125.46925,29.399952,1,227.88272,0,0,2.241225,6.639059,0,8,255,0,0,0,4,127,172,0
True,13741578,7999.995,1082.2844,5351.158,15.0372925,1.395349,3.2108698,-0.8659344,-0.6144819,37.05253,-0.016671885,0.4921059,0.09216153,2.5524476,-0.07405201,-0.017200287,0.455447,0.24537013,0.7169045,0.47472116,0.17868853,0.5298237,0.09505578,0.2902048,111.62777,113.8927,111.18996,111.64749,0,0,0,0,0,0,0,0,0,0,0,0,0.795052,1.0643821,0.22393008,0.2894903,0.81488484,1.1889585,0.24326998,0.40990666,0.023700714,-0.020972162,0.07758507,0.02307804,59,3,32,2,4,398.68607,261.95078,3097.3943,37.06774,335081.94,598.12744,126.83679,126.08336,125.65335,125.65335,29.399952,1,240.25772,0,0,2.3387291,6.736563,0,8,255,0,0,0,4,127,164,0
True,13741687,7999.995,1082.2844,5461.3794,13.835119,-0.29391468,2.8106928,-1.4083824,-0.57838833,37.226448,0.029312853,0.54935265,0.101243176,2.6034193,-0.07175605,-0.010650396,0.42417127,0.2228262,0.6929323,0.4568925,0.2732021,0.71427774,0.14991102,0.5158582,113.40935,116.334045,112.73079,115.118866,0,0,0,0,0,0,0,0,0,0,0,0,0.97507167,1.2882577,0.32828915,0.43225852,1.0126225,1.4730244,0.3608976,0.67302084,0.017049924,-0.025766134,0.07218976,0.019065425,59,3,32,2,4,400.72104,262.1611,3094.379,37.257572,340488.53,595.5339,127.35983,126.73762,125.86188,125.86188,29.399952,1,250.23378,0,0,2.4367733,6.834608,0,8,255,0,0,0,4,127,157,0
True,13741781,7999.995,1082.2844,5536.932,14.515972,-1.2020879,3.8152313,-2.196147,-0.548682,37.393467,0.028339062,0.5916803,0.1070727,2.663519,-0.067472525,-0.0038679175,0.39598486,0.17624547,0.6448201,0.42232597,0.29296604,0.88917017,0.19601043,0.6016701,114.24352,118.70852,114.15055,116.82078,0,0,0,0,0,0,0,0,0,0,0,0,1.0448312,1.4657774,0.46389458,0.59902894,1.0851274,1.7143883,0.50360525,0.8490245,0.01105608,-0.035671532,0.061361372,0.011285707,59,3,32,2,4,402.79904,262.37622,3091.0376,37.46192,344184.88,593.6897,128.21901,128.00565,126.15396,126.15396,29.399952,1,261.02917,0,0,2.5422413,6.940076,0,8,255,0,0,0,4,127,151,0
True,13741906,7999.995,1082.2844,5613.993,14.01898,-1.4972634,3.0217514,-3.0592718,-0.52471244,37.516987,0.06396218,0.5741224,0.08778463,2.727711,-0.06342902,0.002563388,0.36940166,0.15908837,0.64038736,0.39890364,0.38608024,1.028325,0.24855441,0.7051982,115.68278,120.53568,115.47884,118.68278,0,0,0,0,0,0,0,0,0,0,0,0,1.2112106,1.6601156,0.5962147,0.77193356,1.2712549,1.9528021,0.6459499,1.0455554,0.005403161,-0.039319992,0.060363725,0.0060141534,59,3,32,2,4,404.79865,262.58392,3087.507,37.64517,347831.56,591.85516,129.75107,129.79886,126.55075,126.55075,29.399952,1,272.14905,0,0,2.6504323,7.048267,0,8,255,0,0,0,4,127,147,0
True,13742015,7999.995,1082.2844,5684.3115,14.254144,-2.031464,3.687574,-3.9607487,-0.52706635,37.584095,0.053240523,0.5900403,0.08083625,2.791495,-0.059211623,0.007567923,0.3651723,0.15380959,0.5859376,0.38433206,0.51629823,1.1682106,0.29694188,0.76299495,117.55257,122.196465,116.63367,119.88916,0,0,0,0,0,0,0,0,0,0,0,0,1.4135755,1.8570185,0.72965705,0.9449214,1.5049118,2.1939082,0.78776515,1.2145113,0.0045037866,-0.040442526,0.04810898,0.0027346015,59,3,32,2,4,406.63464,262.77164,3083.9324,37.79589,351221.5,590.2086,131.96811,132.0775,127.01132,127.01132,29.399952,1,283.13165,0,0,2.7570844,7.1549187,0,8,255,0,0,0,4,127,147,0
True,13742109,7999.995,1082.2844,5807.792,11.557173,-3.1919205,2.3506753,-4.998603,-0.49718642,37.610703,0.10016628,0.55807346,0.03458812,2.8516831,-0.04995489,0.010066368,0.32836825,0.15964434,0.6041163,0.40143165,0.6435649,1.3747444,0.4971545,0.9584686,119.36639,124.71692,119.75784,122.77673,0,0,0,0,0,0,0,0,0,0,0,0,1.5634907,2.0683455,0.94898915,1.1531866,1.6907629,2.483541,1.0713277,1.4995004,-0.0033226013,-0.039201766,0.052200377,0.0065831244,59,3,32,2,4,408.34424,262.93115,3080.2798,37.94467,356862.34,586.8263,134.92392,134.92996,127.563965,127.563965,29.399952,1,298.26584,0,0,2.8636665,7.261501,0,7,255,0,0,0,4,127,153,0
True,13742218,7999.995,1082.2844,5764.2383,13.953322,-1.6232891,3.7462134,-5.896682,-0.45646894,37.620266,-0.0116654,0.6289139,0.10745768,2.9130805,-0.046151612,0.014148191,0.31851226,0.1706501,0.56283313,0.41520494,0.4969761,1.2579672,0.40715367,0.9055556,118.075874,123.82911,118.95157,122.112114,0,0,0,0,0,0,0,0,0,0,0,0,1.4378166,1.9933535,1.0259659,1.3213993,1.5212829,2.357104,1.1038026,1.6019136,-0.0054184794,-0.03686139,0.042908967,0.009683013,59,3,32,2,4,409.8776,263.05774,3076.689,38.082325,355155.38,588.15594,138.63963,138.23898,128.5048,128.5048,29.399952,1,308.68533,0,0,2.966426,7.3642607,0,7,255,0,0,0,4,26,167,0
True,13742343,7999.995,1082.2844,5711.749,11.882796,-1.6091611,4.8774185,-7.028883,-0.5669192,37.659496,0.046749007,0.5105695,-0.025594043,2.9864614,-0.04936462,0.021923734,0.30491194,0.13444026,0.6129646,0.39830968,0.29879373,0.8270282,0.40152138,0.70970863,117.48862,122.6013,118.51543,119.965454,0,0,0,0,0,0,0,0,0,0,0,0,-0.27194348,-0.11500994,1.2202704,1.4454855,0.40401852,0.8349868,1.284632,1.6103151,-0.008310586,-0.044561416,0.054191813,0.005880475,59,3,32,2,4,411.4952,263.2035,3072.3638,38.31402,352532.22,589.5084,139.59525,139.09587,130.2737,130.2737,29.399952,1,321.12228,0,0,3.0874321,7.485266,0,7,255,0,0,0,4,-127,189,0
True,13742453,7999.995,1082.2844,5569.1543,13.193617,-4.289901,3.0212831,-6.273294,-0.82122964,37.595253,0.08384889,0.2206034,-0.09735968,3.0207007,-0.040004954,0.016849447,0.27858433,0.11553174,0.57256234,0.42384276,0.2672984,0.33341232,0.43912733,0.52663267,115.86051,115.79968,117.40442,117.55858,0,0,0,0,0,0,0,0,0,0,0,0,-0.3254002,-0.17247023,1.1550381,1.2030623,0.42111012,0.37537947,1.2356966,1.3132787,-0.013909161,-0.048582315,0.045098677,0.011627078,59,3,32,2,4,412.59494,263.2758,3068.7664,38.123898,346002.7,592.76556,139.36113,138.7889,131.58704,131.58704,29.399952,1,331.34277,0,0,3.1864505,7.584285,0,7,255,0,0,0,4,-127,205,0
True,13742546,7999.995,1082.2844,5385.9,41.92356,-2.3212237,-4.980592,-3.2248218,-0.8218608,37.151287,0.040284313,0.03999984,-0.08990699,3.0328646,-0.03410099,0.009118298,0.29730237,0.20802805,0.54601675,0.47079754,0.34453464,0.2319372,0.2442394,0.2836604,113.638336,112.18859,112.57325,112.86867,0,0,0,0,0,0,0,0,0,0,0,0,-0.8024367,-0.599145,0.55941516,0.5872326,0.87327474,0.6424715,0.61040825,0.6521544,-0.009928763,-0.028912961,0.03912419,0.022194967,59,3,32,2,4,413.53494,263.32434,3065.0981,37.300037,337307.3,597.0201,139.12619,138.43433,132.3107,132.3107,29.399952,1,341.6736,0,0,3.28648,7.6843143,0,7,255,0,0,0,4,-127,218,0
True,13742656,7999.995,1082.2844,5337.171,8.888588,0.7703126,0.6202313,-2.1800804,-0.60404104,37.281075,0.006214415,-0.23405178,-0.036900613,3.0213509,-0.031178411,0.0024718745,0.32235873,0.28661013,0.53419536,0.52186024,0.31352305,0.16100445,0.17601846,0.13480118,112.49335,111.712845,111.275826,111.70392,0,0,0,0,0,0,0,0,0,0,0,0,-0.9801293,-0.7351799,0.32491806,0.3218331,1.0290531,0.7526034,0.36953247,0.34892392,-0.004600525,-0.0122024715,0.036463603,0.033687398,59,3,32,2,4,414.32874,263.3808,3060.773,37.349648,334425.44,598.4006,139.12294,138.3436,132.4952,132.4952,29.399952,1,353.97812,0,0,3.4044387,7.802273,0,7,255,0,0,0,4,-127,224,0
True,13742765,7999.995,1082.2844,5379.3696,-0.9385799,0.79055464,2.1922147,-1.1760769,-0.574115,37.473557,-0.02850559,-0.4669363,-0.05637572,2.987008,-0.032616362,-0.00054509426,0.31091726,0.32757178,0.52416646,0.5337995,0.45185867,0.18878292,0.20094351,0.10481494,113.83176,112.771805,111.71872,112.399414,0,0,0,0,0,0,0,0,0,0,0,0,-1.2664522,-0.93232304,0.097833596,0.09515695,1.3446478,0.95124406,0.2234943,0.14156629,-0.0070335567,-0.003491968,0.03420645,0.036374524,59,3,32,2,4,414.98184,263.4392,3057.199,37.496403,336478.94,597.451,139.38876,138.4145,132.544,132.544,29.399952,1,363.87286,0,0,3.5015404,7.899374,0,7,255,0,0,0,4,-127,234,0
True,13742890,7999.995,1082.2844,5535.4546,-7.6733336,-1.4067708,1.3672682,0.51059437,-0.6800188,37.760674,0.048076745,-0.6561805,-0.061169386,2.9177194,-0.031844642,-0.0049922117,0.20278402,0.2676056,0.48645663,0.5539166,0.83057314,0.33669752,0.43592265,0.15719946,118.232704,115.48626,115.53479,114.54584,0,0,0,0,0,0,0,0,0,0,0,0,-1.656544,-1.2226658,-0.27312303,-0.22494462,1.8531027,1.2681786,0.5144169,0.27442986,-0.030028105,-0.016243786,0.025719285,0.040902168,59,3,32,2,4,415.85226,263.51212,3052.8484,37.770245,343956.84,593.7782,140.51715,138.83278,132.57227,132.57227,29.399952,1,375.93802,0,0,3.6194627,8.017297,0,7,255,0,0,0,4,-127,252,0
True,13743000,7999.995,1082.2844,5610.5747,-11.842275,-1.2910458,1.5987496,2.348999,-0.76247406,37.876392,-0.008245816,-0.75048494,-0.13189743,2.8334265,-0.030098457,-0.013617996,0.15767457,0.2662766,0.42318934,0.5394993,1.0917825,0.3409024,0.56685674,0.18396258,120.732704,115.81704,117.668816,115.875145,0,0,0,0,0,0,0,0,0,0,0,0,-2.0426252,-1.3388513,-0.6393719,-0.50150204,2.3160973,1.3815706,0.8544723,0.5341784,-0.039620638,-0.016526401,0.0114800185,0.037657335,59,3,32,2,4,416.86722,263.5601,3048.4868,37.95682,347740.78,591.9006,142.88431,140.91728,132.73917,132.73917,29.399952,1,388.0711,0,0,3.7376952,8.1355295,0,7,255,0,0,0,4,-127,14,25
True,13743109,7999.995,1082.2844,5689.6343,-14.050648,-1.494656,2.2228668,3.8724985,-0.71274894,37.8271,0.07507522,-0.6807863,-0.09616626,2.749966,-0.029290788,-0.026564233,0.12122621,0.30329368,0.41621754,0.6032532,1.2908924,0.56006604,0.7458921,0.25290936,122.099075,117.709175,120.07297,116.83659,0,0,0,0,0,0,0,0,0,0,0,0,-2.3829548,-1.7373959,-0.9554612,-0.7127024,2.7101433,1.8254365,1.2121308,0.7562459,-0.047371387,-0.008654714,0.009910911,0.05200611,59,3,32,2,4,418.03015,263.5991,3044.2764,38.031483,351450.38,590.11096,146.04672,144.45905,133.02925,133.02925,29.399952,1,399.83276,0,0,3.8526804,8.250515,0,7,255,0,0,0,4,-127,29,0
True,13743218,7999.995,1082.2844,5855.6724,-12.573253,-3.1401014,2.0511484,5.1431255,-0.6604592,37.76893,0.107288614,-0.6638163,0.014002573,2.6867807,-0.021502359,-0.027898133,0.061029058,0.2438417,0.39051214,0.60434806,1.6370064,0.81605244,1.0087887,0.48719314,125.64567,120.74793,123.75758,120.47852,0,0,0,0,0,0,0,0,0,0,0,0,-2.6639638,-1.9882971,-1.2131363,-0.97936267,3.1267383,2.1492481,1.5777688,1.0938503,-0.06017232,-0.021297187,0.0041255206,0.05225253,59,3,32,2,4,419.1158,263.61423,3040.8403,38.123226,357207.3,582.68134,149.50317,148.13887,133.59767,133.59767,29.399952,1,410.71008,0,0,3.9473293,8.345163,0,7,255,0,0,0,4,-127,33,0
True,13743328,7999.995,1082.2844,5823.178,-14.035793,-2.398029,3.3114696,6.296583,-0.47618553,37.710373,0.10226135,-0.6605958,-0.034169026,2.6201162,-0.012499287,-0.028565625,0.02737299,0.25117713,0.28136292,0.54421073,1.7078396,0.7080145,1.0009555,0.46058798,125.44677,118.96587,123.44714,120.04727,0,0,0,0,0,0,0,0,0,0,0,0,-2.8971071,-1.9794176,-1.4366033,-1.1161027,3.3630264,2.1022317,1.7509257,1.2074049,-0.06732929,-0.019737303,-0.020440161,0.038717717,59,3,32,2,4,420.3959,263.60318,3037.1934,38.2354,356903.47,585.3417,154.07393,153.61096,135.07547,135.07547,29.399952,1,421.25812,0,0,4.048539,8.446374,0,6,255,0,0,0,4,-127,35,0
True,13743437,7999.995,1082.2844,5855.6455,-14.379617,-1.9010861,3.5526948,7.692045,-0.29856282,37.48354,0.07986653,-0.6744547,0.004441973,2.5386329,-0.0032978216,-0.028548144,0.019721935,0.28835803,0.2460386,0.5167231,1.9433409,0.758549,1.0958652,0.537824,126.664505,118.833145,124.238174,120.891624,0,0,0,0,0,0,0,0,0,0,0,0,-3.193177,-2.0697548,-1.7001524,-1.313872,3.7380414,2.204378,2.0227306,1.419688,-0.068956286,-0.011830777,-0.028390437,0.0325312,59,3,32,2,4,422.1123,263.56537,3032.877,38.265812,354938.6,578.4606,160.15253,161.1784,137.47482,137.47482,29.399952,1,433.98093,0,0,4.170008,8.567842,0,6,255,0,0,0,4,-127,34,0
True,13743546,7999.995,1082.2844,5793.331,-16.91013,-0.27999252,3.3654346,8.753373,-0.13226742,37.167027,0.017196707,-0.69892347,-0.021776887,2.4565485,-0.0016503566,-0.028334511,0.07076901,0.37279302,0.26687577,0.5628615,1.9433296,0.8826149,1.0034001,0.49861103,124.79097,118.80211,122.227585,119.58565,0,0,0,0,0,0,0,0,0,0,0,0,-3.4148574,-2.3763778,-1.8702193,-1.4519308,3.929094,2.5349913,2.1223884,1.53516,-0.058101118,0.0061243325,-0.023700714,0.04291536,59,3,32,2,4,423.96756,263.52426,3028.814,38.184116,356432.75,587.5001,166.63528,170.40372,140.45045,140.45045,29.399952,1,446.24042,0,0,4.286868,8.684701,0,6,255,0,0,0,4,-127,28,0
True,13743656,7999.995,1082.2844,5754.4727,-17.155006,0.1752465,4.0617456,9.49983,0.0021904707,36.85698,0.019306162,-0.6904719,0.009723639,2.3905249,-0.0011313559,-0.029833708,0.08618156,0.42559418,0.2707936,0.61960334,2.030328,0.8025107,1.0819662,0.5301701,124.189514,116.78856,122.05792,119.11447,0,0,0,0,0,0,0,0,0,0,0,0,-3.5810053,-2.3203974,-2.0767505,-1.582812,4.1165314,2.4552531,2.3416967,1.6692435,-0.054823637,0.017352507,-0.022818953,0.055685967,59,3,32,2,4,425.653,263.49704,3025.5513,38.061573,351131.38,582.63995,171.80693,178.41551,143.28412,143.28412,29.399952,1,456.31644,0,0,4.3831854,8.781017,0,6,255,0,0,0,4,-127,19,0
True,13743781,7999.995,1082.2844,5646.2944,-20.862198,1.6277173,3.2632904,10.200955,0.19417673,36.437363,-0.02218655,-0.6799386,-0.019321432,2.311727,-0.002707453,-0.031346146,0.11502651,0.513791,0.30081013,0.6446638,2.0098732,0.6971777,1.0335518,0.4581085,122.06462,114.020775,120.08014,116.920944,0,0,0,0,0,0,0,0,0,0,0,0,-3.715628,-2.232776,-2.212614,-1.5960329,4.2243915,2.3390906,2.4421077,1.6604772,-0.048689753,0.036107585,-0.016063273,0.061326206,59,3,32,2,4,427.86493,263.4773,3021.748,37.83885,349522.28,590.9543,178.05219,189.191,147.14989,147.14989,29.399952,1,468.5332,0,0,4.499089,8.896921,0,6,255,0,0,0,4,-127,1,0
True,13743875,7999.995,1082.2844,5579.7573,-20.695524,2.4128993,4.035222,10.535012,0.28997743,36.022182,-0.04158778,-0.6533084,-0.006511053,2.2445025,-0.009183442,-0.03082103,0.15545996,0.55892736,0.3379298,0.708303,1.961672,0.824208,0.94102734,0.46777588,120.17331,113.80479,117.90736,115.62617,0,0,0,0,0,0,0,0,0,0,0,0,-3.7664871,-2.508634,-2.2047932,-1.6895828,4.246714,2.6405613,2.397216,1.7531413,-0.040091574,0.045705825,-0.007708937,0.07564916,59,3,32,2,4,429.94006,263.49213,3018.6206,37.53223,346303.9,592.61615,183.18964,198.55563,150.51657,150.51657,29.399952,1,478.32797,0,0,4.598716,8.996548,0,6,255,0,0,0,4,-15,237,0
True,13744015,7999.995,1082.2844,5585.4526,-17.390593,1.4120073,4.8420987,10.999889,0.27685335,35.65542,-0.03987237,-0.6337072,0.029396899,2.1559215,-0.016510827,-0.025715312,0.1721009,0.58712935,0.38664055,0.7762441,1.2113218,0.47120392,1.102972,0.4949244,119.7738,114.41042,118.64472,115.15975,0,0,0,0,0,0,0,0,0,0,0,0,-2.1429696,-1.5521396,-2.4057488,-1.7247354,2.4616294,1.6220884,2.6465402,1.7943417,-0.036552876,0.05170299,0.0032541603,0.09094034,59,3,32,2,4,433.06174,263.55463,3014.516,37.314648,346550.1,592.4939,185.66257,202.81659,155.4075,155.4075,29.399952,1,492.03226,0,0,4.736667,9.134499,0,6,255,0,0,0,4,0,204,0
True,13744125,7999.995,1082.2844,5627.0874,-18.647469,0.3379397,5.26213,11.344189,0.20853943,35.419395,0.008145384,-0.58510387,0.020246543,2.0976999,-0.020301443,-0.02286806,0.1592473,0.5454856,0.3903549,0.7703107,1.3877769,0.6048948,1.1723285,0.6192702,121.075035,115.39067,118.97274,116.03875,0,0,0,0,0,0,0,0,0,0,0,0,-2.302641,-1.7201183,-2.456296,-1.8762821,2.6885087,1.8233773,2.7217171,1.9758366,-0.039286196,0.04284744,0.0040901303,0.089604944,59,3,32,2,4,435.38766,263.6164,3011.819,37.19231,348491.8,591.57806,186.66101,204.02097,158.80052,158.80052,29.399952,1,501.6231,0,0,4.8322997,9.230131,0,6,255,0,0,0,4,0,182,0
True,13744218,7999.995,1082.2844,5714.463,-14.885246,-1.1848133,4.4826317,11.832907,0.14186239,35.191814,0.06368838,-0.5413129,0.06463134,2.0464776,-0.017724287,-0.018068178,0.1307174,0.47304416,0.3820057,0.7519689,1.5295346,0.8302742,1.4165311,0.744315,122.46892,117.697174,121.25677,117.37531,0,0,0,0,0,0,0,0,0,0,0,0,-2.3902636,-1.9214463,-2.6300876,-1.9521581,2.8377519,2.0931582,2.9872932,2.0892406,-0.045353085,0.027442753,0.0022110194,0.085476846,59,3,32,2,4,437.68597,263.67233,3009.3674,37.128178,348326.06,582.25446,187.95395,205.37585,162.15305,162.15305,29.399952,1,510.73383,0,0,4.9227624,9.320595,0,6,255,0,0,0,4,0,164,0
True,13744328,7999.995,1082.2844,5711.3223,-12.784924,-1.2414637,4.763522,12.366058,0.14637564,34.96718,0.032947272,-0.537431,0.012591548,1.9856472,-0.011952156,-0.011798837,0.09696813,0.39794433,0.3163851,0.9197914,1.6220921,0.7186642,1.4072331,0.8977238,122.99433,116.168846,121.05946,118.312325,0,0,0,0,0,0,0,0,0,0,0,0.120000005,-2.515128,-1.8327717,-2.632035,-2.129901,2.9928334,1.9686366,2.9846127,2.3113604,-0.05252987,0.011472762,-0.012557894,0.12324783,59,3,32,2,4,440.72833,263.72662,3006.375,37.08968,343069.3,573.31146,190.2748,207.75879,166.81247,166.81247,29.399952,1,520.85754,0,0,5.037777,9.435609,0,6,255,0,0,0,4,0,145,0
True,13744453,7999.995,1082.2844,5526.5024,-9.08527,-0.2858085,5.607287,13.225624,0.3467883,34.88409,0.10680655,-0.43495947,0.3450878,1.9279227,0.0048184167,0.016245365,0.18774693,0.7159647,0.29394487,0.7039926,0.4113319,0.38223246,1.1449108,0.9112665,113.83912,114.68739,117.45127,117.0717,0,0,0,0,0,0,0,0,0,0.120000005,0,0.120000005,-0.09764482,0.44653445,-2.7049346,-2.4923728,0.42276284,0.587788,2.9372592,2.6537387,-0.033225745,0.079099834,-0.017608404,0.07467905,59,3,32,2,4,443.92352,263.77777,3003.4932,37.308674,344535.66,593.49225,190.0609,206.43056,171.65805,171.65805,29.399952,1,532.40283,0,0,5.1536384,9.551469,0,6,255,0,0,0,4,74,129,0
True,13744562,7999.995,1082.2844,5557.45,-6.7278137,-1.7184272,4.4794335,13.921363,-0.08838093,34.817657,-0.021101665,-0.24033979,0.03660894,1.8934727,0.0105377985,0.04812637,0.22480577,0.49571633,0.47790474,0.4526606,0.6087562,0.3700012,1.1350496,0.96936744,116.511375,114.73292,117.43782,116.96043,0,0,0,0,0,0,0,0,0,0.120000005,0.120000005,0.120000005,-1.3014004,-1.020567,-2.7909827,-2.8165548,1.4367418,1.0855681,3.012959,2.9787002,-0.025345176,0.032263994,0.023794547,0.018112972,59,3,32,2,4,447.13605,263.8168,3000.7083,37.497753,344699.12,593.4113,187.20361,202.67978,177.02946,177.02946,29.399952,1,543.84973,0,0,5.267216,9.665047,0,6,255,0,0,0,4,0,129,0
True,13744671,7999.995,1082.2844,5383.672,-69.67066,-0.8062241,-43.095604,9.407014,-0.038831174,31.158792,-0.03117352,-0.3139493,-0.23947276,1.8609731,0.0033924687,0.022740103,0.15954301,0.3640929,0.56443757,0.42192277,2.4524374,0.9481445,1.8981516,1.2755547,119.277695,106.86022,114.47379,110.47043,0,0,0,0,0,0,0,0,0,0.120000005,0.120000005,0.120000005,-2.1855943,-1.4987508,-2.270154,-1.8243251,3.285007,1.7734802,2.9591517,2.2260282,-0.039223313,0.004274249,0.043270066,0.011194959,59,3,32,2,4,450.26202,263.83414,2998.278,32.547867,272280.88,480.9306,188.52017,202.9032,179.8004,179.8004,29.399952,1,554.58795,0,0,5.3785877,9.776418,0,6,255,0,0,0,4,0,129,0
True,13744781,7999.995,1082.2844,5028.9785,-34.410336,-0.47841358,-2.8843718,7.923082,0.0042248666,31.431671,-0.0952781,-0.4533595,-0.17670837,1.8238838,-0.00017812161,0.006558475,0.07736153,0.30226934,0.4609588,0.39088812,1.549062,0.5106173,1.1399242,0.7909373,109.65872,101.22369,105.98975,104.49127,0,0,0,0,0,0,0,0,0,0.120000005,0.120000005,0.120000005,-1.7838868,-1.2368184,-1.8587053,-1.6516889,2.362593,1.338077,2.1804156,1.8312995,-0.056699216,-0.008872539,0.01998061,0.0042101443,59,3,32,2,4,452.84793,263.8429,2996.7712,32.41489,319179,605.39703,189.92697,202.73752,180.44852,180.44852,29.399952,1,562.7506,0,0,5.4710927,9.868923,0,6,255,0,0,0,4,0,129,0
True,13744890,7999.995,1082.2844,4941.751,-19.024872,-0.5056963,3.9686728,7.3649645,-0.24347486,31.600033,-0.13758466,-0.4582423,-0.22662257,1.7703493,-0.015110098,-0.019986758,0.04530398,0.24513468,0.4020894,0.48123363,0,0.40844584,1.0254761,0.4945807,107.64335,100.18982,104.61023,101.611465,0,0,0,0,0,0,0,0,0,0.120000005,0.120000005,0.120000005,0,-1.1555443,-1.7723916,-1.3684076,0,1.2256062,2.0476751,1.4550427,-0.06351626,-0.02102223,0.0067311525,0.024543762,59,3,32,2,4,456.22147,263.85205,2995.0977,32.44787,314547.78,607.4189,187.81067,201.17468,180.27141,180.27141,29.399952,1,572.98157,0,0,5.587309,9.98514,0,6,255,0,0,0,4,0,129,0
True,13745000,7999.995,1082.2844,5120.387,-13.906749,-2.8815253,4.306123,7.4255376,-0.77850616,31.688026,-0.039722905,-0.38761055,-0.028659772,1.7194643,-0.029669194,-0.037464816,0.03615027,0.15057275,0.113769814,0.5529023,0,0,1.2800614,0.58596116,108.76438,109.231834,107.83258,103.19349,0,0,0,0,0,0,0,0,0,0,0,0.120000005,0,0,-1.9116188,-1.4049387,0,0,2.3006182,1.5222362,-0.0654628,-0.04113084,-0.05815953,0.04067388,59,3,32,2,4,459.72272,263.8558,2993.616,32.555733,323198.25,603.883,184.78662,198.96571,180.67578,180.67578,29.399952,1,583.4711,0,0,5.7042747,10.102105,0,6,255,0,0,0,4,0,129,0
True,13745109,7999.995,1082.2844,5409.248,-8.287071,-5.597189,4.1151204,7.49216,-1.0314099,31.813036,0.26765648,-0.15891482,0.1518428,1.6935796,-0.019150477,-0.029603122,0.011086344,0.038871367,0.15198758,0.5950254,0,1.7545563,1.7359403,0.93640655,115.9225,115.37446,113.98394,107.9442,0,0,0,0,0,0,0,0,0,0,0,0.120000005,0,-1.5814233,-1.8408133,-1.4665182,0,2.3620684,2.5302336,1.7399807,-0.070792645,-0.064884156,-0.049558043,0.05015433,59,3,32,2,4,462.62704,263.81854,2992.506,32.699623,337682.34,596.8397,182.47174,196.0968,181.6754,181.6754,29.399952,1,591.7762,0,0,5.7996078,10.197437,0,6,255,0,0,0,4,127,137,0
True,13745218,7999.995,1082.2844,4899.3496,-2.8353767,-1.9789369,6.241463,7.2223673,-0.35932487,32.530518,0.17560698,0.07784313,0.22161768,1.687758,0.016279424,-0.0052897073,0.1151703,0.2506433,0.12667961,0.14557464,0.1675128,0.3160914,0.68417037,0.8322879,99.832054,101.23742,104.127655,105.305046,0,0,0,0,0,0,0,0,0,0,0,0,0.18405469,0.48772463,-1.5250032,-1.6193099,0.24887079,0.58119625,1.6714436,1.8206779,-0.048659176,-0.01985082,-0.055253983,-0.05100137,59,3,32,2,4,466.1694,263.72183,2991.2537,33.32456,312502.28,608.30035,180.0461,194.08365,182.99837,182.99837,29.399956,1,601.75653,0,0,5.9136124,10.311441,0,6,255,0,0,0,4,127,159,0
True,13745328,7999.995,1082.2844,4797.7603,0.3214262,4.010834,2.5538986,6.5151863,0.113919385,32.97398,-0.12618686,0.3497339,-0.009997179,1.7125735,0.015264513,0.004837867,0.5506427,0.5682854,0.40643692,0.42348462,0.076981045,0.15158033,0.2678061,0.294833,100.581184,99.84752,101.29966,100.261955,0,0,0,0,0,0,0,0,0,0,0,0,0.29178724,0.5515505,-1.1576875,-1.1082295,0.30177122,0.5720005,1.1882595,1.1467777,0.043944106,0.047695816,0.0077096373,0.011546478,59,3,32,2,4,469.79953,263.64325,2989.983,33.611664,306778.12,610.7008,177.9362,191.4509,182.3584,182.3584,29.399956,1,611.9657,0,0,6.0284257,10.426254,0,6,255,0,0,0,4,127,182,0
True,13745453,7999.995,1082.2844,4848.801,-1.0793697,3.6366847,2.216744,4.534619,0.077470176,33.477306,-0.0831767,0.62062466,-0.054274116,1.7675264,-0.00037333634,0.00031805382,0.5574062,0.5788753,0.57067347,0.5954214,0.1742144,0.31543612,0.17397843,0.23868576,102.64069,101.40911,101.977974,100.23908,0,0,0,0,0,0,0,0,0,0,0,0,0.6785468,0.9290275,-0.69236565,-0.66414917,0.7005544,0.9811177,0.71388984,0.7057372,0.04538235,0.04994777,0.044673562,0.050243452,59,3,32,2,4,473.38434,263.63455,2988.7344,33.783108,309466.47,609.57837,176.07513,189.1359,180.54576,180.54576,29.399956,1,622.0389,0,0,6.141092,10.538919,0,6,255,0,0,0,4,127,204,0
True,13745562,7999.995,1082.2844,4896.036,2.626133,1.3463006,2.3831987,1.9164362,-0.019563818,33.976254,-0.058255848,0.8868712,0.06299833,1.8514228,-0.0066063437,0.0005970699,0.48375127,0.49856168,0.5551435,0.5791748,0.1827739,0.53256184,0.09457985,0.25088736,103.28747,103.138504,102.82353,100.9751,0,0,0,0,0,0,0,0,0,0,0,0,1.024816,1.435337,-0.13579217,-0.14456588,1.0409871,1.530952,0.16548373,0.28955787,0.029719621,0.032869056,0.0411783,0.046586916,59,3,32,2,4,476.93658,263.65167,2987.51,34.030262,311930.8,608.5436,174.56178,187.59015,178.5166,178.5166,29.399956,1,632.0021,0,0,6.25191,10.649738,0,6,255,0,0,0,4,127,227,0
True,13745656,7999.995,1082.2844,4987.4077,9.167878,1.2980597,2.0624144,-0.12948036,-0.118343055,34.205044,-0.073085874,1.0531193,0.15432544,1.9409107,-0.013375502,0.010016296,0.43005037,0.418137,0.5467877,0.5147421,0.23333295,0.9198806,0.09365597,0.39882675,104.08445,106.431335,104.04065,103.3239,0,0,0,0,0,0,0,0,0,0,0,0,1.2682815,1.9628602,0.25612715,0.3166271,1.2895666,2.1677177,0.27271333,0.5092303,0.018300116,0.01576674,0.0392977,0.032085344,59,3,32,2,4,479.83914,263.6764,2986.4495,34.20549,316565.75,606.5463,174.30716,187.62549,176.84402,176.84402,29.399956,1,640.24725,0,0,6.3424726,10.7403,0,6,255,0,0,0,4,127,243,0
True,13745781,7999.995,1082.2844,5109.473,14.52285,1.0522307,2.4055634,-2.2931118,-0.20486444,34.25596,-0.059707675,1.03636,0.17651416,2.0550706,-0.022268469,0.027164917,0.4571394,0.3447989,0.544374,0.4446118,0.38036796,1.3949805,0.17848162,0.6707922,105.19559,110.087425,105.677635,107.14717,0,0,0,0,0,0,0,0,0,0,0,0,1.5659142,2.526182,0.59700245,0.78289133,1.6114488,2.8857522,0.62311125,1.0309612,0.024060607,0.00017137825,0.038754463,0.016301468,59,3,32,2,4,483.28616,263.72134,2985.0254,34.333233,322915.44,603.732,176.20499,189.15631,175.15828,175.15828,29.399956,1,650.26514,0,0,6.451293,10.84912,0,6,255,0,0,0,4,127,3,0
True,13745890,7999.995,1082.2844,5162.757,17.04969,1.2634249,2.6755714,-4.119829,-0.2113781,34.087734,-0.05022815,0.9928777,0.13668665,2.1705937,-0.034207627,0.044658173,0.50131893,0.24861005,0.65085524,0.4358921,0.53181535,1.7233136,0.24463552,0.84427315,105.68569,111.54716,106.386055,108.9534,0,0,0,0,0,0,0,0,0,0,0,0,1.8788581,2.987024,0.8560279,1.185375,1.9526739,3.4484956,0.8902979,1.4553044,0.033455387,-0.020283192,0.06271967,0.01433897,59,3,32,2,4,486.78232,263.79437,2983.3381,34.336445,325636.4,602.4941,180.62787,192.43771,173.8184,173.8184,29.399956,1,660.78284,0,0,6.564365,10.962192,0,6,255,0,0,0,4,127,13,0
True,13746000,7999.995,1082.2844,5281.7046,16.118109,-1.1411054,3.46916,-5.9884987,-0.24080777,33.80067,0.052161608,0.89371437,0.040328898,2.2782705,-0.038300294,0.05003929,0.46479383,0.19322066,0.6926345,0.41871578,0.9274495,2.049981,0.45720482,1.1558273,108.542465,113.44099,108.5315,112.02361,0,0,0,0,0,0,0,0,0,0,0,0,2.3581927,3.2951522,1.2035264,1.6165506,2.5340157,3.8807797,1.287444,1.9872525,0.02568832,-0.032061756,0.07212274,0.010473177,59,3,32,2,4,490.22437,263.88483,2981.4202,34.327915,320369.25,579.3156,186.51343,197.13452,173.35684,173.35684,29.399956,1,671.5149,0,0,6.679191,11.077018,0,6,255,0,0,0,4,80,19,0
True,13746093,7999.995,1082.2844,5286.777,14.987797,-1.0313439,3.525052,-7.3967867,-0.1825782,33.555637,0.038238063,0.8901794,0.015643828,2.361798,-0.038066987,0.049306326,0.45649865,0.17373194,0.6882757,0.40937546,0.46735257,1.4235497,0.5126421,1.225508,107.7073,114.211,108.83073,112.214554,0,0,0,0,0,0,0,0,0,0,0,0,1.096594,1.4725113,1.4215151,1.9178326,1.1920305,2.048117,1.5111277,2.2759507,0.02392435,-0.036206037,0.07114172,0.0083709955,59,3,32,2,4,492.9645,263.95404,2979.726,34.361702,331944.62,599.57,190.68983,200.24503,174.47542,174.47542,29.399956,1,680.30334,0,0,6.773046,11.170873,0,6,255,0,0,0,4,0,21,0
True,13746218,7999.995,1082.2844,5206.639,9.28376,-1.9463906,5.145026,-9.33623,-0.18159807,33.33882,0.10043506,0.7204746,-0.083382025,2.4529932,-0.03489821,0.04336481,0.42612988,0.14548148,0.65341336,0.40284288,0.44527572,0.72356164,0.66439474,1.0419483,108.25371,108.66724,109.31397,110.01414,0,0,0,0,0,0,0,0,0,0,0,0,-0.4240509,-0.05128386,1.8954539,2.1478,0.6148899,0.7253768,2.0085232,2.387195,0.017466426,-0.0422135,0.063295424,0.0069007427,59,3,32,2,4,496.0948,264.02805,2977.6038,34.621883,328081.34,601.37317,188.77718,198.56349,177.24966,177.24966,29.399956,1,690.4448,0,0,6.882775,11.280602,0,6,255,0,0,0,4,-127,20,0
True,13746328,7999.995,1082.2844,5132.1606,4.2583203,-2.3532062,4.5195627,-10.973404,-0.1986965,33.137276,0.07865687,0.48462427,-0.10664703,2.5118515,-0.027870528,0.032293253,0.3824033,0.15870282,0.6011715,0.40340203,0.36423796,0.36517444,0.7057882,0.93774563,107.445465,105.57733,108.333664,108.65228,0,0,0,0,0,0,0,0,0,0,0,0,-0.63083273,-0.0988646,2.2274315,2.3851244,0.7284362,0.37832072,2.3365762,2.5628471,0.008167967,-0.03940198,0.051537603,0.007026583,59,3,32,2,4,498.86618,264.0735,2975.6401,34.907505,324222.38,603.1382,186.8483,196.23425,180.19705,180.19705,29.399956,1,699.7111,0,0,6.980456,11.378283,0,6,255,0,0,0,4,-127,20,0
True,13746437,7999.995,1082.2844,5088.393,2.9167478,-0.9488691,2.8150733,-11.883911,-0.18754861,33.048645,0.04070041,0.24011156,-0.053600974,2.548631,-0.023207283,0.023401653,0.38898477,0.22075944,0.5427736,0.4078445,0.2724694,0.24166442,0.61630845,0.844163,106.539894,105.34745,106.62148,107.832756,0,0,0,0,0,0,0,0,0,0,0,0,-0.60840905,-0.03253126,2.1990635,2.467473,0.6666342,0.24384417,2.2837944,2.6078794,0.009567514,-0.02620563,0.038394272,0.008026436,59,3,32,2,4,501.75775,264.1063,2973.5442,35.120865,321938.7,604.16504,185.02753,193.88435,183.89671,183.89671,29.399956,1,709.4557,0,0,7.0824213,11.480249,0,6,255,0,0,0,4,-127,19,0
True,13746562,7999.995,1082.2844,5138.9053,3.6749253,-1.0118732,3.2067773,-11.794667,-0.15589386,33.267166,0.042595677,-0.054775838,-0.013013301,2.559753,-0.018641295,0.019620601,0.35750386,0.23286536,0.50943035,0.43560398,0.3149787,0.24406475,0.728478,0.7751766,107.36436,106.83991,107.91468,108.454895,0,0,0,0,0,0,0,0,0,0,0,0,-0.6382586,-0.061214373,2.2127888,2.306914,0.71174824,0.25162432,2.3296168,2.4336703,0.002873093,-0.023631305,0.030889869,0.01427412,59,3,32,2,4,505.23306,264.14084,2970.9504,35.296497,324472.72,603.0466,182.98532,191.2044,188.71875,188.71875,29.399956,1,721.2889,0,0,7.2055836,11.603412,0,6,255,0,0,0,4,-127,17,0
True,13746671,7999.995,1082.2844,5193.4575,2.066656,-1.2620742,2.2642508,-10.645485,-0.17522135,33.868633,0.027374161,-0.34867635,-0.03962914,2.5346458,-0.013118907,0.016576648,0.3143007,0.20579116,0.45718625,0.39507824,0.38963008,0.21788767,0.74509794,0.6512114,108.541855,108.12191,109.09092,109.38998,0,0,0,0,0,0,0,0,0,0,0,0,-0.8055044,-0.25074354,1.9793581,1.956706,0.8947899,0.33218575,2.1149538,2.0622256,-0.006314069,-0.029388636,0.019131541,0.005153194,59,3,32,2,4,508.68622,264.16086,2968.299,35.502697,327220.16,601.8082,181.16599,188.74397,192.32379,192.32379,29.399956,1,733.16693,0,0,7.3285704,11.726398,0,6,255,0,0,0,4,-127,17,0
True,13746781,7999.995,1082.2844,5258.6963,1.9206333,-1.5086931,2.8926191,-8.963208,-0.3062482,34.529976,0.01401868,-0.5852808,-0.03373373,2.4881854,-0.010728689,0.013543703,0.24866289,0.165616,0.4396569,0.37917835,0.5674393,0.25286466,0.6497881,0.5772175,110.5899,109.69599,109.50673,110.81819,0,0,0,0,0,0,0,0,0,0,0,0,-1.1190913,-0.54088515,1.5250218,1.5858225,1.2547321,0.5970739,1.657684,1.6876056,-0.020271957,-0.03793189,0.015186295,0.0015746802,59,3,32,2,4,511.46353,264.16257,2966.136,35.675655,330502.6,600.2748,179.90872,186.96957,193.55286,193.55286,29.399956,1,742.76984,0,0,7.4274774,11.825305,0,6,255,0,0,0,4,-127,18,0
True,13746875,7999.995,1082.2844,5278.0464,0.72070646,-1.3465573,1.9967759,-6.4929237,-0.39861083,35.265396,0.02571691,-0.8203542,-0.03171259,2.4188848,-0.007701162,0.011370469,0.23334087,0.15187514,0.3883162,0.33523908,0.6312237,0.30672604,0.5570013,0.38737997,110.76811,111.02155,109.62044,110.82202,0,0,0,0,0,0,0,0,0,0,0,0,-1.410873,-0.8930285,1.0194871,1.0077186,1.5456411,0.94423556,1.1617248,1.0796111,-0.023530185,-0.040853888,0.0036312938,-0.00831452,59,3,32,2,4,514.22644,264.14923,2963.9685,35.860355,331541.8,599.7596,179.65363,185.4533,193.16626,193.16626,29.399956,1,752.0755,0,0,7.525657,11.923485,0,6,255,0,0,0,4,-3,21,0
True,13746984,7999.995,1082.2844,5178.115,5.8250647,-0.6188007,3.6885188,-1.9044609,-0.45804417,36.2462,-0.0291946,-0.96379864,0.14582737,2.30773,-0.0062246807,0.015597661,0.24111442,0.19894287,0.42193773,0.3489451,0.1716452,0.20545837,0.16705106,0.09816653,106.599464,111.16026,106.476685,109.622696,0,0,0,0,0,0,0,0,0,0,0,0,0.5143927,0.6242987,0.090184025,0.10040647,0.5422748,0.6572382,0.18983997,0.14042126,-0.02187714,-0.030844927,0.011198327,-0.005229771,59,3,32,2,4,517.5576,264.12036,2961.322,36.299088,326405.47,602.14307,178.59267,183.6443,190.91786,190.91786,29.399956,1,763.6483,0,0,7.6436095,12.041437,0,6,255,0,0,0,4,0,26,0
True,13747109,7999.995,1082.2844,5287.662,-2.04794,-1.5790739,3.5540485,1.4520149,-0.595801,36.743145,0.04454999,-0.68783116,-0.14995849,2.2117121,-0.0046355184,0.010701188,0.22117904,0.15521301,0.44865605,0.35942984,0.3086034,0.14891294,0.32751468,0.11434512,110.30003,111.18685,110.733444,110.81744,0,0,0,0,0,0,0,0,0,0,0,0,0.075527914,0.0767817,-0.45230827,-0.38706303,0.31771138,0.1675425,0.55843407,0.40359953,-0.026116401,-0.040144086,0.01721169,-0.0028700233,59,3,32,2,4,520.8584,264.0841,2958.6177,36.77665,331849.1,599.6157,177.11456,181.8801,188.56262,188.56262,29.399956,1,775.2683,0,0,7.760378,12.158205,0,6,255,0,0,0,4,127,31,0
True,13747203,7999.995,1082.2844,5326.0366,-5.6238074,-1.7733352,4.33204,2.6794224,-0.57913876,36.981907,0.031203117,-0.50963163,-0.1347205,2.1669178,-0.0010369712,-7.2070034E-05,0.1993514,0.1923533,0.4111682,0.36576515,0.255862,0.1265218,0.362804,0.14448826,110.90774,111.378975,112.30606,111.66028,0,0,0,0,0,0,0,0,0,0,0,0,0.024212468,0.042459946,-0.64752525,-0.5457745,0.25700507,0.1334564,0.742237,0.56457657,-0.030758053,-0.032246202,0.008774474,-0.0014441609,59,3,32,2,4,523.0283,264.04742,2956.8826,37.083363,333876.06,598.66907,176.16246,180.78168,187.19273,187.19273,29.399956,1,782.82806,0,0,7.835608,12.233435,0,6,255,0,0,0,4,127,37,0
True,13747312,7999.995,1082.2844,5361.755,-6.1304426,0.33316648,4.5718102,3.542282,-0.52138484,37.37273,-0.02886749,-0.21657752,-0.08317156,2.122589,-0.0021466925,-0.015046476,0.22383568,0.30330473,0.4061883,0.46466202,0.19033702,0.11159647,0.25818527,0.1421693,112.13786,112.001205,112.841866,112.26485,0,0,0,0,0,0,0,0,0,0,0,0,0.114102334,0.15140873,-0.69586223,-0.6039854,0.22191782,0.18809141,0.7422155,0.62049216,-0.025551468,-0.008652359,0.0076536834,0.020814076,59,3,32,2,4,526.66785,263.98077,2954.0757,37.54385,335633.44,597.84106,174.68716,179.11838,185.17719,185.17719,29.399956,1,795.31573,0,0,7.9587607,12.356586,0,6,255,0,0,0,4,127,49,0
True,13747421,7999.995,1082.2844,5442.9204,-4.7295904,-0.5853707,4.0109086,3.296836,-0.5416522,37.79319,0.03666437,0.07188008,0.01615939,2.114239,-0.002081444,-0.018816482,0.18879117,0.2816932,0.4303001,0.50560385,0.20989569,0.21313155,0.24037643,0.20025977,114.13449,113.89036,114.39261,113.629,0,0,0,0,0,0,0,0,0,0,0,0,0.3504165,0.42883772,-0.58545595,-0.5449382,0.40847024,0.47888082,0.63288194,0.5805701,-0.033003688,-0.013248056,0.013080403,0.030028656,59,3,32,2,4,530.3227,263.9229,2951.372,37.940582,339558.34,595.9303,173.37665,177.6763,183.37445,183.37445,29.399956,1,807.6416,0,0,8.079207,12.477034,0,6,255,0,0,0,4,127,66,0
True,13747546,7999.995,1082.2844,5481.8887,1.6094637,-0.469454,4.100705,2.4900188,-0.6234715,38.21811,-0.029896218,0.33996943,0.09004968,2.1376493,-0.0014311624,-0.01205442,0.20302396,0.27802232,0.42302838,0.46724573,0.15405166,0.29618,0.14566831,0.18739946,114.961914,115.33223,114.92178,114.09553,0,0,0,0,0,0,0,0,0,0,0,0,0.61808765,0.8039649,-0.35435715,-0.35128284,0.63699627,0.85678595,0.38312954,0.39814344,-0.029977083,-0.014028668,0.011443794,0.021395579,59,3,32,2,4,533.77454,263.85718,2948.8547,38.304214,341510.22,594.98016,172.38318,176.56464,181.76628,181.76628,29.399956,1,818.2552,0,0,8.191261,12.5890875,0,6,255,0,0,0,4,127,85,0
True,13747640,7999.995,1082.2844,5535.9585,2.9407523,0.34793904,2.5612154,1.2580318,-0.6887696,38.525394,-0.016517255,0.55807215,0.09572597,2.1787224,-0.003853538,-0.0038569132,0.2183838,0.2474886,0.4723118,0.47539604,0.18877499,0.47122145,0.10507509,0.19957043,116.189384,117.2713,115.703415,114.67767,0,0,0,0,0,0,0,0,0,0,0,0,0.9029876,1.2167324,-0.09093088,-0.092996836,0.92250884,1.304794,0.13895755,0.2201744,-0.026710808,-0.02052167,0.022535771,0.023229927,59,3,32,2,4,536.58264,263.8056,2946.7837,38.552082,344074.16,593.7203,171.80206,175.88797,180.48454,180.48454,29.399956,1,827.54706,0,0,8.282062,12.679889,0,6,255,0,0,0,4,127,102,0
True,13747765,7999.995,1082.2844,5655.249,9.10248,-0.27721524,2.802731,-0.6511898,-0.7525439,38.81313,-0.01122205,0.7819123,0.16537532,2.2568712,-0.004746817,0.010430819,0.2270704,0.19157098,0.49867862,0.4436678,0.23587656,0.7410518,0.119290166,0.41800827,117.70532,120.4142,117.46376,118.25349,0,0,0,0,0,0,0,0,0.120000005,0,0,0,1.0923121,1.5735245,0.24692892,0.3116797,1.1174898,1.739292,0.27423352,0.5214165,-0.0248636,-0.03241256,0.028470024,0.016089007,59,3,32,2,4,540.08044,263.7419,2944.1052,38.82589,349772.03,590.88214,171.4842,175.95459,178.93172,178.93172,29.399956,1,839.32434,0,0,8.395916,12.793742,0,6,255,0,0,0,4,127,123,0
True,13747859,7999.995,1082.2844,5735.8755,15.310682,1.1928366,2.6634002,-2.2063293,-0.72318137,38.917,0.0011549108,0.81384134,-0.089423984,2.3399427,-0.009405228,0.015016394,0.63863164,0.18459095,0.900799,0.46079037,0.35171476,0.99933755,0.15356655,0.4950695,119.20776,122.924614,118.64597,119.81394,0,0,0,0,0,0,0,0,0,0,0,0,1.3703021,1.9545473,0.4795527,0.6338447,1.4147193,2.1952062,0.50354093,0.80427164,0.06265496,-0.033896863,0.1189733,0.0199427,59,3,32,2,4,543.0996,263.69345,2941.6052,38.9862,353666.1,588.9675,172.51736,176.93388,177.80713,177.80713,29.399956,1,849.8768,0,0,8.4966755,12.894502,0,6,255,0,0,0,4,127,127,0
True,13747968,7999.995,1082.2844,5851.77,15.15796,-0.52685386,4.252922,-4.145754,-0.69574934,38.932816,0.035325326,0.77232885,-0.096633285,2.4339383,-0.006280711,0.0014161981,0.500909,0.14163205,0.7846809,0.4204309,0.5334848,1.2091385,0.29421106,0.7148945,121.14143,124.892876,121.09191,123.176476,0,0,0,0,0,0,0,0,0,0,0,0,1.6933945,2.3095407,0.7930284,1.0014088,1.7754412,2.6069129,0.8458453,1.2304039,0.033368215,-0.04303208,0.09283917,0.010859191,59,3,32,2,4,546.5713,263.64368,2938.463,39.159107,357152.97,582.93036,175.30884,179.59402,176.7566,176.7566,29.399956,1,862.5614,0,0,8.616512,13.0143385,0,6,255,0,0,0,4,127,127,0
True,13748078,7999.995,1082.2844,5878.23,16.34092,-0.24478233,4.040918,-5.506315,-0.66624504,38.845016,0.012473168,0.7705956,-0.041087456,2.5045085,-0.0036742846,-0.0056775445,0.44528213,0.13067913,0.683792,0.5355436,0.5740131,1.3400009,0.35951108,0.7375206,121.23658,125.657715,122.20921,123.41626,0,0,0,0,0,0,0,0,0,0,0,0,1.8223939,2.561415,1.0215485,1.1355954,1.9106572,2.8907523,1.0829633,1.3540729,0.021539152,-0.04536122,0.0701326,0.03676705,59,3,32,2,4,549.14374,263.59958,2935.9429,39.23899,357297.53,579.9597,178.87698,182.57248,176.1545,176.1545,29.399956,1,872.3551,0,0,8.708377,13.106203,0,6,255,0,0,0,4,127,127,0
True,13748187,7999.995,1082.2844,5881.016,15.675061,0.24223967,3.5070553,-6.7869987,-0.34422565,38.692165,0.0063882247,0.73524296,0.15588382,2.5878458,-0.0020318967,0.014754597,0.41244885,0.35027122,0.630816,0.61175615,0.29200232,1.0470749,0.38252002,0.7903276,120.214745,126.63987,122.020744,123.87781,0,0,0,0,0,0,0,0,0,0,0,0,0.9038778,1.273572,1.1560798,1.4338353,0.9498739,1.6487423,1.21772,1.6372237,0.014557153,0.0013350695,0.05820954,0.053919837,59,3,32,2,4,552.1811,263.55475,2932.6887,39.28442,357286.62,580.1227,183.28479,185.80676,176.06401,176.06401,29.399956,1,883.6238,0,0,8.82177,13.219596,0,6,255,0,0,0,4,0,127,8
True,13748296,7999.995,1082.2844,5342.6396,14.363754,0.49320006,-25.854136,-8.1972,-0.2889102,34.42728,-0.04417827,0.61946607,0.026665267,2.6704977,-0.006713813,0.028292703,0.42003137,0.26852006,0.59450597,0.4989945,0.35741436,0.65009785,0.5435069,0.9391992,110.463844,111.47877,112.05772,113.643814,0,0,0,0,0,0,0,0,0,0,0,0,-0.26957613,-0.029796774,1.4718534,1.7563496,0.44767883,0.6507803,1.5689971,1.9916974,0.016169578,-0.016049325,0.050037414,0.028541118,59,3,32,2,4,555.0067,263.5167,2929.4087,35.39089,335570.53,597.85046,182.19757,184.85506,177.69785,177.69785,29.399956,1,895.4223,0,0,8.93738,13.335205,0,6,255,0,0,0,4,-127,127,0
True,13748421,7999.995,1082.2844,5018.5767,7.872412,0.6949722,-2.4998457,-9.380641,-0.30984682,34.140392,-0.0006415709,0.35242233,-0.006086355,2.7260025,-0.011394399,0.027882043,0.402002,0.24670517,0.59787387,0.48094898,0.10741287,0.14786917,0.27936092,0.44508693,105.32192,104.50614,105.14776,105.51607,0,0,0,0,0,0,0,0,0,0,0,0,-0.41487414,-0.07274646,1.6801875,1.8989472,0.42855346,0.16479485,1.7032535,1.950411,0.012335628,-0.020688266,0.05079542,0.024479702,59,3,32,2,4,557.6033,263.4892,2926.283,35.407043,201534.66,383.38663,180.8952,183.37149,180.65796,180.65796,29.399956,1,906.50336,0,0,9.052169,13.449993,0,6,14,0,0,0,4,-127,127,0
True,13748515,7999.995,1082.2844,4057.312,6.413275,-0.26407373,-9.267704,-9.618771,-0.11784378,33.155388,0.14313783,0.13133846,-0.02753394,2.7484746,-0.0058872467,0.027615298,0.38967893,0.24175014,0.54839796,0.4403738,-0.800294,-0.56108785,-1.3659133,-1.2970024,85.72446,91.77247,76.16004,79.178444,0,0,0,0,0,0,0,0,0,0,0,0,-0.44371668,-0.07510395,1.9531927,2.0885928,0.91507095,0.566092,2.3834178,2.4585433,0.009715125,-0.021741956,0.03966011,0.015347645,59,3,32,2,4,559.6651,263.47357,2923.7205,34.522663,-13447.77,-31.573832,179.95674,182.24329,183.02661,183.02661,19.138336,1,915.47473,0,0,9.145882,13.543705,0,6,0,255,0,0,4,-127,127,129
True,13748640,7999.995,1082.2844,5871.9463,4.113577,-0.14643507,-13.059359,-9.22162,0.45603907,31.445097,0.18148315,-0.10964847,-0.019269276,2.7498097,0.013985058,0.02356266,0.51030314,0.39579082,0.44299725,0.33418953,-0.19176963,-0.35499394,-0.7170769,-0.27059034,92.1685,86.913666,80.5932,87.818405,0,0,0,0,0,0,0,0,0,0,0,0,-0.34110692,-0.01368176,1.9201925,2.0103738,0.39131767,0.35525748,2.0497167,2.0285025,0.03536588,0.011014819,0.015938088,-0.008550733,59,3,32,2,4,562.08704,263.44843,2920.7021,32.772552,-17873.785,-29.004597,178.96432,181.07587,186.17023,186.17023,21.9837,1,926.0307,0,0,9.260891,13.658713,0,6,0,255,0,0,3,-127,127,223
True,13748750,7999.995,1082.2844,4758.6157,26.12191,-2.6825662,-137.38777,-0.49061596,-0.027490295,4.8123894,0.1556246,-0.57000047,-0.33701453,2.7136524,0.020778729,-0.006853212,0.57599634,0.57656765,0.3422635,0.4492221,11.942039,0.71662086,19.29843,3.2984378,57.65266,23.576143,65.610306,28.913025,0,0,0,0,0,0,0,0,0,0,0,0,0.90843415,0.8048793,2.4670842,1.562724,11.9765415,1.0776716,19.455484,3.6499038,0.049335554,0.049457043,-0.0067335665,0.01733908,59,3,32,2,4,563.6251,263.4323,2918.6775,4.837412,2055.181,4.1248946,179.38289,183.08087,189.10565,189.10565,2.8443918,1,932.96533,0,0,9.375924,13.7737465,0,6,0,220,0,0,0,-127,127,146
True,13748859,7999.995,1082.2844,2965.4758,18.303345,1.2464347,-37.44075,1.5348253,0.078044996,2.0806937,-0.08699536,-0.6801163,-0.09948798,2.6460085,0.025713636,-0.036172733,0.5583128,0.76568735,0.29263806,0.50219226,7.7151675,1.3601141,9.66712,3.9434211,24.524555,11.708438,27.411802,19.749247,0,0,0,0,0,0,0,0,0,0,0,0,-3.451423,-1.6253585,-7.22097,-4.205787,8.45199,2.1193633,12.0663,5.765346,0.045575142,0.08967337,-0.017902523,0.02926083,59,3,32,2,4,563.59827,263.4171,2918.353,2.5867095,26974.398,85.20046,187.4538,189.37753,195.62436,195.62436,9.131383,1,933.6152,0,0,9.492011,13.889833,0,6,106,0,0,0,1,0,127,0
True,13748968,7999.995,1082.2844,2093.8618,2.0540795,-1.4226445,-9.878134,1.4510114,-0.07390436,1.9572878,-0.08929601,-0.71594983,-0.024230722,2.5780597,0.01303116,-0.03567105,0.50939643,0.7144844,0.3853922,0.5842008,4.9560776,0.6375695,4.829398,2.35848,17.162643,9.661624,17.243376,14.815179,0,0,0,0,0,0,0,0,0,0,0,0,-2.3002412,-1.0467279,-6.8779535,-4.357538,5.4638643,1.2256157,8.404126,4.954853,0.035173073,0.07878506,0.002973199,0.047718093,59,3,32,2,4,563.5818,263.4109,2918.1067,2.4375956,73642.12,334.2993,193.07335,190.85349,200.97636,200.97636,13.624881,1,934.1151,0,0,9.587867,13.985689,0,7,255,0,0,0,1,0,127,0
True,13749078,7999.995,1082.2844,2244.3171,-5.411793,0.6929349,3.9708416,0.8678865,0.031249896,2.2820039,-0.09787281,-0.68512666,-0.008420065,2.509235,0.0014830483,-0.03790036,0.49791119,0.7156611,0.49278304,0.71822417,5.972549,0.52986974,4.996338,1.8372214,20.308805,9.97876,18.440664,14.385645,0,0,0,0,0,0,0,0,0,0,0,0,-0.7337067,-0.5047492,-5.447941,-3.0880878,6.017447,0.7318016,7.392121,3.593281,0.03273073,0.07903528,0.027143136,0.07788208,59,3,32,2,4,563.5847,263.39957,2917.8884,2.4416685,129073.72,550.08997,198.59909,190.28745,206.44522,206.44522,16.76141,1,934.58765,0,0,9.683407,14.08123,0,7,255,0,0,0,1,-13,127,0
True,13749187,7999.995,1082.2844,2390.811,-1.6346841,0.20320424,6.4920664,0.90820307,-0.012338072,3.010832,-0.04091755,-0.6001311,-0.014588375,2.4297605,-0.0059273583,-0.037527453,0.51644075,0.7211,0.5958573,0.7928647,4.6118193,0.44027862,4.6665115,1.6817921,19.472143,11.508144,20.108469,16.144764,0,0,0,0,0,0,0,0,0,0,0,0,-0.508569,-0.32180765,-4.0534577,-2.5485675,4.6397758,0.5453489,6.181169,3.0534604,0.036671042,0.080191866,0.05034156,0.094681054,59,3,32,2,4,563.6889,263.3878,2917.5754,3.144852,151046.83,601.2143,205.55821,189.13013,213.6142,213.6142,23.834606,1,935.43414,0,0,9.804347,14.20217,0,7,255,0,0,0,1,0,127,0
True,13749312,7999.995,1082.2844,2743.0774,-1.990689,0.41495472,8.074562,0.97020316,-0.04702562,3.8961275,-0.009241566,-0.4329009,-0.08760479,2.3712926,-0.009737369,-0.035443507,0.49812967,0.7003774,0.63624924,0.48064715,5.9400315,0.05465495,2.6633348,2.2878556,25.148476,15.521706,17.758873,18.710773,0,0,0,0,0,0,0,0,0,0,0,0,-0.29466513,-0.17378506,-2.07819,-1.8483747,5.9473357,0.18217686,3.3781986,2.9412196,0.03277719,0.075785205,0.059432372,0.024411768,59,3,32,2,4,563.8861,263.385,2917.1958,4.0153847,179795.6,634.8323,212.39691,187.788,220.46805,220.46805,28.464218,1,936.5804,0,0,9.922778,14.320601,0,7,255,0,0,0,1,0,127,0
True,13749406,7999.995,1082.2844,3073.8499,2.7392306,-0.43146566,6.8329606,1.2952653,-0.08092363,4.5111856,-0.10887466,-0.35634005,-0.057864908,2.330774,-0.015467278,-0.042700015,0.52519876,0.756956,0.6859414,0.5286855,5.5479608,0.7346988,2.907303,2.8244524,27.301409,15.022516,21.534021,22.583746,0,0,0,0,0,0,0,0,0,0,0,0,-0.16749159,0.08143039,-2.3449285,-2.1985621,5.5504885,0.7391977,3.7351172,3.5792747,0.038533434,0.08781664,0.07061635,0.03522353,59,3,32,2,4,564.0904,263.37253,2916.8325,4.694151,205577.16,637.3026,216.67303,186.87445,226.27403,226.27403,29.188496,1,937.7038,0,0,10.019935,14.417758,0,7,255,0,0,0,1,127,127,0
True,13749531,7999.995,1082.2844,3779.0703,0.5030174,1.1293014,11.41664,1.2278447,0.10056521,5.864169,-0.088505186,0.22733913,0.03452065,2.3272746,-0.028757166,-0.043901812,0.46152833,0.66957533,0.72069776,0.57638854,5.769699,2.6656547,1.9668592,3.3613858,32.633743,24.327414,23.524822,25.78767,0,0,0,0,0,0,0,0,0,0,0,0,0.97392464,1.3777263,-0.93340605,-1.0690141,5.8513207,3.0006406,2.1771042,3.5272803,0.024993911,0.06923513,0.07843879,0.045959815,59,3,32,2,4,564.4306,263.38702,2916.3074,5.992177,248449.61,630.26434,221.24802,188.98018,231.47781,231.47781,29.364353,1,939.4029,0,0,10.136281,14.534104,0,8,255,0,0,0,1,127,127,0
True,13749625,7999.995,1082.2844,4661.432,0.19898653,-0.42667735,9.86607,1.064024,-0.027850349,6.9214954,-0.068091094,0.49863374,0.013919968,2.3636665,-0.03474155,-0.042826887,0.36885887,0.54280883,0.6948379,0.52517146,5.6854124,4.2761264,1.621078,4.854787,38.74287,31.990446,27.352318,33.00148,0,0,0,0,0,0,0,0,0,0,0,0,1.1363735,1.4897838,-0.3048699,-0.3812258,5.797867,4.528213,1.6494968,4.869732,0.0052877367,0.042278215,0.07261865,0.034432635,59,3,32,2,4,564.7958,263.4056,2915.7942,7.0028577,298326.72,614.0184,224.64209,195.64926,232.03296,232.03296,29.391907,1,941.1187,0,0,10.23314,14.630963,0,8,255,0,0,0,1,127,127,0
True,13749750,7999.995,1082.2844,5454.4663,2.4617634,-0.8088082,12.217318,0.82081985,-0.16753891,8.339192,-0.09159519,0.7372245,0.028224245,2.438078,-0.041937847,-0.04224287,0.22388038,0.4116587,0.6565283,0.48796356,4.634794,4.9904904,1.3803357,4.4522395,43.395374,39.343193,32.516056,38.133907,0,0,0,0,0,0,0,0,0,0.120000005,0,0,1.3683183,1.6923969,0.13863127,0.20200405,4.8325577,5.269649,1.3872799,4.45682,-0.025541961,0.0143891275,0.06399648,0.026058435,59,3,32,2,4,565.3213,263.42487,2915.0542,8.3811655,339581.44,595.9073,229.3056,203.14114,232.48639,232.48639,29.398655,1,943.591,0,0,10.350824,14.748649,0,8,255,0,0,0,1,127,127,0
True,13749875,7999.995,1082.2844,6252.7275,3.14912,-1.4977013,11.823483,0.3518672,-0.3946305,9.773279,-0.027025491,0.8616161,-0.044809185,2.5386992,-0.046322785,-0.044168368,0.12977266,0.04195643,0.625178,0.4878795,3.3144264,5.683764,2.023713,3.6823165,45.44522,48.097218,40.444492,41.85003,0,0,0,0,0,0,0,0,0,0,0,0,0.14023033,0.11454986,0.54106784,0.6698286,3.3173916,5.684918,2.0947957,3.742743,-0.045553982,-0.06422812,0.056940615,0.026039526,59,3,32,2,4,565.93634,263.4391,2914.1267,9.787569,359715.28,550.8125,233.60742,208.82468,231.17332,231.17332,29.399796,1,946.61615,0,0,10.472979,14.870803,0,9,255,0,0,0,1,0,127,0
True,13749968,7999.995,1082.2844,6706.9067,1.6513815,-1.1705824,12.405291,-0.3138647,-0.54080755,10.922645,-0.0061175674,0.7542253,-0.041568197,2.6215441,-0.042871952,-0.053397525,0.15161054,0.091803,0.5929669,0.5364807,3.0927837,4.4777107,2.3392267,2.849231,48.788662,49.67904,46.056355,44.085163,0,0,0,0,0,0,0,0,0,0,0,0,-0.7696326,-0.8003661,0.77446795,0.8504883,3.1871061,4.548679,2.4640987,2.9734573,-0.040910155,-0.053628236,0.049691036,0.03697796,59,3,32,2,4,566.4881,263.43582,2913.246,10.940528,358262.1,510.0033,237.03906,213.80727,233.07294,233.07294,29.399952,1,951.56964,0,0,10.573483,14.971308,0,9,255,0,0,0,1,-127,127,0
True,13750093,7999.995,1082.2844,6724.0327,0.9942155,0.13462481,13.99456,-0.94703007,-0.53394413,12.410368,-0.035485998,0.4133215,-0.051295143,2.6894362,-0.04180576,-0.06047303,0.21595463,0.15036477,0.59113616,0.56536007,2.2286918,2.6959014,1.5463533,1.6632618,48.912807,49.019062,46.49094,44.66801,0,0,0,0,0,0,0,0,0,0,0,0,-1.2426316,-1.0607315,0.77501863,0.7926467,2.5517054,2.8970737,1.7297001,1.8424789,-0.027227372,-0.041175067,0.04927899,0.0434777,59,3,32,2,4,567.1786,263.4359,2912.0933,12.457898,358125.06,508.4532,240.02528,219.66376,233.423,233.423,29.399952,1,955.1281,0,0,10.687892,15.085715,0,9,255,0,0,0,1,-127,127,0
True,13750203,7999.995,1082.2844,6404.771,0.69189525,0.6966163,11.759596,-1.0848112,-0.5016383,13.623102,-0.039832845,-0.06059344,0.0077525796,2.7067382,-0.045334015,-0.06352421,0.21450244,0.19496605,0.5984496,0.5800821,1.6385576,0.9646458,0.52100277,0.5355453,48.32609,45.457382,43.02371,43.305466,0,0,0,0,0,0,0,0,0,0,0,0,-1.242977,-0.94350076,0.45238817,0.47811982,2.056663,1.3493462,0.6899992,0.71791875,-0.027536184,-0.031690598,0.050924987,0.04679112,59,3,32,2,4,567.80884,263.44748,2911.002,13.675429,256528.86,382.15305,240.78323,221.18068,231.82687,231.82687,29.399952,1,958.4515,0,0,10.784029,15.181852,0,9,255,0,0,0,1,-127,127,0
True,13750296,7999.995,1082.2844,5702.628,-2.5526996,0.1401105,1.9299786,-0.8757963,-0.4406414,13.787365,0.11116718,-0.48251367,-0.095835075,2.677617,-0.042720478,-0.064957134,0.23033206,0.21440952,0.59691167,0.55879235,-0.7161933,0.26075208,0.41716433,0.10587086,34.529438,42.72155,41.269142,41.84711,0,0,0,0,0,0,0,0,0,0,0,0,-1.0210035,-0.7184141,0.108499475,0.112471186,1.2471492,0.76427126,0.43104318,0.15446167,-0.024170011,-0.027555943,0.050578862,0.041999534,59,3,32,2,4,568.5005,263.46823,2909.7864,13.822178,269539.72,449.93268,237.77217,218.72624,228.47925,228.47925,29.399952,1,962.1334,0,0,10.884956,15.282781,0,9,63,255,0,0,1,-127,127,129
True,13750421,7999.995,1082.2844,5264.173,-7.6222425,-0.34131992,-5.281006,-0.78367853,-0.25437412,13.179084,0.16592053,-0.7366922,-0.090771064,2.6003695,-0.03061205,-0.07477796,0.2543886,0.33447573,0.504796,0.5336408,-0.18512765,-0.09830538,-0.3994234,-0.1986694,35.631413,39.14202,34.591526,38.6722,0,0,0,0,0,0,0,0,0,0,0,0,-1.0209999,-0.658173,-0.15565753,-0.111119315,1.0376478,0.665474,0.42868206,0.22763357,-0.019054383,-0.002023846,0.029846847,0.03633879,59,3,32,2,4,569.3786,263.49313,2908.3943,13.204815,75890.164,137.65709,233.73386,215.80606,224.552,224.552,29.382317,1,966.51843,0,0,11.006249,15.404075,0,9,0,255,0,0,1,-127,125,129
True,13750531,7999.995,1082.2844,4445.012,-9.711858,-0.9731802,-8.833322,-0.69535303,-0.105854064,12.14845,0.18980941,-0.86799544,-0.081786394,2.5045357,-0.017603567,-0.08228712,0.25715482,0.3967747,0.41095558,0.50452524,-0.5152478,-0.14057378,-2.4106128,-0.2143354,30.655327,36.31054,22.143246,35.891914,0,0,0,0,0,0,0,0,0,0,0,0,-1.2164688,-0.7728923,-0.3657501,-0.26240337,1.3210891,0.78557205,2.4382017,0.3388144,-0.018466145,0.011224046,0.008726627,0.029785901,59,3,32,2,4,570.26733,263.51544,2907.22,12.168794,-16663.717,-35.700302,230.5946,213.2687,221.77629,221.77629,5.0142603,1,970.5071,0,0,11.122306,15.520131,0,10,0,255,0,0,1,-127,121,129
True,13750656,7999.995,1082.2844,4823.311,-13.3161955,-0.9033677,-7.1638746,-0.8397541,0.05673185,11.3927,0.18242288,-0.9915417,-0.09937399,2.3949342,-0.005803849,-0.09164111,0.25140557,0.4660887,0.2994481,0.4780907,0.442923,-0.04245893,0.58340627,-0.052171674,32.41106,34.978687,33.266415,34.983257,0,0,0,0,0,0,0,0,0,0,0,0,-1.8127869,-0.9964211,-0.41289952,-0.28815374,1.8661128,0.9973253,0.71473694,0.29283863,-0.019688725,0.025963679,-0.01636982,0.023836404,59,3,32,2,4,571.20215,263.53528,2906.2268,11.423747,43367.258,86.0405,228.29329,211.37732,221.1086,221.1086,8.53758,1,974.23926,0,0,11.238463,15.63629,0,10,97,0,0,0,1,-127,120,0
True,13750765,7999.995,1082.2844,5463.594,-13.169256,-1.4844913,-1.9019032,-0.868083,0.0765388,11.343723,0.11346473,-1.1230017,-0.027003724,2.2921588,-0.0013413172,-0.09742183,0.20975886,0.47942358,0.22038595,0.4338188,2.4345937,0.23576704,2.1568305,0.21714075,40.338047,37.07602,39.440704,36.79046,0,0,0,0,0,0,0,0,0,0,0,0,-1.8166991,-1.0242585,-0.5468224,-0.38069302,3.0377035,1.051043,2.225069,0.43826622,-0.028544903,0.02879934,-0.034163952,0.01387234,59,3,32,2,4,572.04083,263.5542,2905.5261,11.377147,183606.45,321.59955,227.83432,210.1066,219.18143,219.18143,16.449772,1,977.2231,0,0,11.334782,15.732607,0,10,207,0,0,0,1,-127,121,0
True,13750859,7999.995,1082.2844,6344.027,-9.85364,-1.7617657,3.5984213,-0.54565763,-0.03063482,11.834692,0.06327441,-1.2661117,0.010690641,2.1727512,-0.0044025667,-0.09735639,0.1665044,0.45454943,0.20791617,0.43986169,4.3727574,0.7220388,3.131115,0.65556717,49.574707,41.666122,45.729393,41.43421,0,0,0,0,0,0,0,0,0,0,0,0,-2.001078,-1.2011617,-0.84892124,-0.60586745,4.8088794,1.4014741,3.244156,0.892661,-0.037742972,0.023509845,-0.036970466,0.015232384,59,3,32,2,4,572.99445,263.5667,2904.8765,11.847303,318383.28,480.8648,230.52466,209.27438,220.67223,220.67223,25.831966,1,980.334,0,0,11.434434,15.832259,0,10,238,0,0,0,1,-127,124,0
True,13750968,7999.995,1082.2844,7221.7534,-8.655193,-2.0794344,8.061247,0.31548405,-0.18595678,12.7324,0.06518293,-1.3842648,0.038892146,2.0133507,-0.012709582,-0.093361095,0.112601966,0.37053406,0.27527615,0.53164256,4.9136724,1.1733466,3.4528763,1.0812932,56.67926,47.66187,51.197556,47.54886,0,0,0,0,0,0,0,0,0,0,0,0,-0.69363636,-0.5679055,-1.3578514,-0.99064916,4.9623895,1.3035563,3.7102716,1.4664859,-0.049205333,0.005643964,-0.021810085,0.03588906,59,3,32,2,4,574.2728,263.56787,2904.1658,12.737666,352265,466.24893,234.37976,209.90176,225.56134,225.56134,28.82418,1,984.1968,0,0,11.55361,15.951435,0,10,255,0,0,0,1,0,127,0
True,13751093,7999.995,1082.2844,6917.2407,-5.968075,-0.7167088,10.2137165,1.4770405,-0.18425938,13.638675,0.050712008,-1.1994355,0.16818056,1.8835946,-0.017928923,-0.079292364,0.15856913,0.65313804,0.38946617,0.5780295,2.8424382,0.44631016,2.2522316,0.858056,51.473213,45.321182,49.435783,48.293957,0,0,0,0,0,0,0,0,0,0,0,0,0.013964544,0.022712298,-1.7074921,-1.3843129,2.8424726,0.4468877,2.8263185,1.628675,-0.03943041,0.06573975,0.003890112,0.04632914,59,3,32,2,4,575.455,263.5617,2903.6084,13.719659,150003.28,206.66322,237.61943,208.39703,230.2474,230.2474,28.855568,1,994.6474,0,0,11.652213,16.050037,0,10,255,0,0,0,1,7,127,0
True,13751187,7999.995,1082.2844,6985.319,-5.670583,-0.93877244,8.607438,2.3428142,-0.22805941,14.277802,0.07882363,-0.8101542,0.09217112,1.7801218,-0.019423176,-0.06432826,0.1560455,0.5857541,0.47048166,0.5590576,2.550626,0.3775534,1.3162267,0.7469559,53.671963,46.17078,47.945812,48.650078,0,0,0,0,0,0,0,0,0,0,0,0,0.19124697,0.29152822,-1.6398408,-1.4793427,2.5577857,0.47700658,2.1027436,1.657226,-0.03996706,0.05141054,0.022123873,0.042059228,59,3,32,2,4,576.78015,263.55408,2903.058,14.470536,257718.22,352.4907,238.12929,206.37766,232.29861,232.29861,29.27385,1,998.60315,0,0,11.753854,16.151676,0,10,255,0,0,0,1,127,127,0
True,13751312,7999.995,1082.2844,7329.997,-3.3466306,-1.4631976,8.361965,2.9003434,-0.30788526,15.05367,0.06851344,-0.42252457,0.056403447,1.7069819,-0.014300632,-0.052202757,0.121256895,0.4727452,0.49985382,0.5106135,2.0039737,0.42286232,1.1208736,1.0323322,55.421345,48.294666,50.54529,51.87024,0,0,0,0,0,0,0,0,0,0,0,0,0.05044858,0.21239814,-1.497069,-1.5127312,2.0046086,0.47320768,1.87018,1.8314108,-0.04736486,0.027379185,0.02873452,0.031156152,59,3,32,2,4,578.5114,263.53326,2902.4321,15.333615,292948.2,381.89713,236.93018,204.16806,233.31052,233.31052,29.38094,1,1003.7,0,0,11.877351,16.275173,0,10,255,0,0,0,1,116,127,0
True,13751421,7999.995,1082.2844,7703.3574,-9.173972,-1.2030402,7.5455675,2.4936132,-0.29748982,15.642592,0.09485813,-0.28223392,0.028063476,1.6738434,-0.007368914,-0.046690956,0.10476984,0.39990345,0.51525253,0.80346835,2.3752244,0.6433958,1.5965251,0.694422,59.086224,50.89041,55.13692,51.51749,0,0,0,0,0,0,0,0,0,0,0,0,-1.1923285,-0.93120086,-1.363934,-1.09572,2.657694,1.1318538,2.0998116,1.2972372,-0.050870836,0.011889368,0.032200232,0.097067565,59,3,32,2,4,580.0229,263.5065,2901.9683,15.842894,296570.38,368.11914,236.0804,202.62505,233.23434,233.23434,29.395977,1,1008.0865,0,0,11.979023,16.376846,0,10,255,0,0,0,1,-9,127,0
True,13751515,7999.995,1082.2844,7595.2773,-21.19388,-2.1905396,6.831567,0.21661425,-0.42470187,16.287748,0.08498534,-0.30880398,0.08360259,1.643225,0.0016044592,-0.03863091,0.074424885,0.344775,0.4659823,0.7286153,1.8292702,0.45721307,0.9253891,0.35511884,58.187187,51.466736,53.053432,50.884293,0,0,0,0,0,0,0,0,0,0,0,0,-0.63782847,-0.51944405,-0.31965905,-0.2680692,1.9372802,0.6920014,0.9790439,0.44493875,-0.057323694,0.00016629696,0.02111122,0.08022076,59,3,32,2,4,581.6567,263.46652,2901.728,16.294724,307958.06,387.30814,235.66833,201.27075,231.16077,231.16077,29.18272,1,1012.6271,0,0,12.082126,16.47995,0,10,255,0,0,0,1,-127,127,0
True,13751640,7999.995,1082.2844,7377.2803,-10.768053,-1.8723752,4.626305,-0.39238322,-0.50423557,16.82529,0.11384103,-0.3995646,0.032000057,1.5978295,0.0083524855,-0.030815812,0.057748634,0.027262975,0.43501967,0.65282166,1.4239163,0.18338147,0.14885066,0.048400875,56.887512,51.016468,49.17901,50.378223,0,0,0,0,0,0,0,0,0,0.120000005,0,0,-0.85967976,-0.7075335,-0.13867119,-0.10649304,1.6633061,0.730912,0.20343603,0.11697612,-0.060869902,-0.06735268,0.014142618,0.06316225,59,3,32,2,4,583.65674,263.4007,2901.6475,16.83742,-43591.37,-56.249886,234.2065,199.57759,227.47208,227.47208,27.317886,1,1018.0217,0,0,12.203106,16.60093,0,10,255,0,0,0,1,-127,127,0
True,13751734,7999.995,1082.2844,7083.8613,-12.766329,-1.482744,1.0370115,-0.75745505,-0.3630509,16.933237,0.2043134,-0.5467678,0.008920627,1.551248,0.02364196,-0.028734978,0.11528424,0.104149826,0.3757379,0.57125044,0.022223346,-0.005095866,0.028189374,-0.0043585813,47.85411,50.189636,48.018135,50.33386,0,0,0,0,0,0,0,0,0,0,0,0,-0.81716025,-0.61507714,-0.024275959,-0.01646354,0.8174624,0.61509824,0.037201654,0.01703072,-0.048634946,-0.05100268,0.00080035627,0.04480341,59,3,32,2,4,585.3601,263.3327,2901.7056,16.954058,-41771.21,-56.249886,231.44147,198.18173,224.38657,224.38657,-0.32436275,1,1033.6151,0,0,12.303821,16.701645,0,9,255,0,0,0,2,-127,127,0
True,13751859,7999.995,1082.2844,5262.0317,-14.478478,-0.47545552,3.4119673,-1.4133362,-0.11873746,17.35719,-0.021331346,-0.8500903,-0.029370237,1.4654716,0.031874932,-0.030198198,0.13781935,0.21917957,0.24430686,0.1985767,1.6501095,0.2336606,0.7395497,0.37405556,60.23585,55.049194,54.22083,55.563972,0,0,0,0,0,0,0,0,0,0,0,0,-0.7372654,-0.47318867,0.079572976,0.08782342,1.8073245,0.52773553,0.7438183,0.3842272,-0.043842852,-0.02654159,-0.028780192,-0.039072454,59,3,32,2,4,587.39716,263.25974,2902.0078,17.415041,276265.53,502.07114,229.33554,196.76987,221.77391,221.77391,22.95018,1,1039.0989,0,0,12.424172,16.821999,0,9,255,0,0,0,2,-127,127,0
True,13751968,7999.995,1082.2844,5590.146,-12.386566,-1.2564715,5.808406,-0.870759,-0.34522676,17.939043,-0.0707685,-1.0170823,-0.005936144,1.3729966,0.023597198,-0.032388493,0.076649584,0.20957668,0.2718459,0.31026268,0,0.40490076,0.9915153,0.3191609,65.37469,58.38716,57.71379,57.62846,0,0,0,0,0,0,0,0,0,0,0,0,0,-0.7606379,-0.23196898,-0.18700594,0,0.86169285,1.0182889,0.36991203,-0.056850612,-0.028583646,-0.022582114,-0.013935834,59,3,32,2,4,589.07495,263.1943,2902.3904,17.96348,340633.53,582.4087,227.52191,195.65851,219.33664,219.33664,27.950008,1,1043.7721,0,0,12.521696,16.91952,0,9,255,0,0,0,2,-127,127,0
True,13752062,7999.995,1082.2844,5885.36,-14.026012,-0.8012667,7.177697,-0.29154253,-0.55036765,18.646788,-0.06668645,-1.0941654,-0.08278766,1.2646216,0.012796296,-0.03773666,0.035910055,0.22694597,0.3300743,0.4741951,0,0.45524466,1.270348,0.30108067,68.88264,60.8858,61.966858,59.99584,0,0,0,0,0,0,0,0,0,0,0,0,0,-0.9717699,-0.47278795,-0.35389367,0,1.073119,1.355475,0.46463996,-0.06551388,-0.024890065,-0.00947693,0.022959635,59,3,32,2,4,590.86707,263.1163,2902.9243,18.657185,355987.62,578.28815,224.53975,194.86234,217.19753,217.19753,29.09711,1,1048.9106,0,0,12.623995,17.021818,0,9,255,0,0,0,2,-127,116,0
True,13752187,7999.995,1082.2844,6321.4624,-13.655601,-0.6079433,7.1948557,0.5635896,-0.7216058,19.415981,-0.026050732,-1.1402527,0.012182269,1.1293143,0.0008306946,-0.04618126,0.02941171,0.24646075,0.20951219,0.6439382,0,0.6590024,2.0660124,0.35035217,72.86299,64.599686,69.703415,63.218178,0,0,0,0,0,0,0,0,0,0,0,0,0,-1.2540299,-0.87629485,-0.57372916,0,1.4166422,2.2441702,0.67224383,-0.06689575,-0.02074024,-0.03661126,0.06116289,59,3,32,2,4,593.01697,263.02368,2903.7578,19.43756,359088.72,543.0248,221.23232,195.26021,216.36693,216.36693,29.35252,1,1055.3003,0,0,12.745056,17.14288,0,9,255,0,0,0,2,-127,97,9
True,13752281,7999.995,1082.2844,6549.6885,-23.437096,0.2551592,4.908475,0.50722694,-0.7318635,19.673695,0.03620667,-1.1165313,0.20353334,1.0420187,-0.0027507937,-0.036857106,0.02985822,0.24515711,0.22508462,0.6750753,0,1.1388317,2.0048645,0.52508,75.279495,68.83457,70.60005,65.43194,0,0,0,0,0,0,0,0,0,0,0,0,0,-1.4487699,-0.85445595,-0.62637573,0,1.8427892,2.1793523,0.8173467,-0.0668008,-0.021017462,-0.033106446,0.06817077,59,3,32,2,4,594.36694,262.96777,2904.426,19.693834,359007.2,523.76624,219.24466,196.57391,216.86728,216.86728,29.385391,1,1065.6107,0,0,12.822083,17.219908,0,8,255,0,0,0,2,-127,85,0
True,13752406,7999.995,1082.2844,6781.8726,-20.244799,-1.5154996,5.759982,0.63445187,-0.7754721,20.092606,0.11705223,-1.0409298,0.21914107,0.9097899,0.004299131,-0.005684171,0.015651219,0.16117544,0.27682978,0.57095283,0,1.5207344,1.7925714,0.8524019,77.57997,72.36842,71.08136,69.04739,0,0,0,0,0,0,0,0,0,0,0,0,0,-1.6801115,-0.80443007,-0.6911217,0,2.2661438,1.9647952,1.0973779,-0.069821924,-0.038876176,-0.021460414,0.04473643,59,3,32,2,4,596.4058,262.8765,2905.7583,20.117573,335469.1,472.49026,216.25821,198.92767,217.76877,217.76877,29.39777,1,1071.4796,0,0,12.944818,17.342642,0,8,255,0,0,0,2,-127,68,29
True,13752531,7999.995,1082.2844,6515.9307,-19.186579,0.35567135,7.587731,0.9903574,-0.44764066,20.778362,0.11207211,-1.0043142,-0.057262298,0.7834066,0.019426182,-0.00087733474,0.042919658,0.256325,0.30670664,0.5121491,2.5313005,0.60416305,1.4266801,0.39585036,74.52576,67.10473,70.0934,66.97826,0,0,0,0,0,0,0,0,0,0,0,0,-2.3401084,-1.4675635,-0.8675276,-0.6614999,3.4472582,1.5870588,1.6697365,0.77089536,-0.064023286,-0.018642604,-0.014736176,0.031501755,59,3,32,2,4,598.37866,262.7677,2907.3867,20.806765,322813.72,473.279,219.9448,201.92247,217.37672,217.37672,29.399666,1,1077.9989,0,0,13.069817,17.46764,0,7,255,0,0,0,2,-127,49,5
True,13752640,7999.995,1082.2844,6745.88,-22.243305,0.9799074,6.0843334,1.0252514,-0.15241784,21.190224,0.017389338,-1.0960553,0.026411306,0.65235364,0.02662862,-0.0057773865,0.054419998,0.29184562,0.25542402,0.4987039,2.5875823,0.68749356,1.6434041,0.5086003,76.40393,69.42786,73.028175,69.67766,0,0,0,0,0,0,0,0,0,0,0,0,-2.3470042,-1.5374054,-0.9505759,-0.7470098,3.493424,1.6841208,1.8985182,0.9037134,-0.061577737,-0.011089146,-0.026278108,0.028475717,59,3,32,2,4,600.18994,262.67178,2909.2837,21.215559,295243.44,418.1797,223.99191,204.73282,216.7839,216.7839,29.399952,1,1084.9767,0,0,13.194732,17.592556,0,7,255,0,0,0,2,-127,28,9
True,13752750,7999.995,1082.2844,6867.4683,-21.418617,0.29116488,5.8478675,1.2259798,-0.17232838,21.520912,-0.040060673,-1.1282729,0.021236975,0.54012,0.0246844,-0.005440241,0.050263092,0.26039925,0.22487104,0.4471311,2.6123965,0.7547354,1.5639888,0.5474095,77.6461,71.07551,73.75032,71.26631,0,0,0,0,0,0,0,0,0,0,0,0,-2.4128425,-1.6214645,-1.0048987,-0.8144565,3.5561812,1.7885113,1.8590003,0.9813239,-0.062461704,-0.017776221,-0.033154517,0.016868472,59,3,32,2,4,601.4793,262.60114,2911.0076,21.556492,290497.25,404.16876,227.20282,206.73734,216.5858,216.5858,29.399952,1,1090.8668,0,0,13.295471,17.693298,0,7,255,0,0,0,2,-127,10,4
True,13752859,7999.995,1082.2844,6979.0693,-20.24423,-0.46675205,5.462414,1.4827423,-0.30571404,21.84101,-0.034286216,-1.1109998,0.02599262,0.42937604,0.020208344,-0.0031968274,0.028434044,0.21796939,0.21580435,0.43433535,2.6729465,0.80489665,1.5527132,0.540375,79.15102,72.26705,74.861176,72.23245,0,0,0,0,0,0,0,0,0,0,0,0,-2.4977763,-1.6547259,-1.0427005,-0.8255529,3.6583507,1.8401023,1.8703322,0.98668265,-0.067103654,-0.026798934,-0.035195112,0.013988599,59,3,32,2,4,602.57605,262.5325,2912.8574,21.893414,279902.56,382.86246,230.28857,208.605,216.52336,216.52336,29.399952,1,1096.8251,0,0,13.394594,17.79242,0,7,255,0,0,0,2,-127,248,9
True,13752968,7999.995,1082.2844,5896.3237,-16.8616,-0.31120136,-11.985394,2.3115458,-0.41585147,17.802948,-0.034308504,-1.1534324,-0.02433177,0.28586814,0.013032535,-0.0074812565,0.020477468,0.22065699,0.24952592,0.500963,3.4201858,1.0049461,2.0802112,0.59977335,67.43358,60.55387,63.91257,60.30005,0,0,0,0,0,0,0,0,0,0,0,0,-2.854516,-1.9336452,-1.6713767,-1.1982124,4.4548774,2.1791973,2.6684787,1.3399407,-0.06879562,-0.026227415,-0.027605563,0.02898416,59,3,32,2,4,603.5964,262.45193,2914.9072,17.9572,183533.44,296.97415,234.75305,212.45421,219.25784,219.25784,28.120914,1,1101.4266,0,0,13.518391,17.916216,0,7,255,0,0,0,2,-127,229,0
True,13753078,7999.995,1082.2844,5771.8833,-17.466896,0.5716685,2.3573425,2.693135,-0.3761989,17.875397,0.006219756,-1.1166167,-0.09514288,0.1709058,0.010628856,-0.014364207,0.02237506,0.25156885,0.33616334,0.5958968,3.2814665,0.72373784,1.7452898,0.51670814,66.4191,58.532513,62.209885,59.71594,0,0,0,0,0,0,0,0,0,0,0,0,-3.0276797,-1.8562012,-1.7362777,-1.260003,4.464848,1.992305,2.4618483,1.3618351,-0.0683921,-0.019654006,-0.0081065,0.050350443,59,3,32,2,4,604.2538,262.3856,2916.6123,18.081047,242927.05,401.89258,238.22043,216.55313,221.07452,221.07452,29.124413,1,1105.7439,0,0,13.619824,18.01765,0,7,255,0,0,0,2,-127,214,0
True,13753187,7999.995,1082.2844,5792.727,-15.870581,0.4413189,3.0259213,3.0908055,-0.23786369,17.805477,0.045762215,-1.0830834,-0.030585129,0.06269335,0.012045313,-0.022248084,0.02836285,0.31667662,0.31387314,0.6059902,3.4345207,0.769969,1.9173712,0.61610395,66.448,58.259808,62.907722,60.153446,0,0,0,0,0,0,0,0,0,0,0,0,-3.249321,-1.973194,-1.9276876,-1.417228,4.7280035,2.1180997,2.718877,1.5453541,-0.067118794,-0.0058088303,-0.013123244,0.05262211,59,3,32,2,4,604.7441,262.33002,2918.338,18.073315,223768.92,368.80466,241.45999,221.13736,222.77115,222.77115,29.339794,1,1110.197,0,0,13.719194,18.11702,0,7,255,0,0,0,2,-127,201,0
True,13753296,7999.995,1082.2844,5843.0137,-13.689717,-0.5021672,3.289461,3.5818787,-0.18055406,17.716425,0.07776577,-1.0567099,0.015163166,-0.067004986,0.015427892,-0.025954308,0.03092488,0.27051646,0.2775876,0.6128228,3.563991,1.1162457,2.115337,0.6523199,66.24787,59.707733,63.760147,60.204105,0,0,0,0,0,0,0,0,0,0,0,0,-3.4955113,-2.371872,-2.1832304,-1.553661,4.992057,2.6214082,3.039925,1.685047,-0.06657398,-0.015624791,-0.021289855,0.054159895,59,3,32,2,4,605.1332,262.26767,2920.4695,18.075788,205362.31,335.67703,245.19487,227.02686,225.31854,225.31854,29.390419,1,1115.803,0,0,13.839226,18.237051,0,7,255,0,0,0,2,-127,187,0
True,13753421,7999.995,1082.2844,5860.0845,-13.046437,-0.7192884,4.028462,4.0532384,-0.1405029,17.664948,0.059995376,-1.0663491,0.010977484,-0.19063936,0.020364296,-0.026491882,0.02752463,0.29446483,0.26582122,0.54799354,3.7459233,1.1368352,2.1181452,0.7972727,66.42765,59.429356,63.740658,61.052345,0,0,0,0,0,0,0,0,0,0,0,0,-3.7097259,-2.4638615,-2.3512306,-1.7856146,5.272002,2.7134862,3.1646209,1.9555212,-0.06729704,-0.0105321705,-0.02393806,0.039569095,59,3,32,2,4,605.3061,262.2014,2922.5664,18.124537,214582.16,349.81662,248.65137,233.72672,228.367,228.367,29.398388,1,1121.4204,0,0,13.955682,18.353506,0,7,255,0,0,0,2,-127,174,0
True,13753515,7999.995,1082.2844,5880.658,-15.176166,-0.49319595,5.649109,4.4730844,-0.12613964,17.640718,0.020006202,-1.096427,0.012033115,-0.29560214,0.02160634,-0.026659865,0.055445876,0.37150577,0.26207715,0.5568484,4.01443,1.0592108,2.1364377,0.7730541,67.36765,59.052116,63.997368,61.11288,0,0,0,0,0,0,0,0,0,0,0,0,-3.8905241,-2.4257247,-2.490759,-1.7875689,5.5903335,2.6468978,3.2815006,1.9475665,-0.061359584,0.005850598,-0.02478072,0.04156202,59,3,32,2,4,605.2954,262.1403,2924.3284,18.199432,223804.64,363.27563,251.42575,240.15274,231.3587,231.3587,29.399632,1,1126.2173,0,0,14.052756,18.450579,0,7,255,0,0,0,2,-127,165,0
True,13753625,7999.995,1082.2844,5895.883,-16.701693,0.023455162,5.3025002,4.7297387,-0.053714156,17.615902,0.040612064,-1.0581018,0.018002592,-0.39848322,0.021659793,-0.028360955,0.08056502,0.39262348,0.2793032,0.5994304,3.9657407,1.2583026,2.2164514,0.8369696,66.74962,59.770123,64.297005,61.36445,0,0,0,0,0,0,0,0,0,0,0,0,-3.9944596,-2.6645167,-2.6151464,-1.9429362,5.6287484,2.9466887,3.4280677,2.1155422,-0.056017995,0.010341287,-0.020903736,0.051145732,59,3,32,2,4,605.1308,262.08417,2926.0608,18.239882,220434.55,357.11816,254.08798,246.40564,234.47766,234.47766,29.39991,1,1131.0084,0,0,14.148358,18.54618,0,7,255,0,0,0,2,-127,157,0
True,13753734,7999.995,1082.2844,5870.202,-14.827827,0.3066587,4.9927397,4.967699,0.06556231,17.56259,0.05019319,-1.032286,0.0012388574,-0.5246173,0.021817805,-0.03109097,0.08530914,0.3919412,0.29991937,0.60971856,4.0823593,1.3035923,2.234989,0.7406284,66.73496,59.580208,64.160194,60.60742,0,0,0,0,0,0,0,0,0,0,0,0,-4.14639,-2.7619839,-2.7134018,-1.9050014,5.8187804,3.0541623,3.5153556,2.043908,-0.055009156,0.010196194,-0.016263753,0.05346124,59,3,32,2,4,604.7131,262.0227,2928.1912,18.251764,221267.4,360.059,257.30627,254.41852,238.50577,238.50577,29.399952,1,1137.004,0,0,14.267421,18.665243,0,7,255,0,0,0,2,-127,150,0
True,13753859,7999.995,1082.2844,5879.0894,-15.404489,-0.21160422,6.014946,5.321645,0.106086075,17.448109,0.04254438,-1.0330893,0.011276191,-0.6501064,0.02301041,-0.032065097,0.09310721,0.39655975,0.27489042,0.5865923,4.121003,1.3678114,2.2744725,0.7908139,66.91634,59.806618,64.06589,60.674065,0,0,0,0,0,0,0,0,0,0,0,0,-4.125028,-2.850815,-2.8478417,-2.0083287,5.830826,3.1619701,3.6446438,2.1584184,-0.053350896,0.01117833,-0.021896899,0.048256338,59,3,32,2,4,604.0573,261.9656,2930.2986,18.241919,220022.97,357.46237,260.42426,261.96613,242.62064,242.62064,29.399952,1,1143.053,0,0,14.38846,18.786282,0,7,255,0,0,0,2,-28,145,0
True,13753968,7999.995,1082.2844,6026.354,-14.029709,-0.5854157,6.739156,5.686225,0.10903114,17.46602,0.029121494,-1.0252221,0.037392557,-0.74846727,0.024812497,-0.03213483,0.09235616,0.40102196,0.2608675,0.56622344,2.977483,0.7627979,2.513025,1.1122414,68.31191,60.286594,66.00026,63.163002,0,0,0,0,0,0,0,0,0,0,0,0,-2.0106645,-1.4119041,-2.9226322,-2.2609987,3.5927951,1.6047847,3.8544877,2.519761,-0.053510606,0.012127221,-0.025052965,0.04367201,59,3,32,2,4,603.3761,261.91864,2931.9304,18.368639,262358.47,415.81436,262.63742,264.42834,245.93759,245.93759,29.399952,1,1143.733,0,0,14.485239,18.883059,0,7,255,0,0,0,2,0,144,0
True,13754062,7999.995,1082.2844,6108.156,-12.853736,-0.5144534,7.108536,6.0396333,0.076823294,17.580557,0.03020195,-1.0004094,0.03271171,-0.8478963,0.023526367,-0.032129116,0.09033776,0.39367482,0.26882124,0.586227,3.1005328,0.97161233,2.5657098,1.0030544,69.44912,62.057446,66.747696,63.006355,0,0,0,0,0,0,0,0,0,0,0,0,-2.1803935,-1.6013782,-3.0755215,-2.2084296,3.7904377,1.8730837,4.005209,2.4255471,-0.05393982,0.010564849,-0.023262858,0.048174113,59,3,32,2,4,602.5503,261.86847,2933.5295,18.589218,259092.23,405.29727,264.44452,263.2363,249.38545,249.38545,29.399952,1,1147.52,0,0,14.582648,18.980467,0,7,255,0,0,0,2,0,145,0
True,13754203,7999.995,1082.2844,6144.5776,-12.660708,-0.34946945,7.2938414,6.5003595,0.038369417,17.690285,0.025983348,-0.9737104,-0.009995862,-0.96614593,0.022536604,-0.03202167,0.09412706,0.3744129,0.31816888,0.6084148,3.196103,0.9133734,2.4210615,1.0030333,70.53562,62.135162,66.706024,63.441692,0,0,0,0,0,0,0,0,0,0,0,0,-2.3734558,-1.6617595,-3.09057,-2.2531078,3.9810007,1.8962319,3.9259598,2.466287,-0.053134024,0.0064688027,-0.012156427,0.05316782,59,3,32,2,4,601.35754,261.8006,2935.4146,18.846811,266238.1,413.7563,266.99792,262.82324,253.35333,253.35333,29.399952,1,1153.6122,0,0,14.701878,19.099695,0,7,255,0,0,0,2,0,148,0
True,13754296,7999.995,1082.2844,6254.5386,-12.911663,-0.7093296,8.077082,6.8692694,0.035452962,17.737164,0.053080563,-0.93811506,0.013190771,-1.063236,0.024498228,-0.03374137,0.07061611,0.32149163,0.31581053,0.5947626,3.2770977,1.0185935,2.5061462,1.2970881,71.415794,63.013138,67.63163,65.461205,0,0,0,0,0,0,0,0,0,0,0,0,-2.5400538,-1.7747695,-3.1790595,-2.5241842,4.146232,2.046299,4.048109,2.8379471,-0.058133632,-0.004784912,-0.012687206,0.050095186,59,3,32,2,4,600.1778,261.7395,2936.9468,19.02091,255142.02,389.49945,268.9845,263.10428,256.57498,256.57498,29.399952,1,1158.895,0,0,14.804101,19.20192,0,7,255,0,0,0,2,0,153,0
True,13754406,7999.995,1082.2844,6297.667,-10.558489,-1.4427035,8.237726,7.4238257,-0.013970673,17.893145,0.05078186,-0.86120903,0.09760893,-1.1738663,0.026970169,-0.033772405,0.05904948,0.29096058,0.2897233,0.5576536,2.242901,0.7453687,2.5514104,1.4653615,69.94499,63.94109,68.64489,66.83552,0,0,0,0,0,0,0,0,0,0,0,0,-0.38798812,0.24597321,-3.333085,-2.7723684,2.2762117,0.78490597,4.1975174,3.135811,-0.060593277,-0.011277348,-0.018558532,0.041743234,59,3,32,2,4,598.6177,261.66013,2938.643,19.372093,290142.84,440.19138,270.0006,261.05093,260.3081,260.3081,29.399952,1,1165.144,0,0,14.924493,19.322311,0,7,255,0,0,0,2,127,162,0
True,13754531,7999.995,1082.2844,6271.272,-3.6766071,-0.67335653,7.950137,8.51686,-0.18763193,18.055885,0.020184798,-0.5785373,0.14633629,-1.2571054,0.029020289,-0.01943861,0.10722943,0.28666633,0.34116855,0.52060264,1.126572,1.0145589,2.1921854,1.5456349,65.57511,66.91175,68.325615,67.42502,0,0,0,0,0,0,0,0,0,0,0,0,0.06753929,1.071842,-3.3116317,-2.960755,1.1285946,1.4758642,3.9714708,3.3399189,-0.050347805,-0.012190521,-0.006980002,0.033404365,59,3,32,2,4,596.9842,261.56305,2940.234,19.964643,324707.06,494.38644,266.79608,256.92352,264.58566,264.58566,29.399952,1,1171.2744,0,0,15.040501,19.43832,0,7,255,0,0,0,2,127,172,0
True,13754625,7999.995,1082.2844,6252.438,-2.6817198,-0.047114115,7.002304,9.060917,-0.29975086,18.36204,-0.035672877,-0.35069793,0.06629989,-1.3006759,0.027301084,-0.009470195,0.16788878,0.28176636,0.4359219,0.5027199,0.6739813,0.90913486,1.776431,1.5166657,64.59422,67.50349,67.691826,67.64238,0,0,0,0,0,0,0,0,0,0,0,0,0.032104604,1.0770739,-3.122282,-2.924282,0.6747455,1.4094731,3.5922627,3.294192,-0.037448585,-0.013232499,0.014345676,0.029379576,59,3,32,2,4,595.57697,261.47897,2941.5227,20.478148,346045.53,528.32367,262.80847,254.11679,268.16644,268.16644,29.399952,1,1176.3733,0,0,15.134925,19.532745,0,7,255,0,0,0,2,127,181,0
True,13754734,7999.995,1082.2844,6378.044,-2.8839197,0.39569655,6.6345553,9.067327,-0.31518805,18.952682,-0.031834744,-0.07661106,0.012609448,-1.3246609,0.023834134,-0.0073450864,0.2110897,0.26577023,0.45949197,0.52150244,0.49304634,0.9047912,1.7176998,1.475518,65.67513,68.949486,69.54725,68.632545,0,0,0,0,0,0,0,0,0,0,0,0,0.052246004,1.0582334,-3.04281,-2.8459063,0.49580675,1.392302,3.4941645,3.2056725,-0.0282619,-0.016634077,0.019650474,0.033606872,59,3,32,2,4,593.7804,261.3819,2943.063,21.012377,353864.6,530.1725,258.14038,250.62036,272.112,272.112,29.399952,1,1182.6471,0,0,15.249064,19.646887,0,7,255,0,0,0,2,127,193,0
True,13754859,7999.995,1082.2844,6521.27,-2.949541,0.4493683,6.0893445,8.549253,-0.2910687,19.765732,-0.020052925,0.19678746,0.023434348,-1.3173875,0.021379063,-0.00820079,0.21067388,0.2754376,0.45824724,0.52284056,0.42062852,0.88524604,1.4497411,1.4417999,67.63026,70.14043,70.86445,70.2954,0,0,0,0,0,0,0,0,0,0,0,0,0.23421532,1.1775936,-2.6671417,-2.591499,0.48144072,1.4732234,3.0356867,2.9655783,-0.028350323,-0.014578313,0.019370332,0.03390804,59,3,32,2,4,591.88245,261.29016,2944.5828,21.537376,358879.56,526.0896,253.74252,247.41022,275.27484,275.27484,29.399952,1,1189.0342,0,0,15.363394,19.761213,0,7,255,0,0,0,2,127,206,0
True,13754984,7999.995,1082.2844,6662.2954,-1.3223625,0.30906406,6.023478,7.572523,-0.34194374,20.70531,-0.014537659,0.46834347,0.0028587142,-1.2792585,0.018761871,-0.0058515826,0.21410708,0.26288375,0.47022206,0.49488238,0.48305508,1.0331287,1.1142515,1.1524717,70.53191,72.13956,71.90292,70.38814,0,0,0,0,0,0,0,0,0,0,0,0,0.5531079,1.4971635,-2.1609464,-2.0343761,0.73435044,1.8190255,2.4313052,2.3381355,-0.027620256,-0.017247885,0.022065446,0.027615622,59,3,32,2,4,589.9169,261.20096,2946.0842,22.04926,341686.1,490.06558,249.70055,245.10793,276.49097,276.49097,29.399952,1,1195.4865,0,0,15.476902,19.874722,0,7,255,0,0,0,2,127,221,0
