IsRaceOn,TimestampMS,EngineMaxRpm,EngineIdleRpm,CurrentEngineRpm,AccelerationX,AccelerationY,AccelerationZ,VelocityX,VelocityY,VelocityZ,AngularVelocityX,AngularVelocityY,AngularVelocityZ,Yaw,Pitch,Roll,NormalizedSuspensionTravelFrontLeft,NormalizedSuspensionTravelFrontRight,NormalizedSuspensionTravelRearLeft,NormalizedSuspensionTravelRearRight,TireSlipRatioFrontLeft,TireSlipRatioFrontRight,TireSlipRatioRearLeft,TireSlipRatioRearRight,WheelRotationSpeedFrontLeft,WheelRotationSpeedFrontRight,WheelRotationSpeedRearLeft,WheelRotationSpeedRearRight,WheelOnRumbleStripFrontLeft,WheelOnRumbleStripFrontRight,WheelOnRumbleStripRearLeft,WheelOnRumbleStripRearRight,WheelInPuddleDepthFrontLeft,WheelInPuddleDepthFrontRight,WheelInPuddleDepthRearLeft,WheelInPuddleDepthRearRight,SurfaceRumbleFrontLeft,SurfaceRumbleFrontRight,SurfaceRumbleRearLeft,SurfaceRumbleRearRight,TireSlipAngleFrontLeft,TireSlipAngleFrontRight,TireSlipAngleRearLeft,TireSlipAngleRearRight,TireCombinedSlipFrontLeft,TireCombinedSlipFrontRight,TireCombinedSlipRearLeft,TireCombinedSlipRearRight,SuspensionTravelMetersFrontLeft,SuspensionTravelMetersFrontRight,SuspensionTravelMetersRearLeft,SuspensionTravelMetersRearRight,CarOrdinal,CarClass,CarPerformanceIndex,DrivetrainType,NumCylinders,PositionX,PositionY,PositionZ,Speed,Power,Torque,TireTempFl,TireTempFr,TireTempRl,TireTempRr,Boost,Fuel,Distance,BestLapTime,LastLapTime,CurrentLapTime,CurrentRaceTime,Lap,RacePosition,Accelerator,Brake,Clutch,Handbrake,Gear,Steer,NormalDrivingLine,NormalAiBrakeDifference
True,17746625,15999.99,0,2486.146,-0.049111977,0.15809157,-0.5433664,-0.0010251999,-0.0033651385,18.530107,-0.012169002,-0.00012421091,0.0062515982,2.152345,0.0015634923,-0.0008065375,0.26263985,0.27201074,0.2367272,0.2354624,-0.003414983,-0.0032561596,-0.0062467516,-0.0064353524,57.428318,57.42972,57.40963,57.40933,0,0,0,0,0,0,0,0,0,0,0,0,-0.0001293534,-0.0005115531,-0.0007355118,-9.342849E-05,0.0034174318,0.003296098,0.0062899035,0.0064360304,-0.0004492998,0.0007001944,-0.0007474795,-0.00089785457,164,6,231,2,0,-4505.6177,127.19583,-1982.8247,18.530107,-7894.812,-30.321438,155.89168,156.69809,166.97858,166.97858,0,1,0,0,0,0,511.18292,0,0,0,0,0,0,1,0,199,0
True,17748734,15999.99,0,2585.464,-4.0305476,0.092203304,2.1633868,-0.30762672,-0.01733191,18.738474,-0.022514163,-0.18040775,-0.020338478,2.1453543,-0.00047372945,-0.001303696,0.24638397,0.27539238,0.23617789,0.2520861,0.41158134,0.20148893,0.28255403,0.17959392,60.011093,59.690968,59.50477,59.762817,0,0,0,0,0,0,0,0,0,0,0,0,-0.89257854,-0.7615899,0.039320074,0.03775347,0.98290163,0.78779244,0.2852768,0.18351921,-0.0024433509,0.0011150092,-0.00081278756,0.0010785796,164,6,231,2,0,-4502.7725,127.19263,-1984.6761,18.741005,182036.12,673.144,155.56287,156.33475,166.55777,166.55777,0,1,0,0,0,0,513.28406,0,0,255,0,0,0,1,-127,175,0
True,17748843,15999.99,0,2858.9077,-6.4122276,-0.008480175,8.874193,-0.3078308,-0.085834004,19.884018,-0.020644188,-0.48158514,-0.013112755,2.102053,-0.0040502353,-0.0027300906,0.21112333,0.25776395,0.25500402,0.2926508,1.4515203,0.54117393,0.67882264,0.32271174,68.97166,66.13687,65.15077,65.245384,0,0,0,0,0,0,0,0,0,0,0,0,-1.4102827,-1.1399162,-0.12358563,-0.112955675,2.0238104,1.261855,0.68998086,0.34190914,-0.006768644,-0.0010474101,0.001425501,0.0059014186,164,6,231,2,0,-4500.6494,127.19174,-1985.9395,19.886587,316309.53,1058.11,156.10477,156.40309,166.33565,166.33565,0,1,0,0,0,0,513.4122,0,0,255,0,0,0,1,-127,159,0
True,17748953,15999.99,0,2998.8945,-8.33466,-0.18868822,8.934158,-0.054410934,-0.133949,20.805664,0.024575645,-0.6047412,-0.05510375,2.0446122,-0.0052755745,-0.0047269184,0.17832716,0.14585094,0.26261735,0.31234935,1.3532403,1.1303823,0.7418693,0.23637854,70.645454,72.98901,68.00565,67.74217,0,0,0,0,0,0,0,0,0,0.120000005,0,0,-1.5568467,-1.4365753,-0.29664296,-0.25178528,2.0627728,1.8279805,0.79897875,0.3453558,-0.010791635,-0.014775375,0.0023306683,0.008243434,164,6,231,2,0,-4498.8296,127.191956,-1986.9167,20.806166,207121.56,659.5907,156.79749,156.54665,166.1787,166.1787,0,1,0,0,0,0,513.5137,0,0,255,0,0,0,1,-127,146,0
True,17749062,15999.99,0,3120.098,-10.854168,-0.4526509,7.7038608,0.20692587,-0.04658565,21.531069,0.060408007,-0.7366246,-0.11754441,1.9753581,0.0022781983,-0.014358793,0.20837012,0.044552606,0.21672897,0.2241552,0.77813005,0.5397755,1.2251284,0.4399332,69.595116,71.55667,73.14644,72.57008,0,0,0,0,0,0,0,0,0,0.120000005,0,0.120000005,-1.5107508,-1.2720957,-0.48513988,-0.42315328,1.6993688,1.3818773,1.3176875,0.6104096,-0.007106371,-0.027201276,-0.00312512,-0.0022421964,164,6,231,2,0,-4496.7593,127.18246,-1987.9016,21.53211,278976.72,857.1884,157.43619,157.13466,166.07864,166.07864,0,1,0,0,0,0,513.62195,0,0,255,0,0,0,1,-127,134,0
True,17749171,15999.99,0,3181.462,-10.940821,-1.5817659,5.5895953,0.7505088,-0.15877101,22.074923,0.045512035,-0.76074725,-0.20297053,1.8889291,0.0024709436,-0.035252046,0.21685041,0.09033212,0.21288566,0.16349329,1.2712877,0.35972708,1.1154685,0.3028488,74.23828,72.26145,74.34471,72.84671,0,0,0,0,0,0,0,0,0,0.120000005,0,0.120000005,-1.7996868,-1.3621124,-0.69332516,-0.5229071,2.2034166,1.4088129,1.3133811,0.60427576,-0.006066125,-0.021585668,-0.0035820603,-0.009454448,164,6,231,2,0,-4494.494,127.16096,-1988.8147,22.088245,272101,816.96234,158.13861,157.65015,166.0264,166.0264,-11.76,1,0,0,0,0,513.73395,0,0,255,0,0,0,1,-127,129,0
True,17749296,15999.99,0,3245.7942,-14.621254,-0.39270145,4.93618,1.053875,-0.10992879,22.598677,-0.028176092,-0.8413829,-0.10879896,1.786739,-0.0029000342,-0.05037298,0.24520837,0.34684065,0.2453731,0.22362085,2.1193213,0.40439796,0.7168004,0.1882619,80.38752,74.27669,73.491974,73.86234,0,0,0,0,0,0,0,0,0,0.120000005,0,0.120000005,-2.0317857,-1.6584389,-0.8005714,-0.64995205,2.9359286,1.7070317,1.0745778,0.67666847,-0.0025875568,0.00987931,0.00028045475,-0.0023057275,164,6,231,2,0,-4491.8364,127.14663,-1989.6475,22.623503,188269.06,554.1749,159.02486,158.17937,166.05263,166.05263,-11.76,1,0,0,0,0,513.8584,0,0,255,0,0,0,1,-127,129,0
True,17749406,15999.99,0,3387.4783,-13.623989,0.6703016,7.4746466,1.3523624,0.06057383,23.251966,0.022959763,-0.6883302,0.07147144,1.7056307,-0.0040116995,-0.04855721,0.18224303,0.42600024,0.24127565,0.41033185,1.5620499,0.31919512,0.91503793,0.5873109,81.19561,76.091736,77.341705,78.67751,0,0,0,0,0,0,0,0,0,0.120000005,0,0.120000005,-0.17882392,-0.1660038,-0.8418681,-0.8674172,1.5722524,0.35978156,1.2433971,1.0475432,-0.010311287,0.019589528,-0.00020670146,0.019892827,164,6,231,2,0,-4489.4814,127.15117,-1990.1791,23.291338,200662.03,566.2601,159.47466,158.18968,166.01828,166.01828,-11.76,1,0,0,0,0,513.9637,0,0,255,0,0,0,1,0,129,0
True,17749500,15999.99,0,3529.2856,-12.8375845,-0.35353857,6.923933,1.5874211,0.051795855,23.796227,0.030608758,-0.5442766,0.1464784,1.6434357,-0.0004814297,-0.040058248,0.10562682,0.3337983,0.1627887,0.411195,0.20037183,0.19953144,1.7452056,1.1589135,74.072014,76.944664,85.08255,84.42043,0,0,0,0,0,0,0,0,0.120000005,0.120000005,0,0.120000005,-0.10138226,-0.10022462,-0.9566256,-0.87297064,0.22456008,0.22328852,1.9901948,1.4509164,-0.019709522,0.00827945,-0.009538218,0.019995451,164,6,231,2,0,-4487.068,127.1502,-1990.5864,23.849173,302833.53,822.3848,159.78363,157.89185,166.13657,166.13657,-11.76,1,0,0,0,0,514.06757,0,0,255,0,0,0,1,18,129,0
True,17749625,15999.99,0,3514.7073,-6.0360575,1.0834291,7.0208945,2.379593,-0.22906986,24.54514,0.01986886,-0.27274993,0.105409846,1.5940995,-0.011837569,-0.026944168,0.11204787,0.17228167,0.09695687,0.4315128,0.4852191,0.66561794,0.7532506,0.36207098,80.625336,80.98434,81.981804,80.75462,0,0,0,0,0,0,0,0,0.120000005,0.120000005,0.120000005,0.120000005,0.63907427,0.67214876,-0.94481474,-0.75774133,0.8024048,0.94595516,1.2083299,0.83980197,-0.018921874,-0.011533214,-0.017365135,0.022411086,164,6,231,2,0,-4484.1787,127.135765,-1990.9805,24.661282,403001.4,1096.526,159.48491,158.18304,166.16106,166.16106,-11.76,1,0,0,0,0,514.1876,0,0,255,0,0,0,1,127,129,0
True,17749734,15999.99,0,3666.8398,-1.8188673,1.3775568,8.022796,2.6357334,-0.22255301,25.295116,-0.06532711,-0.016261313,0.102279894,1.5794486,-0.015114612,-0.014813722,0.18496998,0.36526978,0.34866428,0.26170912,1.7212296,0.14945972,0.729997,0.42146924,92.38577,80.47233,85.194336,82.28577,0,0,0,0,0,0,0,0,0.120000005,0.120000005,0.120000005,0.120000005,0.23684154,0.3098956,-0.9717271,-0.772389,1.7374479,0.3440545,1.2153802,0.8798983,-0.009976782,0.0121399425,0.012561012,0.002222687,164,6,231,2,0,-4481.5796,127.140785,-1991.2849,25.433039,310037.44,809.30206,159.40991,157.88786,166.20763,166.20763,-11.76,1,0,0,0,0,514.29205,0,0,255,0,0,0,1,8,129,0
True,17749828,15999.99,0,3775.975,-11.907338,0.19269735,8.075051,0.96862483,-0.13038807,26.180067,0.087125085,0.10631429,0.121778294,1.5881441,-0.010477812,-0.0096656475,0.13479039,0.2676394,0.30111358,0.44671282,1.8717984,0.26824108,0.5204004,0.5387555,96.18641,83.440956,85.649,85.93717,0,0,0,0,0,0,0,0,0.120000005,0.120000005,0.120000005,0.120000005,-0.4408041,-0.4202172,-0.29950902,-0.28982416,1.9230022,0.4985336,0.600435,0.61176425,-0.016132133,0.0001639761,0.0069075823,0.024218254,164,6,231,2,0,-4478.871,127.15841,-1991.5052,26.198301,257601.42,652.44635,159.28549,157.8907,166.06923,166.06923,-11.76,1,0,0,0,0,514.3973,0,0,255,0,0,0,1,0,129,0
True,17749937,15999.99,0,3924.4866,-6.023577,-0.5231613,8.015973,0.17458826,-0.29568875,27.04782,-0.079540096,0.028083246,0.09068189,1.5974989,-0.012696274,-0.009341175,0.27940854,0.23920038,0.21593772,0.3917061,0.20885047,1.5594404,0.90727115,0.5156612,86.16716,96.35331,91.26227,89.32872,0,0,0,0,0,0,0,0,0.120000005,0.120000005,0.120000005,0.120000005,-0.13986614,-0.13271493,-0.06414222,-0.04381427,0.25135842,1.5650774,0.90953565,0.51751924,0.0016076565,-0.0033245347,-0.0032191947,0.017678365,164,6,231,2,0,-4476.1,127.16733,-1991.6194,27.049997,245996.48,598.6089,159.1756,157.62106,165.87988,165.87988,-10.834646,1,0,0,0,0,514.5013,0,0,255,0,0,0,1,-6,129,0
True,17750062,15999.99,0,4103.6445,-5.7775965,0.87331235,9.900269,-0.23592925,-0.20152444,28.391182,-0.059556186,-0.19641884,-0.03824609,1.589748,-0.015605679,-0.012655087,0.44812936,0.29036006,0.31935465,0.3570837,0.3091171,1.1262337,1.2809608,0.2512056,90.44859,98.747795,98.21994,91.51109,0,0,0,0,0,0,0,0,0,0.120000005,0.120000005,0.120000005,-0.6275278,-0.6743154,-0.0028622411,0.0040260153,0.6995316,1.3126704,1.280964,0.25123787,0.022304028,0.0029510371,0.009076312,0.01356202,164,6,231,2,0,-4472.7056,127.18847,-1991.6975,28.39288,306933.44,714.47314,158.57898,157.38844,165.5618,165.5618,-11.344898,1,0,0,0,0,514.6234,0,0,255,0,0,0,1,-127,129,0
True,17750156,15999.99,0,4185.7236,-5.9737387,-0.4732437,9.352223,0.078469455,-0.16456811,29.355888,0.071217805,-0.4152283,-0.14802955,1.5555943,-0.0143287005,-0.023459936,0.3396924,0.23976228,0.45227948,0.36792925,1.081292,0.5334885,0.6626022,0.3721368,99.511284,96.292496,96.551544,95.44751,0,0,0,0,0,0,0,0,0,0.120000005,0,0.120000005,-0.7861493,-0.65836895,-0.18011074,-0.14064634,1.3368707,0.84738404,0.68664515,0.3978281,0.009002462,-0.0032556094,0.024880089,0.014851473,164,6,231,2,0,-4469.6636,127.219124,-1991.6927,29.356455,317600.75,722.816,158.24771,157.33774,165.07327,165.07327,-11.631669,1,0,0,0,0,514.72876,0,0,255,0,0,0,1,-3,129,0
True,17750265,15999.99,0,4318.9995,-4.714553,-0.9804434,10.572066,0.6810103,-0.11561974,30.498379,-0.044221245,-0.27327192,-0.029655006,1.5168387,-0.011071196,-0.030246304,0.28523102,0.2780901,0.36623043,0.31497884,0.88531685,0.16003983,0.53777105,0.42695853,102.73918,97.191666,99.58102,99.67117,0,0,0,0,0,0,0,0,0,0.120000005,0,0.120000005,-0.0941814,-0.07599849,-0.2761917,-0.26997885,0.8903123,0.17716804,0.60454905,0.5051556,0.0023218766,0.0014459267,0.0146494955,0.008556064,164,6,231,2,0,-4466.521,127.242905,-1991.6201,30.506199,499906.1,1104.7863,157.86961,157.10742,164.72888,164.72888,-7.5617604,1,0,0,0,0,514.8338,0,0,255,0,0,0,1,0,129,0
True,17750375,15999.99,0,4460.2676,-7.270218,0.5337534,12.203894,0.47008264,-0.084787495,31.580383,-0.00033954857,-0.09135465,0.04801497,1.5013052,-0.011094935,-0.03278261,0.2394701,0.26212603,0.3355052,0.38249165,0.35259712,0.24631813,0.5259577,0.48665327,101.35818,100.77962,103.22847,104.88414,0,0,0,0,0,0,0,0,0,0.120000005,0,0.120000005,-0.101353385,-0.09532882,-0.16621387,-0.16807683,0.36687493,0.26412156,0.55159634,0.5148604,-0.0032914504,-0.000512328,0.010996491,0.016582832,164,6,231,2,0,-4463.6333,127.25985,-1991.4934,31.583996,662065.9,1424.6201,157.57922,156.87918,164.40224,164.40224,0,1,0,0,0,0,514.92694,0,0,255,0,0,0,1,0,130,0
True,17750484,15999.99,0,4669.1006,-1.6445787,1.2972955,10.598191,0.35059977,-0.13390177,32.907898,-0.02800784,0.098428525,0.05215641,1.4999274,-0.013774973,-0.030992815,0.24021879,0.2862914,0.3170654,0.39090335,0.28560296,0.7987942,0.37724245,0.51026285,105.54231,111.19571,106.87832,108.200554,0,0,0,0,0,0,0,0,0,0.120000005,0,0.120000005,0.23319024,0.27411884,-0.06523374,-0.067281626,0.36870956,0.84451956,0.38284108,0.5146795,-0.0031996109,0.0024519488,0.008804135,0.017582923,164,6,231,2,0,-4459.94,127.28443,-1991.2722,32.910034,688946.2,1416.8643,157.17152,156.6322,164.00871,164.00871,0,1,0,0,0,0,515.04175,0,0,255,0,0,0,1,127,140,0
True,17750609,15999.99,0,4821.9946,4.829689,0.5544024,10.431364,-0.039767742,-0.2863708,34.198822,-0.0046578688,0.38736644,0.12196413,1.532171,-0.018743884,-0.021986607,0.23157577,0.41663057,0.3751611,0.33839047,0.61039376,0.5171596,0.2640439,0.4912016,113.28358,110.74867,110.24427,111.77106,0,0,0,0,0,0,0,0,0,0,0,0,0.6218891,0.66149634,0.09982023,0.12595774,0.8713935,0.8396615,0.28228223,0.507094,-0.0042598173,0.018440187,0.015711285,0.011339534,164,6,231,2,0,-4455.734,127.32275,-1991.0569,34.20004,587193.94,1166.2244,156.80307,156.12279,163.48618,163.48618,0,1,0,0,0,0,515.1673,0,0,255,0,0,0,1,127,151,0
True,17750718,15999.99,0,4998.3286,5.8484726,-0.8321906,10.731054,-0.7563493,-0.24506208,35.320484,0.03764608,0.30385926,0.10032714,1.5736277,-0.01450423,-0.008415753,0.19304867,0.29401773,0.34097943,0.44851866,0.25472602,0.6268302,0.42424527,0.6110195,113.35602,115.76186,115.69329,116.12115,0,0,0,0,0,0,0,0,0,0,0,0,0.071104005,0.079535745,0.25184515,0.28197998,0.26446384,0.631856,0.493366,0.6729469,-0.008985799,0.003399711,0.011647336,0.024432957,164,6,231,2,0,-4452.0215,127.358246,-1990.9523,35.329433,581643.56,1111.9944,156.5691,155.83286,163.07314,163.07314,0,1,0,0,0,0,515.2741,0,0,255,0,0,0,1,0,159,0
True,17750812,15999.99,0,4973.6597,7.7356067,-0.3896517,9.534982,-0.63658667,-0.2314263,36.314228,0.008707076,0.08984046,0.052301466,1.5944946,-0.012934882,-0.00058623985,0.23101376,0.25327644,0.31584948,0.35134476,0.11892333,0.20467481,0.16202244,0.22426097,114.29358,114.75295,114.95128,115.14607,0,0,0,0,0,0,0,0,0,0,0,0,0.11562529,0.12560785,0.16248329,0.17881903,0.16586731,0.24014394,0.22946043,0.28682613,-0.0043287575,-0.0015978739,0.008659571,0.0128796995,164,6,231,2,0,-4448.1284,127.38452,-1990.9283,36.32055,327047.88,628.0001,156.20096,155.51198,162.69409,162.69409,0,1,0,0,0,0,515.3827,0,0,0,0,0,0,1,0,166,0
True,17750921,15999.99,0,4892.114,5.004962,-0.2842351,2.2059839,-0.21999508,-0.13940142,36.50025,0.04463297,3.2511E-05,0.0054239784,1.5977439,-0.009825569,0.0021113378,0.26223114,0.24819759,0.31578243,0.30914912,-0.0055054994,-0.0070332144,-0.010577361,-0.012664375,113.03563,113.01808,112.967964,112.94446,0,0,0,0,0,0,0,0,0,0,0,0,0.05091468,0.053774748,0.050623633,0.053566646,0.051211473,0.054232735,0.051716853,0.055043362,-0.00049943477,-0.0022208802,0.008651599,0.007862952,164,6,231,2,0,-4444.2285,127.409706,-1990.987,36.50118,-30570.219,-59.66617,155.7898,155.1547,162.23865,162.23865,0,1,0,0,0,0,515.48956,0,0,0,0,0,0,1,0,171,0
True,17751031,15999.99,0,4873.0337,1.86086,-0.5463023,-0.7929018,-0.04763502,-0.047145393,36.35521,0.028077032,-0.0058130724,-0.011121266,1.5972376,-0.0054956377,0.0015471154,0.28131714,0.26223844,0.29013747,0.27552465,-0.0057849525,-0.0061494587,-0.012305994,-0.012701741,112.58241,112.606766,112.49909,112.52294,0,0,0,0,0,0,0,0,0,0,0,0,0.013764938,0.014384611,0.010920031,0.010504489,0.014931149,0.01564394,0.016452493,0.016482674,0.0018417761,-0.000498537,0.0056026094,0.0038652495,164,6,231,2,0,-4440.303,127.42944,-1991.0796,36.35527,-30331.268,-59.432526,155.36002,154.77876,161.80455,161.80455,0,1,0,0,0,0,515.59735,0,0,0,0,0,0,1,0,176,0
True,17751140,15999.99,0,4856.0166,0.46084458,0.5751497,-1.4059079,0.00086569786,-0.008136888,36.204643,-0.035146143,-0.0026623486,-0.01566825,1.596782,-0.0062420904,2.0161724E-05,0.321814,0.301511,0.27646753,0.26510966,-0.0051182825,-0.005182765,-0.010472056,-0.01039371,112.184654,112.19728,112.11686,112.13071,0,0,0,0,0,0,0,0,0,0,0,0,0.0020312397,0.0014568638,0.00036598253,8.670323E-05,0.0055066096,0.005383633,0.01047845,0.010394071,0.00680938,0.004318882,0.0039773546,0.002626989,164,6,231,2,0,-4436.3545,127.44779,-1991.1813,36.204647,-30119.836,-59.225018,154.90775,154.37541,161.38976,161.38976,0,1,0,0,0,0,515.7063,0,0,0,0,0,0,1,0,180,0
True,17751250,15999.99,0,4833.57,0.11312789,0.54896975,-0.97884595,0.006590247,-0.0017492819,36.054115,0.021611992,-0.0007050472,-0.0034607216,1.5966121,-0.008210138,-0.0011611193,0.31738174,0.30824158,0.29586062,0.2837302,-0.0066903234,-0.006121576,-0.010025015,-0.010400776,111.65743,111.66766,111.61106,111.61051,0,0,0,0,0,0,0,0,0,0,0,0,-0.0015598015,-0.0007368661,-0.0012219541,-0.0019326104,0.006869746,0.0061657657,0.010099213,0.010578806,0.0062656887,0.0051444992,0.0062830485,0.004840832,164,6,231,2,0,-4432.4033,127.478004,-1991.284,36.054115,-29843.89,-58.953094,154.46738,153.97148,160.94177,160.94177,0,1,0,0,0,0,515.8157,0,0,0,0,0,0,1,0,184,0
True,17751359,15999.99,0,4813.963,0.048219725,-0.5591305,-1.3730752,0.0020779967,0.009643001,35.90752,0.005434649,-0.00026364162,0.009120423,1.5965679,-0.005605928,-0.0006144348,0.2974075,0.3048915,0.27770844,0.27145258,-0.005915353,-0.006014537,-0.012406314,-0.012144902,111.22717,111.2269,111.14648,111.15077,0,0,0,0,0,0,0,0,0,0,0,0,-0.0010997386,-0.0010040085,-0.00093581784,-0.0014472188,0.006016712,0.006097761,0.012441559,0.012230825,0.0038155243,0.0047335587,0.004124891,0.0033811145,164,6,231,2,0,-4428.4766,127.50528,-1991.3859,35.907524,-29600.248,-58.71196,154.06857,153.58253,160.52185,160.52185,0,1,0,0,0,0,515.92487,0,0,0,0,0,0,1,0,188,0
True,17751468,15999.99,0,4793.5596,-1.0881603,-0.43062884,-1.3074619,-0.060750663,-0.0014160597,35.760662,0.023948427,-0.058974493,-0.017257642,1.5952308,-0.004804225,-0.00068104215,0.30214572,0.30375817,0.27027345,0.27783367,-0.005665139,-0.0071348175,-0.01049841,-0.011400298,110.59383,110.86387,110.556435,110.827576,0,0,0,0,0,0,0,0,0,0,0,0,-0.180302,-0.17303787,-0.0012690728,-0.0018098798,0.18039097,0.1731849,0.010574836,0.01154307,0.004396744,0.0045945384,0.0032409206,0.0041397735,164,6,231,2,0,-4424.554,127.5266,-1991.4846,35.76071,-29351.693,-58.46493,153.66525,153.19354,160.11707,160.11707,0,1,0,0,0,0,516.03436,0,0,0,0,0,0,1,-127,193,0
True,17751578,15999.99,0,4774.375,-1.8457376,-0.5530151,-1.3517721,0.14556289,0.010024253,35.609608,-0.002057963,-0.10160845,-0.002648689,1.5812624,-0.002617862,-0.0020436293,0.3030887,0.31255773,0.26791298,0.27652657,-0.006595936,-0.004886733,-0.011909023,-0.012344803,110.056015,110.57058,109.99034,110.477806,0,0,0,0,0,0,0,0,0,0,0,0,-0.00018132587,-0.0002655136,-0.06487324,-0.06432413,0.0065984284,0.004893941,0.06595728,0.065498,0.0045124143,0.005673945,0.0029602796,0.003984373,164,6,231,2,0,-4420.6304,127.5408,-1991.5527,35.609898,-29115.23,-58.22896,153.29,152.8221,159.71446,159.71446,0,1,0,0,0,0,516.14435,0,0,0,0,0,0,1,0,198,0
True,17751687,15999.99,0,4755.9673,-2.1055708,0.4640872,-0.98558134,0.12701486,-0.0014374806,35.462906,-0.017847795,-0.025190577,-0.00047938473,1.575006,-0.0047596013,-0.0021380882,0.3244381,0.33982867,0.28122598,0.29466593,-0.0059271134,-0.005285441,-0.010659771,-0.009409351,109.80862,109.93825,109.74967,109.8842,0,0,0,0,0,0,0,0,0,0,0,0,-0.022492226,-0.022241693,-0.03798822,-0.037668023,0.02326007,0.022861075,0.03945549,0.038825456,0.0071312673,0.009019174,0.004543096,0.0061410107,164,6,231,2,0,-4416.722,127.555176,-1991.596,35.463135,-28892.291,-58.00559,152.88217,152.41342,159.31445,159.31445,0,1,0,0,0,0,516.2543,0,0,0,0,0,0,1,0,203,0
True,17751796,15999.99,0,4802.6875,-1.2643744,0.04448044,-0.05093772,0.043979935,0.0018384047,35.43624,0.001783384,-0.0063902377,-0.0067066764,1.5738059,-0.004883642,-0.0025141605,0.3245795,0.32896388,0.29570237,0.31025186,0.06668337,0.06231459,0.09732696,0.094701774,110.66128,110.63713,111.06032,111.05943,0,0,0,0,0,0,0,0,0,0,0,0,-0.04709078,-0.046016287,-0.012133405,-0.011864494,0.08163463,0.07746358,0.09808036,0.09544209,0.007148616,0.0076864287,0.006264236,0.0079940595,164,6,231,2,0,-4412.869,127.574745,-1991.618,35.436264,169510.02,337.146,152.48868,152.02971,158.89738,158.89738,0,1,0,0,0,0,516.3631,0,0,205,0,0,0,1,-14,209,0
True,17751906,15999.99,0,5039.7305,-4.05799,-0.05686514,6.0042195,-0.0498313,-0.07477691,36.15582,-0.029153056,-0.21195428,-0.01845821,1.563601,-0.0068136547,-0.004173502,0.29843032,0.31892762,0.2970432,0.31270173,0.4437452,0.24855147,0.37945515,0.28497794,116.88528,115.705956,116.442795,116.439705,0,0,0,0,0,0,0,0,0,0,0,0,-0.42294365,-0.38258594,-0.04637815,-0.043629285,0.61301804,0.4562344,0.3822789,0.28829837,0.0039409883,0.006455317,0.0064236447,0.008285329,164,6,231,2,0,-4409.0454,127.59311,-1991.6136,36.15593,573242.75,1087.2029,152.16843,151.69476,158.52142,158.52142,-14.7,1,0,0,0,0,516.47015,0,0,255,0,0,0,1,-127,215,63
True,17752015,15999.99,0,5168.9277,-7.383088,-0.34956336,8.886376,0.3484975,-0.15577227,37.166534,0.0074256314,-0.40051436,-0.0129804155,1.5294573,-0.008252994,-0.005500942,0.21946007,0.2641108,0.31201985,0.344451,0.5776165,0.22350498,0.37811828,0.21244214,120.768326,118.84136,119.14581,119.13582,0,0,0,0,0,0,0,0,0,0,0,0,-0.66111726,-0.57739395,-0.19344832,-0.17416947,0.87790483,0.6191431,0.42473015,0.27471197,-0.005746007,-0.00026886165,0.008204263,0.012060083,164,6,231,2,0,-4405.127,127.61076,-1991.5366,37.168495,449692.2,831.18036,151.99521,151.44196,158.15935,158.15935,-14.7,1,0,0,0,0,516.57697,0,0,0,0,0,0,1,-127,223,127
True,17752140,15999.99,0,5054.044,-14.5674,0.91256815,3.4099834,0.8181274,-0.09434256,37.564766,-0.075120166,-0.6023033,-0.05394347,1.4693366,-0.009184457,-0.008785632,0.22194034,0.33023188,0.20721757,0.27574593,0.031048365,0.004401101,0.07060266,0.0028073853,115.034454,117.68571,115.848526,117.9829,0,0,0,0,0,0,0,0,0,0,0,0,-0.6761969,-0.55917203,-0.3729226,-0.31395692,0.6769093,0.5591894,0.37954712,0.31396946,-0.0054417625,0.007841971,-0.004255954,0.0038915612,164,6,231,2,0,-4400.4873,127.6294,-1991.2882,37.57379,4505.2056,8.508462,151.83383,151.1619,157.87808,157.87808,-14.7,1,0,0,0,0,516.701,0,0,0,0,0,0,1,-127,236,127
True,17752250,15999.99,0,4428.1763,-20.676817,5.3121886,-15.281034,1.2898479,0.22136,35.41707,-0.055136465,-0.7397235,-0.035476778,1.3964442,-0.018501332,-0.012516769,0.37634337,0.51712483,0.21950215,0.35831204,-1.1848121,-0.082332164,-0.8731676,-0.23059966,95.72517,109.631615,96.41257,107.675156,0,0,0,0,0,0,0,0,0,0,0,0,-0.7743589,-0.6501525,-0.5448692,-0.44247425,1.4154191,0.65534484,1.029225,0.4989586,0.013498299,0.030767448,-0.0027954094,0.013708059,164,6,231,2,0,-4396.607,127.68708,-1990.8684,35.441235,-25216.201,-54.189945,151.5473,150.80434,157.70338,157.70338,-14.7,1,0,0,0,0,516.80786,0,0,0,255,0,0,1,-127,252,254
True,17752343,15999.99,0,4079.4744,-16.625885,1.6115496,-15.3407955,2.4851007,0.29199576,33.485893,-0.0044315476,-0.82858986,0.003887571,1.3135076,-0.021636087,-0.011878931,0.39772177,0.5243645,0.20571922,0.36888605,-0.9582534,-0.18852365,-0.87580407,-1.0065838,91.13092,102.69712,89.01645,96.48946,0,0,0,0,0,0,0,0,0,0,0,0,-1.243978,-1.0488113,-0.9457228,-0.8471063,1.5702646,1.0656202,1.2889625,1.3155987,0.016120713,0.031655513,-0.0044340976,0.014965229,164,6,231,2,0,-4393.0034,127.79055,-1990.2775,33.579247,-21309.686,-49.815834,151.46843,150.47717,157.69453,157.69453,-14.7,1,0,0,0,0,516.91394,0,0,0,255,0,0,1,-127,16,253
True,17752453,15999.99,0,3925.111,-16.986673,1.3917457,-12.542733,3.7828674,0.3469234,31.798265,-0.121259026,-0.950326,-0.04621372,1.2225102,-0.024137754,-0.0094445115,0.56354594,0.6617891,0.26440203,0.38347995,-0.1812311,-0.927072,-1.4371331,-0.24289544,92.57216,91.526855,81.83449,97.94723,0,0,0,0,0,0,0,0,0,0,0,0,-1.372173,-1.2712785,-1.4888632,-1.1841111,1.3840894,1.5734076,2.0693152,1.2087669,0.036461763,0.0485129,0.002542857,0.016700339,164,6,231,2,0,-4389.6235,127.89369,-1989.5765,32.02437,-19528.342,-47.68827,151.60631,150.59198,158.06703,158.06703,-14.7,1,0,0,0,0,517.0192,0,0,0,255,0,0,1,-127,37,237
True,17752578,15999.99,0,3554.504,-18.047688,1.764105,-12.033419,5.3021436,0.2466664,29.673595,0.060966745,-0.8675885,-0.0034006108,1.1035147,-0.03614981,-0.009652706,0.3503012,0.43598408,0.34854233,0.47449404,-1.2932009,-0.49204648,-0.9823487,-0.98284715,75.70047,86.93765,80.106445,84.90604,0,0,0,0,0,0,0,0,0,0,0,0,-2.2976696,-1.9886272,-1.9730079,-1.6211911,2.636599,2.0485966,2.2040348,1.8958505,0.010303803,0.02081421,0.0125465095,0.027521238,164,6,231,2,0,-4385.9272,128.0419,-1988.5884,30.14458,-16046.405,-43.22826,152.47296,151.45117,158.89264,158.89264,-14.7,1,0,0,0,0,517.1426,0,0,0,255,0,0,1,-127,61,223
True,17752687,15999.99,0,3157.1934,-10.707451,-3.3617074,-7.230445,6.8465266,0.14712134,28.359238,0.14668445,-0.79937094,-0.00331676,1.015453,-0.027017243,-0.0066009345,0.21076821,0.26695028,0.20280987,0.29923832,-1.9827002,-1.3984873,-1.607977,-1.2705535,65.95427,74.3329,71.1616,77.66258,0,0,0,0,0,0,0,0,0,0,0,0,-2.850373,-2.7024913,-2.4886794,-2.1142766,3.4721355,3.0428977,2.9629571,2.4666722,-0.0068122074,7.944554E-05,-0.004779998,0.006684635,164,6,231,2,0,-4382.98,128.15738,-1987.6547,29.174356,-12655.518,-38.390064,153.86182,152.55084,160.07361,160.07361,-14.7,1,0,0,0,0,517.247,0,0,0,255,0,0,1,-127,75,208
True,17752781,15999.99,0,2863.6238,-9.527736,-3.896082,-6.414083,8.26556,0.1587724,26.980522,0.04911809,-0.88603806,-0.0065039927,0.9294509,-0.013686381,-0.007887951,0.20384094,0.29351687,0.11208226,0.1668239,-2.081875,-0.58770084,-2.8534393,-1.6236445,61.344383,77.34002,57.744354,71.05346,0,0,0,0,0,0,0,0,0,0,0,0,-3.3219006,-2.8150785,-3.2321904,-2.8628788,3.9203606,2.875771,4.311516,3.2912455,-0.00766195,0.0033382736,-0.015566839,-0.009058464,164,6,231,2,0,-4380.109,128.22787,-1986.6656,28.218666,-10488.164,-34.948505,155.8536,154.44435,161.7532,161.7532,-14.7,1,0,0,0,0,517.353,0,0,0,255,0,0,1,-127,76,139
True,17752890,15999.99,0,2733.8538,-10.495268,-2.251338,-6.5882406,9.691507,0.120187506,25.283468,0.06281201,-0.9206203,-0.05210793,0.8314255,-0.009070274,-0.010813547,0.17074646,0.20101313,0.1493613,0.19837841,-1.8648595,-0.84308183,-2.093812,-1.6953241,58.251713,69.95458,59.421566,65.80747,0,0,0,0,0,0,0,0,0,0,0,0,-3.9017253,-3.3736024,-3.823124,-3.3304622,4.324484,3.4773524,4.3589363,3.737125,-0.011721531,-0.0080088265,-0.0111346375,-0.005306866,164,6,231,2,0,-4377.315,128.26442,-1985.6189,27.077545,-9539.525,-33.330532,157.902,156.70901,163.6748,163.6748,-14.7,1,0,0,0,0,517.46094,0,0,0,255,0,0,1,-127,40,129
True,17753000,15999.99,0,2515.548,-10.988803,-2.171927,-6.0960655,10.981811,0.108587824,23.564207,0.054002594,-0.9418761,-0.048122667,0.73203504,-0.0035048875,-0.014434722,0.11515916,0.16015266,0.08552299,0.14061521,-2.3445482,-1.0475961,-2.351547,-1.3454471,50.271374,63.285297,53.432415,64.1829,0,0,0,0,0,0,0,0,0,0,0,0,-4.491406,-3.9695141,-4.5265546,-3.9548428,5.0665207,4.1054235,5.1009283,4.1774406,-0.018540224,-0.013021035,-0.01872454,-0.012174483,164,6,231,2,0,-4374.6895,128.279,-1984.5435,25.997765,-8101.7617,-30.71628,159.85556,159.01895,165.51193,165.51193,-14.7,1,0,0,0,0,517.56793,0,0,0,255,0,0,1,-127,242,129
True,17753109,15999.99,0,2328.886,-12.721111,-0.8466776,-6.0085845,12.035017,0.117525175,21.669579,0.0025713337,-1.0066469,-0.0011830563,0.6283455,-0.002947451,-0.017237391,0.15582676,0.24257328,0.062704034,0.15945321,-2.6178377,-0.86189306,-2.5818992,-0.8528601,43.847076,59.23231,47.29487,62.702232,0,0,0,0,0,0,0,0,0,0,0,0,-5.162305,-4.4676557,-5.1913147,-4.281499,5.788131,4.5500336,5.7979264,4.365616,-0.013551677,-0.0029107928,-0.021437544,-0.009934783,164,6,231,2,0,-4372.237,128.27734,-1983.4526,24.787617,-6953.7134,-28.456879,161.7076,161.30429,167.2856,167.2856,-14.7,1,0,0,0,0,517.6737,0,0,0,255,0,0,1,-127,185,129
True,17753234,15999.99,0,2060.1873,-13.91928,0.50421107,-5.8100824,12.927626,0.20254302,19.253654,-0.024056118,-1.0482305,0.08132001,0.5025251,-0.0043716733,-0.017288819,0.21007532,0.58134556,0.1134513,0.21230982,-3.026386,-0.5177064,-2.0768137,-1.2733533,36.13021,54.31312,44.444107,53.26382,0,0,0,0,0,0,0,0,0,0.120000005,0,0,-6.185604,-4.2838416,-5.7766542,-5.121974,6.8862696,4.315011,6.1386395,5.2778826,-0.0068972,0.038645178,-0.01540407,-0.0036505237,164,6,231,2,0,-4369.567,128.27632,-1982.1453,23.191973,-5442.061,-25.174484,163.77385,163.64896,169.27847,169.27847,-14.7,1,0,0,0,0,517.79767,0,0,0,255,0,0,1,-127,129,129
True,17753343,15999.99,0,1896.6838,-21.391674,9.347816,-8.634417,12.905072,0.40326133,16.700413,-0.47403675,-1.2102093,0.32586032,0.38305807,-0.028450401,0.0058776555,0.5004244,0.91389054,0.20800637,0.41823772,-1.351531,-0.43461516,-1.6374353,-0.9903502,37.974808,47.994186,40.113735,48.3776,0,0,0,0,0,0,0,0,0.120000005,0.120000005,0,0.120000005,-5.8908076,-4.2434936,-5.9224777,-5.131453,6.0438604,4.265692,6.144667,5.226146,0.028718874,0.07943727,-0.0041621737,0.020832777,164,6,231,2,0,-4367.4854,128.31514,-1981.0087,21.109411,-4579.7163,-23.093948,165.45926,167.32953,171.46213,171.46213,-14.7,1,0,0,0,0,517.9041,0,0,0,255,0,0,1,-127,129,129
True,17753453,15999.99,0,1798.137,-20.088625,4.1879473,-5.173873,12.605471,0.070842564,14.446231,0.0144658685,-1.0475591,0.14574605,0.25945652,-0.051739007,0.04094474,0.24575654,0.29649776,0.4169698,0.7733343,-0.048557088,-0.29865876,-0.21839726,-0.04633829,37.894745,39.02307,39.311462,47.061493,0,0,0,0,0,0,0,0,0.120000005,0.120000005,0.120000005,0.120000005,-2.687831,-2.4878554,-2.6017454,-2.3809698,2.6882694,2.5057178,2.6108956,2.3814206,-0.0025203153,0.0037039295,0.02068203,0.063051134,164,6,231,2,0,-4365.659,128.45297,-1979.8525,19.172806,-4117.1597,-21.896652,165.74577,167.55057,171.16794,171.16794,-11.76,1,0,0,0,0,518.0123,0,0,0,0,0,0,1,-127,129,0
True,17753562,15999.99,0,1757.8103,-8.764757,-4.696416,-1.0954888,13.189571,-0.09353059,12.968933,0.39540848,-0.88847095,-0.03697853,0.15462244,-0.01728551,0.044822507,0.06936392,0.06953589,0.21213257,0.26013792,0.54214984,0,0.23157808,0.046224028,37.360004,38.848515,41.06434,42.822205,0,0,0,0,0,0,0,0,0.120000005,0,0.120000005,0.120000005,-3.2174258,0,-2.868912,-2.7594311,3.2627833,0,2.8782432,2.7598183,-0.02415776,-0.024136666,-0.0036715977,0.0020358823,164,6,231,2,0,-4363.946,128.57793,-1978.6483,18.497751,-3956.3457,-21.464758,165.19513,166.56798,170.59015,170.59015,-11.76,1,0,0,0,0,518.1244,0,0,0,0,0,0,1,-127,129,0
True,17753671,15999.99,0,1633.9476,-5.3821387,-6.5735626,0.05033344,13.8388815,-0.054555893,11.615112,0.23341537,-0.9452532,0.03944984,0.058779765,0.026292244,0.021478122,0.03001047,0.24164599,0.06801564,0.05180934,1.3527285,0.31225765,0,0.1930737,31.481699,30.14317,41.93042,41.028164,0,0,0,0,0,0,0,0,0.120000005,0.120000005,0,0.120000005,-3.8866508,-3.2528234,0,-2.9445746,4.1153283,3.2677767,0,2.9508977,-0.028985105,-0.0030245408,-0.020806033,-0.022732843,164,6,231,2,0,-4362.3237,128.60158,-1977.4689,18.06733,-3431.8882,-19.991503,164.58344,165.3797,170.0055,170.0055,-11.76,1,0,0,0,0,518.23376,0,0,0,0,0,0,1,-127,129,0
True,17753781,15999.99,0,1606.7682,-17.574696,5.5876503,1.0112456,13.015892,0.22248048,10.084467,-0.22756776,-1.0918683,0.1914187,-0.0533394,0.02043256,0.043194145,0.3186357,0.59529185,0.08942242,0.30649883,2.1444824,1.0210961,0.90768015,0.39946613,32.694927,33.916084,39.027863,39.299732,0,0,0,0,0,0,0,0,0.120000005,0.120000005,0.120000005,0.120000005,-3.9216042,-3.452835,-3.3235679,-3.0527945,4.469651,3.6006536,3.4452846,3.0788193,0.0064195096,0.040355913,-0.018260926,0.0075478517,164,6,231,2,0,-4360.885,128.62383,-1976.3228,16.466919,61983.52,368.2979,164.36243,165.08548,169.3547,169.3547,-11.76,1,0,0,0,0,518.3403,0,0,211,0,0,0,1,-127,129,0
True,17753875,15999.99,0,1889.6055,-16.514925,4.812495,3.6043725,12.411716,0.29613698,8.850623,-0.20731273,-1.0803577,0.09738428,-0.17237408,-0.0028115066,0.052328527,0.22705686,0.3878127,0.25868028,0.2228491,4.692448,1.9438688,1.9746138,1.1920071,47.36589,36.90321,44.427746,44.479168,0,0,0,0,0,0,0,0,0.120000005,0.120000005,0.120000005,0.120000005,-4.1559715,-3.604532,-3.4402022,-3.14626,6.2682667,4.095275,3.966622,3.364496,-0.004814137,0.014905203,0.0018625818,-0.0023974814,164,6,231,2,0,-4359.659,128.70743,-1975.1748,15.24703,138415.77,703.2365,164.04938,164.74869,169.15634,169.15634,-11.76,1,0,0,0,0,518.4466,0,0,253,0,0,0,1,-127,129,0
True,17753984,15999.99,0,2113.7634,-13.70284,3.3796942,6.173387,11.874403,0.4179792,8.106367,-0.0024434607,-0.98876977,0.079328924,-0.28251246,-0.006967129,0.06295668,0.09783303,0.2768091,0.18800713,0.28618196,3.2838175,2.129873,3.084492,2.0095954,47.93333,47.148438,49.715744,49.296555,0,0,0,0,0,0,0,0,0.120000005,0.120000005,0.120000005,0.120000005,-3.3953,-3.0315616,-3.5285826,-3.1949263,4.723507,3.7049594,4.6866817,3.774391,-0.020665558,0.0012887903,-0.0065399334,0.005132325,164,6,231,2,0,-4358.6123,128.82428,-1974.0131,14.383648,161595.23,731.22614,163.81723,164.3803,169.01036,169.01036,-11.76,1,0,0,0,0,518.5527,0,0,255,0,0,0,1,0,129,0
True,17754093,15999.99,0,2310.556,-14.574058,5.035631,7.6083283,11.159828,0.42345423,7.588489,-0.07514967,-1.0563285,0.62345326,-0.3908261,-0.0029277136,0.100384325,0.23162612,0.8909058,0.14033803,0.7982009,0,0.51533604,3.7086112,2.548652,73.91952,37.30304,51.595764,52.69272,0,0,0,0,0,0,0,0,0,0.120000005,0.120000005,0.120000005,0,-2.3102818,-3.522966,-3.2195418,0,2.36706,5.115182,4.106224,-0.004253641,0.076617815,-0.012207437,0.066007584,164,6,231,2,0,-4357.7417,128.96942,-1972.8313,13.502083,181997.69,754.60126,163.08127,163.92853,168.97461,168.97461,-11.76,1,0,0,0,0,518.65845,0,0,255,0,0,0,1,127,129,0
True,17754218,15999.99,0,3495.6523,-9.85932,5.49139,11.591845,10.804817,0.3398285,7.659188,0.17714171,-0.8772728,0.46634376,-0.5073016,0.022709617,0.1720118,0.40623993,0.55958223,0.35675678,0.85227185,1.3651222,4.310165,6.9979234,5.8387675,51.46343,103.369965,81.17818,83.86692,0,0,0,0,0,0,0,0,0.120000005,0.120000005,0.120000005,0.120000005,-1.4444551,-0.53137064,-3.518956,-3.2289383,1.987463,4.342796,7.832878,6.672125,0.017165605,0.035975546,0.0135231465,0.07243622,164,6,231,2,0,-4356.954,129.19759,-1971.3984,13.248498,557604.4,1546.6406,162.71913,163.12218,168.70657,168.70657,-11.76,1,0,0,0,0,518.78253,0,0,255,0,0,0,1,127,129,0
True,17754328,15999.99,0,4938.6665,-2.9248612,0.48470917,8.764118,11.155432,0.06021905,7.487775,0.046585135,-0.72552836,0.10149168,-0.5878006,0.054608393,0.19352403,0.43695515,0.46991155,0.48175177,0.5509044,3.224217,6.4723825,11.7777605,9.677769,78.05816,138.50507,116.898346,117.459915,0,0,0,0,0,0,0,0,0.120000005,0.120000005,0.120000005,0.120000005,-1.430348,-0.49360147,-3.5178413,-3.2836406,3.5272467,6.4911766,12.291902,10.219663,0.02093333,0.02497597,0.028384127,0.036605865,164,6,231,2,0,-4356.4067,129.3888,-1970.1301,13.435551,404430.4,781.1042,162.4778,162.79124,168.4993,168.4993,-11.76,1,0,0,0,0,518.8873,0,0,255,0,0,0,1,127,129,0
True,17754437,15999.99,0,5204.514,-2.3748014,-1.3737967,6.3971405,11.379443,-0.10840392,7.367289,-0.14049985,-0.55372095,-0.13337216,-0.6561839,0.062321916,0.18823244,0.45338118,0.36707577,0.47319624,0.18406633,6.2012067,4.8333697,11.951664,0,119.37496,114.58326,120.874435,122.996315,0,0,0,0,0,0,0,0,0.120000005,0.120000005,0.120000005,0,-1.4941449,-0.594864,-3.4787114,0,6.37867,4.869838,12.4476385,0,0.02294825,0.012361478,0.027366936,-0.007008467,164,6,231,2,0,-4355.9146,129.57399,-1968.7684,13.556565,415445.9,763.8998,162.30194,162.63744,168.42691,168.42691,-11.76,1,0,0,0,0,518.9954,0,0,255,0,0,0,1,127,129,0
True,17754546,15999.99,0,5404.106,-2.740889,-1.5715272,7.0606956,11.312334,-0.11474621,7.539876,-0.17582968,-0.3814764,-0.21791722,-0.70974797,0.055577554,0.15922618,0.30043784,0.3285968,0.3279629,0.109601684,8.795633,2.7526376,11.853382,0,158.75613,83.533,125.43641,128.13359,0,0,0,0,0,0,0,0,0.120000005,0.120000005,0.120000005,0,-1.49943,-0.6263525,-3.3697233,0,8.922525,2.8230004,12.323056,0,0.004187245,0.007641401,0.010099769,-0.01586176,164,6,231,2,0,-4355.4775,129.72499,-1967.3492,13.595284,424272.25,749.7296,162.14482,162.51865,168.51749,168.51749,-11.76,1,0,0,0,0,519.1051,0,0,255,0,0,0,1,127,129,0
True,17754656,15999.99,0,5773.386,-4.859944,-3.4264164,6.246226,10.825507,-0.3879445,7.8324375,-0.3391202,-0.2564203,-0.07873147,-0.74613214,0.036763854,0.13792744,0.23526534,0.26598066,0.15950902,0.059497625,11.029355,1.1524317,12.478877,0,194.87299,59.486065,136.65138,136.67236,0,0,0,0,0,0,0,0,0.120000005,0.120000005,0.120000005,0,-1.3249168,-0.5268331,-3.3073194,0,11.108648,1.2671432,12.909714,0,-0.0038072318,-3.9495528E-05,-0.009928148,-0.021818763,164,6,231,2,0,-4355.164,129.84131,-1965.9442,13.367467,430278.2,713.70667,162.1395,161.99907,168.60782,168.60782,-11.76,1,0,0,0,0,519.2124,0,0,255,0,0,0,1,127,129,0
True,17754765,15999.99,0,5425.2593,-3.6322217,2.3506641,10.258806,10.692885,-0.28594458,8.746533,-0.0014012214,-0.12834172,-0.049370203,-0.77126646,0.01449556,0.13352543,0.16351193,0.20286782,0.57823634,0.3628197,11.230743,0.46525592,9.25216,9.202327,207.68904,48.846592,123.93211,123.4384,0,0,0,0,0,0,0,0,0.120000005,0.120000005,0.120000005,0.120000005,-1.1448059,-0.38236153,-2.926129,-2.9222467,11.28894,0.6022154,9.70385,9.655171,-0.012608964,-0.0077813193,0.039855428,0.014243986,164,6,231,2,0,-4354.931,129.93053,-1964.479,13.817431,417081.5,731.5701,162.26868,161.34613,168.76666,168.76666,-11.76,1,0,0,0,0,519.3219,0,0,255,0,0,0,1,127,129,0
True,17754875,15999.99,0,5368.1636,-2.7870882,0.13653418,8.578886,10.446808,-0.05955255,9.667405,0.025700107,-0.00551371,-0.22159451,-0.7782655,0.018492907,0.1248247,0.18159644,0.18533897,0.5432213,0.26533252,9.213332,0.65818876,8.330314,8.466368,189.01862,54.918594,125.0068,125.11384,0,0,0,0,0,0,0,0,0.120000005,0.120000005,0.120000005,0.120000005,-0.9326818,-0.22099593,-2.759327,-2.7862985,9.260421,0.6942994,8.775421,8.913072,-0.010390602,-0.00993152,0.0356924,0.0026534833,164,6,231,2,0,-4354.827,130.05751,-1962.9395,14.233693,389706.94,694.532,162.45856,160.48929,168.77829,168.77829,-11.76,1,0,0,0,0,519.43195,0,0,255,0,0,0,1,127,129,0
True,17754984,15999.99,0,5315.4272,-4.12104,0.3652768,8.754288,10.013205,0.035204172,10.631888,0.19343764,0.053825516,0.024700671,-0.7749255,0.025248453,0.12488515,0.12202608,0.23555179,0.42533526,0.41030177,9.925254,0.8339143,6.833869,7.1635475,195.72238,56.703514,120.38618,121.39031,0,0,0,0,0,0,0,0,0.120000005,0.120000005,0.120000005,0.120000005,-1.4176135,-1.1475978,-2.465327,-2.5514078,10.025981,1.4185886,7.2649574,7.604347,-0.017697884,-0.0037720948,0.021676622,0.019889254,164,6,231,2,0,-4354.813,130.17293,-1961.3474,14.60488,393556.4,708.11145,162.55852,159.69608,168.7537,168.7537,-11.76,1,0,0,0,0,519.54236,0,0,255,0,0,0,1,0,129,0
True,17755078,15999.99,0,5726.1665,-4.682804,-2.2775183,6.0336533,9.434645,0.06294072,11.309167,0.08711967,0.007949941,0.021635436,-0.7654323,0.04939323,0.11682992,0.032910287,0.10172376,0.21348585,0.18564345,11.880659,2.0409827,7.6079493,7.4973383,192.78944,62.728127,134.96129,134.37526,0,0,0,0,0,0,0,0,0.120000005,0.120000005,0.120000005,0.120000005,-2.3360639,-2.3168957,-2.3525777,-2.3411193,12.108149,3.0876555,7.963386,7.854357,-0.028629396,-0.020188296,-0.0035107024,-0.006820958,164,6,231,2,0,-4354.8896,130.25641,-1959.7762,14.727991,380492.66,634.56805,162.73024,159.38124,168.73242,168.73242,-11.76,1,0,0,0,0,519.6498,0,0,255,0,0,0,1,0,129,0
True,17755203,15999.99,0,5896.2715,-10.687136,-2.5867002,4.190924,8.385094,-0.025096476,11.9787855,0.105750576,0.045467515,-0.03585508,-0.7615184,0.06237909,0.1157368,0.0012329625,0.032944012,0.19927531,0.21653518,9.991873,3.7355962,7.2325864,7.2611637,176.80945,89.61223,137.89265,137.6529,0,0,0,0,0,0,0,0,0.120000005,0.120000005,0.120000005,0.120000005,-2.0770402,-2.0850742,-2.066063,-2.0746546,10.20547,4.2781086,7.5218964,7.5517344,-0.03251514,-0.02862526,-0.0052002296,-0.0031481609,164,6,231,2,0,-4355.0996,130.3138,-1958.0104,14.62196,361021.1,586.5343,162.99422,159.31305,168.72632,168.72632,-11.76,1,0,0,0,0,519.7704,0,0,255,0,0,0,1,0,129,0
True,17755312,15999.99,0,5916.2944,-5.4580674,-2.0069525,5.6917415,7.8279333,-0.07745892,12.60101,0.21544608,0.06759771,-0.060236,-0.75411797,0.07626709,0.11135415,0.0014900385,0,0.14037317,0.08404623,9.26701,3.8753672,6.593178,6.632935,175.67209,95.67285,137.17662,137.13127,0,0,0,0,0,0,0,0,0.120000005,0.120000005,0.120000005,0.120000005,-1.8924975,-1.887517,-1.8485075,-1.8578702,9.458278,4.3105907,6.8474064,6.888215,-0.032483604,-0.03266638,-0.012203259,-0.018900115,164,6,231,2,0,-4355.369,130.30742,-1956.4854,14.834688,352138.28,567.83234,163.10501,159.33289,168.8039,168.8039,-11.76,1,0,0,0,0,519.8757,0,0,255,0,0,0,1,0,129,0
True,17755421,15999.99,0,5660.3716,-4.9552717,-1.1742959,5.7246284,7.277775,-0.012601271,13.27936,0.06852728,0.01777802,0.002000481,-0.749931,0.08471204,0.10993745,0.09325814,0.076121375,0.09410867,0.1672603,7.7106566,4.714169,5.719141,5.6423736,154.20813,110.33488,130.0501,129.72264,0,0,0,0,0,0,0,0,0.120000005,0.120000005,0.120000005,0.120000005,-1.9198052,-1.9153211,-1.690685,-1.6772635,7.9460607,5.0884027,5.9638066,5.8863907,-0.021226743,-0.023328848,-0.017703766,-0.0090065785,164,6,231,2,0,-4355.731,130.28668,-1954.9434,15.142903,336270.34,568.5559,163.28908,159.38759,168.81699,168.81699,-11.76,1,0,0,0,0,519.9813,0,0,255,0,0,0,1,-23,129,0
True,17755531,15999.99,0,5465.1455,-4.406198,-0.64861155,8.125456,6.7876406,-0.12785564,14.201166,0.09086016,-0.007794097,0.018486924,-0.74869007,0.09203224,0.11268513,0,0.03548648,0.104170285,0.084087655,0,3.9063911,4.7667513,4.9495935,146.36728,108.83647,124.63525,126.29425,0,0,0,0,0,0,0,0,0.120000005,0.120000005,0.120000005,0.120000005,0,-1.4853718,-1.4750408,-1.4992493,0,4.1792607,4.9897556,5.171675,-0.03266638,-0.028313383,-0.016507514,-0.01889519,164,6,231,2,0,-4356.238,130.21625,-1953.147,15.740443,300388.22,524.0251,163.27344,159.49184,168.87033,168.87033,-11.76,1,0,0,0,0,520.10254,0,0,255,0,0,0,1,0,129,0
True,17755640,15999.99,0,5025.206,-4.63144,-0.28942356,8.624606,6.346016,-0.030739639,15.109472,-0.03481424,-0.03343908,-0.04414271,-0.7507593,0.09315136,0.10527464,0.085992485,0.034628432,0.09805521,0.07492953,3.9299235,3.7920816,3.9979205,3.804107,116.08477,114.487564,117.27675,115.66393,0,0,0,0,0,0,0,0,0.120000005,0.120000005,0.120000005,0.120000005,-1.3169161,-1.323839,-1.3428756,-1.3074933,4.1447034,4.01652,4.2174263,4.0225325,-0.022117995,-0.028418638,-0.01723455,-0.019984024,164,6,231,2,0,-4356.774,130.14474,-1951.5928,16.388075,261017.14,494.36383,163.30061,159.54933,168.86984,168.86984,-11.76,1,0,0,0,0,520.2049,0,0,255,0,0,0,1,0,129,0
True,17755765,15999.99,0,4529.087,-4.5800395,-0.969848,7.859729,5.8180313,-0.0729224,16.11169,0.017359894,-0.020060768,-0.090320945,-0.75466305,0.09312427,0.10778609,0.016253224,0.045576103,0.048596352,0.11886915,2.8649778,2.7628505,2.9419222,2.9249768,103.87168,101.983246,105.3702,105.62988,0,0,0,0,0,0,0,0,0.120000005,0.120000005,0.120000005,0.120000005,-1.1538099,-1.1439764,-1.1648057,-1.1484206,3.088588,2.9903219,3.1641238,3.1423492,-0.030672658,-0.027075727,-0.023114843,-0.014759928,164,6,231,2,0,-4357.5317,130.0473,-1949.7246,17.13013,220584.47,463.44522,163.3296,159.59367,168.94496,168.94496,-11.76,1,0,0,0,0,520.32513,0,0,255,0,0,0,1,0,129,0
True,17755859,15999.99,0,3698.063,-6.345789,1.4566668,8.666595,5.188307,0.07314405,17.03559,-0.07907672,-0.06660194,0.0019661672,-0.76007545,0.08995999,0.107154235,0.058127288,0.0973856,0.05071028,0.17950659,1.5694815,1.4429139,1.6888623,1.716073,83.79152,81.61761,86.317604,87.4133,0,0,0,0,0,0,0,0,0.120000005,0.120000005,0.120000005,0.120000005,-0.9802461,-0.9694961,-1.0185586,-1.0147446,1.850447,1.7383679,1.9722368,1.9936433,-0.025536118,-0.020720443,-0.022863513,-0.007550586,164,6,231,2,0,-4358.3076,129.95323,-1948.0751,17.808289,143981.84,371.4897,163.21153,159.47083,168.81259,168.81259,-11.76,1,0,0,0,0,520.4295,0,0,255,0,0,0,1,0,129,0
True,17755968,15999.99,0,3164.5698,-7.3427925,-0.2108973,7.8969326,4.547953,-0.09661889,17.74803,0.07392287,-0.025925832,0.023764161,-0.7657606,0.088625446,0.1073749,0.01500251,0.14479212,0.065849096,0.11735472,1.0149425,0.7373863,0.91510516,0.82307297,75.5806,70.153076,73.93366,72.46988,0,0,0,0,0,0,0,0,0.120000005,0.120000005,0.120000005,0.120000005,-0.8439029,-0.8315562,-0.8559434,-0.82826096,1.3199548,1.1114064,1.253019,1.1676751,-0.030826079,-0.014905257,-0.02106362,-0.014939982,164,6,231,2,0,-4359.191,129.83644,-1946.407,18.32173,219870.95,661.61163,162.83917,159.01463,168.3993,168.3993,-11.76,1,0,0,0,0,520.5343,0,0,255,0,0,0,1,0,129,0
True,17756078,15999.99,0,3374.3555,-9.12813,0.3024757,7.4797535,3.5899768,-0.004256934,18.561989,-0.16786158,-0.11429219,0.13333361,-0.7705445,0.091095775,0.11718606,0.096965134,0.40171677,0.072446585,0.18416302,1.1591293,0.30917186,1.0743377,1.0043517,82.8023,65.19411,80.773605,79.33654,0,0,0,0,0,0,0,0,0.120000005,0.120000005,0.120000005,0.120000005,-0.605109,-0.58545977,-0.6798312,-0.6665839,1.3075693,0.66208035,1.2713662,1.205428,-0.02077202,0.016610764,-0.020279227,-0.0069969706,164,6,231,2,0,-4360.213,129.71088,-1944.7452,18.90596,225142.94,635.54803,162.34572,158.31552,167.85387,167.85387,-11.76,1,0,0,0,0,520.6392,0,0,255,0,0,0,1,1,129,0
True,17756203,15999.99,0,3475.831,-5.5455484,4.3978133,10.337412,2.9754066,0.08902478,19.811682,-0.14569771,0.08118774,-0.02880504,-0.7777853,0.072462015,0.11799144,0.5906355,0.18971281,0.18030277,0.4473831,0.19902068,1.3580159,0.8616126,0.68234843,67.398315,94.185646,82.00826,77.97525,0,0,0,0,0,0,0,0,0.120000005,0.120000005,0.120000005,0.120000005,0.1578621,0.25031567,-0.48567215,-0.46169177,0.25402692,1.3808929,0.98906714,0.8238681,0.039784737,-0.009394996,-0.0074559264,0.024297945,164,6,231,2,0,-4361.57,129.56158,-1942.8005,20.034061,447940.47,1235.2395,161.5181,157.73505,167.16705,167.16705,-11.76,1,0,0,0,0,520.7614,0,0,255,0,0,0,1,127,129,0
True,17756296,15999.99,0,3541.0256,-1.5095725,2.2362678,8.945151,2.5337324,-0.19201899,20.706532,-0.20675042,0.25682226,-0.17499334,-0.7633042,0.05109869,0.11538574,0.5432184,0.3712455,0.41836795,0.29741392,0.36306506,1.1820073,0.65415347,0.6627976,75.03642,92.662506,81.2839,80.0323,0,0,0,0,0,0,0,0,0.120000005,0.120000005,0.120000005,0.120000005,0.26072663,0.3558507,-0.3440992,-0.3446841,0.4469839,1.2344112,0.7391353,0.7470661,0.033968247,0.012872964,0.02084826,0.006467726,164,6,231,2,0,-4362.839,129.45088,-1941.0785,20.861855,490160.22,1322.2737,160.78467,157.29411,166.50781,166.50781,-11.275286,1,0,0,0,0,520.8665,0,0,255,0,0,0,1,127,129,0
True,17756421,15999.99,0,3781.302,-0.655869,4.707501,12.744634,1.4597063,-0.07309997,22.30378,-0.2203443,0.4904809,-0.12956895,-0.7189851,0.025150334,0.098404475,0.5640281,0.3967597,0.5381589,0.541039,0.52207834,0.8119355,0.62940735,0.6978681,84.669334,89.30303,88.27936,86.744316,0,0,0,0,0,0,0,0,0.120000005,0.120000005,0.120000005,0.120000005,-0.08069883,-0.08171492,-0.13428715,-0.11587561,0.5282784,0.8160371,0.64357334,0.7074228,0.036520906,0.016002696,0.035090514,0.035432935,164,6,231,2,0,-4364.4204,129.35928,-1938.9928,22.351612,527359.5,1337.2512,159.96678,156.71187,165.62708,165.62708,-9.120185,1,0,0,0,0,520.98785,0,0,255,0,0,0,1,0,129,0
True,17756515,15999.99,0,3884.9814,-2.0631747,2.7492533,11.421909,0.11793995,-0.07579887,23.428827,0.05956314,0.44678307,-0.10834868,-0.6708402,0.013059443,0.0836101,0.37279528,0.18341228,0.5602239,0.5461751,0.36591375,0.46697587,0.6981127,0.74179465,83.64347,83.93026,93.510826,92.352264,0,0,0,0,0,0,0,0,0.120000005,0.120000005,0.120000005,0.120000005,-0.09986762,-0.10434929,0.050253298,0.07305789,0.37929726,0.47849265,0.6999191,0.7453836,0.013063069,-0.0101678595,0.037713878,0.036043584,164,6,231,2,0,-4365.855,129.30695,-1937.1461,23.429247,570913.3,1405.9608,159.38795,156.3268,164.88681,164.88681,-8.337183,1,0,0,0,0,521.09033,0,0,255,0,0,0,1,0,129,0
True,17756640,15999.99,0,4027.0986,0.4413414,1.3117671,10.629357,-0.9571562,-0.23814923,24.625927,-0.13159819,0.3724074,-0.1747021,-0.62433505,-0.0031210417,0.07211132,0.42974618,0.27719438,0.46212995,0.26734135,0.42907694,0.8929264,0.51066047,0.54363894,90.41181,100.01348,92.544975,91.07367,0,0,0,0,0,0,0,0,0.120000005,0.120000005,0.120000005,0.120000005,0.06568997,0.06782585,0.18837923,0.19653514,0.43407625,0.8954987,0.54429847,0.57807386,0.020049032,0.001336053,0.026051238,0.002892319,164,6,231,2,0,-4367.6104,129.2698,-1934.915,24.645672,478614.3,1131.1943,158.68909,155.77185,164.16443,164.16443,-9.107243,1,0,0,0,0,521.2085,0,0,255,0,0,0,1,0,129,0
True,17756734,15999.99,0,4331.2935,0.9903717,1.3925004,10.3267145,-1.5190182,-0.07567358,25.573143,0.08555169,0.24136905,-0.1449416,-0.59488755,-0.0020800368,0.06681041,0.29290316,0.1888594,0.49235833,0.3821729,0.7923259,0.6103802,0.6498541,0.6845805,104.466095,97.05704,100.40022,98.86578,0,0,0,0,0,0,0,0,0.120000005,0.120000005,0.120000005,0.120000005,-0.115716025,-0.094976336,0.23319073,0.24529469,0.80073124,0.61772525,0.6904262,0.72720003,0.0032629892,-0.00949968,0.029645167,0.016544938,164,6,231,2,0,-4369.1504,129.25371,-1932.9172,25.618328,478226.47,1058.4893,158.19276,155.39331,163.51517,163.51517,-9.197113,1,0,0,0,0,521.30884,0,0,255,0,0,0,1,-96,129,0
True,17756859,15999.99,0,4513.4956,0.097438335,1.9237281,7.18032,-2.0023222,-0.055546165,26.142557,-0.18961039,0.102192864,-0.004797563,-0.57500386,-0.001060881,0.0631435,0.48504207,0.4206734,0.31364706,0.33837733,0.44380862,0.6532441,0.86586136,0.7927848,96.53385,102.477196,107.3187,106.273125,0,0,0,0,0,0,0,0,0.120000005,0.120000005,0.120000005,0.120000005,0.23628476,0.24415338,0.27239823,0.2757484,0.5027888,0.6973799,0.9076986,0.83937174,0.026831977,0.018936105,0.0083977245,0.011337969,164,6,231,2,0,-4370.976,129.22408,-1930.5278,26.219185,508979.62,1084.5046,157.62634,154.8172,162.89865,162.89865,-8.877836,1,0,0,0,0,521.4254,0,0,255,0,0,0,1,0,129,0
True,17756968,15999.99,0,4579.6626,4.417798,1.7830503,8.646588,-1.6639814,-0.022154152,27.059025,0.09079454,0.012799647,0.08669699,-0.56952876,-0.005603277,0.06819612,0.21116078,0.42114443,0.50898147,0.42749888,0.7946824,0.33439574,0.6487925,0.80505997,109.564545,95.87998,105.69385,109.127655,0,0,0,0,0,0,0,0,0.120000005,0.120000005,0.120000005,0.120000005,0.19439317,0.1961204,0.18809113,0.20834535,0.8181129,0.38766444,0.67550725,0.8315824,-0.0067640506,0.018993884,0.031621538,0.021933861,164,6,231,2,0,-4372.831,129.21027,-1928.0369,27.110147,488652.88,1022.298,157.18651,154.3099,162.24799,162.24799,-8.865298,1,0,0,0,0,521.54175,0,0,255,0,0,0,1,0,129,0
True,17757078,15999.99,0,4708.613,2.275916,-0.3424856,7.295314,-1.533351,-0.03335178,27.730213,0.009970317,0.02264958,0.06224718,-0.5665624,-0.0027089634,0.06856573,0.33217746,0.2972321,0.24308114,0.43734148,0.4834627,0.9086942,0.65764356,0.72432774,101.15973,114.68998,108.96963,109.40171,0,0,0,0,0,0,0,0,0.120000005,0.120000005,0.120000005,0.120000005,0.2686284,0.27450845,0.18067308,0.19112661,0.5530799,0.94925237,0.6820101,0.7491195,0.008080628,0.003794007,7.95722E-06,0.023104072,164,6,231,2,0,-4374.4243,129.20764,-1925.8335,27.772596,411260.06,835.48444,156.72028,153.90855,161.83461,161.83461,-9.988796,1,0,0,0,0,521.6409,0,0,255,0,0,0,1,80,129,0
True,17757187,15999.99,0,4795.0312,1.8715935,-2.481031,6.402294,-1.4404497,-0.07241285,28.466198,0.24544515,0.028124837,0.0039847717,-0.5607423,0.005140305,0.06614457,0.1186203,0.12141436,0.31538844,0.3290876,0.715979,0.9604716,0.6848137,0.54686433,108.8689,117.62391,111.19822,107.56736,0,0,0,0,0,0,0,0,0.120000005,0,0.120000005,0.120000005,0.5251728,0.5652498,0.17543969,0.17224915,0.8879371,1.1144564,0.70692915,0.57335013,-0.018115658,-0.01777292,0.0086047575,0.010233488,164,6,231,2,0,-4376.3184,129.189,-1923.1592,28.50271,326148.1,649.75,156.36403,153.55023,161.24597,161.24597,-11.646107,1,0,0,0,0,521.7575,0,0,255,0,0,0,1,127,129,0
True,17757296,15999.99,0,4892.0386,3.3965201,-1.8768678,6.8249645,-1.4289103,-0.07296586,29.12597,0.08284967,0.18191911,-0.11673687,-0.5460548,0.01643773,0.05636628,0.26832032,0.085657574,0.18714681,0.11658497,0.5244702,1.1436062,0.57383275,0.6581902,106.820305,126.130585,110.203766,111.97305,0,0,0,0,0,0,0,0,0.120000005,0.120000005,0.120000005,0.120000005,0.5221333,0.5605825,0.18816195,0.1938816,0.7400623,1.2736121,0.6038948,0.6861519,0.00024750456,-0.022159077,-0.0066422187,-0.0150315,164,6,231,2,0,-4378.2144,129.12282,-1920.4061,29.16109,268312.56,521.14874,155.87717,153.27051,160.91139,160.91139,-11.76,1,0,0,0,0,521.8738,0,0,230,0,0,0,1,127,129,0
True,17757406,15999.99,0,4705.042,7.2010465,1.7381029,7.0218034,-1.3669233,0.034052283,29.871185,-0.35593027,0.37583032,-0.15779033,-0.5197591,0.007425356,0.047525942,0.6544193,0.3413245,0.25954977,0.09591984,0.20712236,0.36283112,0.62909293,0.4959067,100.816505,103.23257,114.688255,109.81112,0,0,0,0,0,0,0,0,0.120000005,0.120000005,0.120000005,0.120000005,0.42093825,0.44531757,0.21213262,0.2143251,0.4691361,0.57441634,0.6638962,0.5402395,0.047608867,0.009202663,0.001965955,-0.017488431,164,6,231,2,0,-4379.8257,129.08228,-1917.945,29.902464,266928.53,540.0496,155.31631,152.9227,160.42447,160.42447,-8.0423155,1,0,0,0,0,521.9732,0,0,98,0,0,0,1,56,129,0
True,17757531,15999.99,0,4067.2627,8.580385,3.0648398,3.7348738,-1.4680605,-0.07314336,30.304539,0.10186828,0.23491219,0.1585489,-0.4805711,-0.014100226,0.037459414,0.31788224,0.23109919,0.5561835,0.47779113,0.009911814,0.010104445,0.008630291,0.029319583,94.435776,93.27987,94.448044,93.494545,0,0,0,0,0,0,0,0,0.120000005,0.120000005,0.120000005,0.120000005,0.2840605,0.31435204,0.4203178,0.53903246,0.2842334,0.3145144,0.42040637,0.53982925,0.006327085,-0.0043182783,0.03723351,0.027913235,164,6,231,2,0,-4381.7095,129.09492,-1914.8624,30.340162,-21166.012,-49.647614,154.77026,152.56493,159.67026,159.67026,-4.6928425,1,0,0,0,0,522.0928,0,0,0,0,0,0,1,0,129,0
True,17757640,15999.99,0,4035.294,9.584911,-2.103896,-0.03507042,-0.9799614,-0.055437684,30.171156,0.13532335,0.1359101,0.16112949,-0.45940423,-0.0065727904,0.046370655,0.2050028,0.18732986,0.2982249,0.23706675,-0.0053039407,-0.077876344,-0.010371416,-0.019430008,93.681046,92.759186,93.57146,92.78569,0,0,0,0,0,0,0,0,0.120000005,0.120000005,0.120000005,0.120000005,0.19635509,0.22447446,0.30895177,0.3614777,0.19642672,0.23759946,0.30912578,0.36199954,-0.0075194277,-0.0096873045,0.0065641403,-0.0007071085,164,6,231,2,0,-4383.2983,129.12315,-1912.007,30.187117,-20786.477,-49.200478,154.46057,152.21228,159.22879,159.22879,-3.5160456,1,0,0,0,0,522.2008,0,0,0,0,0,0,1,0,129,0
True,17757750,15999.99,0,4035.159,8.263863,0.56117135,-1.1373582,-0.46263504,0.0445261,30.027489,-0.14347498,0.13417502,0.064386785,-0.44682708,-0.007979067,0.05247413,0.3830813,0.46669477,0.19689433,0.13976763,0.0029160283,0.0105924355,0.0006675107,0.00087414385,93.53219,92.82029,93.509186,92.88581,0,0,0,0,0,0,0,0,0.120000005,0.120000005,0.120000005,0.120000005,0.25335208,0.2905586,0.14310567,0.17492586,0.25336885,0.2907516,0.14310724,0.17492804,0.014324818,0.02458138,-0.0054833107,-0.0122752525,164,6,231,2,0,-4384.752,129.14195,-1909.183,30.031086,-4931.567,-11.668557,154.08261,151.79463,158.92113,158.92113,0,1,0,0,0,0,522.3063,0,0,6,0,0,0,1,65,129,0
True,17757859,15999.99,0,4277.553,8.291252,0.6602292,0.0070712566,-0.11628246,-0.1450826,30.036465,-0.14359711,0.3078792,-0.06681715,-0.42682454,-0.01887732,0.052944664,0.5903972,0.33107558,0.41597283,0.30570483,0.17414914,0.34280267,0.6607515,0.8819353,95.70464,94.9187,100.52275,100.81351,0,0,0,0,0,0,0,0,0,0.120000005,0,0.120000005,0.6564343,0.6789005,0.15809116,0.17045984,0.67914206,0.76053894,0.67940074,0.89825743,0.03975551,0.007945463,0.020563502,0.007453449,164,6,231,2,0,-4386.15,129.18428,-1906.2554,30.037037,197450,441.3231,153.43655,151.57129,158.47136,158.47136,-9.149847,1,0,0,0,0,522.41437,0,0,123,0,0,0,1,127,129,0
True,17757968,15999.99,0,4335.0454,6.3782516,-1.6189698,5.8418527,-0.5894003,-0.1822241,30.81001,0.1197568,0.3366292,0.037917964,-0.38592404,-0.020823397,0.046142377,0.25119573,0.17687465,0.5409905,0.30363083,0.7979438,0.13505594,0.26927465,0.5750804,103.615,95.795906,99.27847,101.396904,0,0,0,0,0,0,0,0,0,0.120000005,0,0.120000005,0.08584978,0.07901469,0.23226222,0.29147604,0.8025487,0.1564718,0.35560453,0.6447292,-0.0018531084,-0.010969808,0.035427168,0.0072068684,164,6,231,2,0,-4387.5146,129.24211,-1903.1624,30.816187,444009.97,980.17834,153.10687,151.51132,157.68788,157.68788,-8.235418,1,0,0,0,0,522.52545,0,0,255,0,0,0,1,0,129,0
True,17758062,15999.99,0,4463.0527,5.480944,-3.619163,7.160659,-0.93051434,-0.09982473,31.57774,0.17950319,0.18793084,0.17074747,-0.35658035,-0.006838423,0.05102576,0.08304486,0.07416051,0.24856272,0.24876404,0.15685335,0.74020857,0.47825187,0.5417193,100.12984,103.32617,103.47703,104.12085,0,0,0,0,0,0,0,0,0,0.120000005,0,0.120000005,0.15937826,0.1731543,0.30843005,0.30683434,0.22361663,0.7601915,0.56908166,0.62258106,-0.02247957,-0.02356938,0.00065967813,0.0006836131,164,6,231,2,0,-4388.8037,129.26834,-1900.0815,31.591602,508018.47,1087.9419,153.01184,151.40497,157.33327,157.33327,0,1,0,0,0,0,522.63245,0,0,255,0,0,0,1,0,133,0
True,17758187,15999.99,0,4635.921,7.63108,-1.3247578,10.075712,-0.9423132,-0.23078877,32.738422,0.012190645,0.15021208,0.08589533,-0.32934228,-0.006960955,0.061685633,0.1091492,0.18285826,0.235033,0.26678863,0.3394756,0.7460225,0.39335996,0.53351647,105.63104,108.85604,106.689095,107.24579,0,0,0,0,0,0,0,0,0,0,0,0,0.18993352,0.2018541,0.2670158,0.29424822,0.3889967,0.7728484,0.4754256,0.60927975,-0.019277444,-0.01023582,-0.00094890594,0.0028266013,164,6,231,2,0,-4390.2295,129.2645,-1896.4419,32.752792,552041.4,1138.0707,152.79175,151.10918,157.06204,157.06204,0,1,0,0,0,0,522.754,0,0,255,0,0,0,1,0,147,0
True,17758296,15999.99,0,4786.562,6.10267,-1.0373994,11.386187,-0.5828037,-0.25696504,33.91011,0.008836021,0.03564726,0.044821173,-0.32111,-0.0053048753,0.06910868,0.16687587,0.17266232,0.23983605,0.25380144,0.27147308,0.56944335,0.44018656,0.52001953,108.41818,111.27067,110.66179,111.180855,0,0,0,0,0,0,0,0,0,0,0,0,0.1308696,0.14104933,0.14870985,0.15658586,0.301371,0.58665204,0.46462762,0.5430833,-0.012196323,-0.011486519,-0.00037785992,0.0012825206,164,6,231,2,0,-4391.386,129.25499,-1893.2374,33.916092,608591.6,1214.997,152.54178,150.90399,156.79504,156.79504,0,1,0,0,0,0,522.85626,0,0,255,0,0,0,1,0,157,0
True,17758406,15999.99,0,4965.473,3.7052956,0.2813592,12.820098,-0.22732544,-0.3046742,35.454628,-0.02638422,-0.009314595,0.011585638,-0.32004756,-0.008073549,0.07176521,0.23544492,0.21966545,0.3343713,0.3066056,0.34877157,0.37930542,0.3592575,0.39253956,114.13267,114.4955,114.71425,115.02676,0,0,0,0,0,0,0,0,0,0,0,0,0.057815664,0.060463537,0.046363894,0.050687455,0.35353112,0.3840943,0.3622369,0.3957986,-0.0037852041,-0.005720813,0.010861684,0.0075605474,164,6,231,2,0,-4392.7163,129.24467,-1889.3624,35.45666,695842.6,1339.3522,152.17955,150.59398,156.35954,156.35954,0,1,0,0,0,0,522.97437,0,0,255,0,0,0,1,0,167,0
True,17758515,15999.99,0,5147.77,1.2788758,0.47615302,12.975062,-0.09070778,-0.2980507,36.78198,-0.013037413,-0.015371128,0.007227463,-0.32162192,-0.009354261,0.07279963,0.24198335,0.23340695,0.3641998,0.34415227,0.3085464,0.35687134,0.38668716,0.38731202,117.89216,118.51242,119.2184,119.29089,0,0,0,0,0,0,0,0,0,0,0,0,0.024793005,0.027407391,0.012174253,0.018085908,0.3095409,0.35792223,0.38687873,0.38773406,-0.0029831566,-0.0040351935,0.014408071,0.0120245665,164,6,231,2,0,-4393.8853,129.2455,-1885.8855,36.783295,706336.3,1311.326,151.87988,150.31155,155.9441,155.9441,0,1,0,0,0,0,523.076,0,0,255,0,0,0,1,0,176,0
True,17758640,15999.99,0,5387.115,0.0420146,0.16020012,12.506706,-0.043066025,-0.30801678,38.484383,0.021255394,-0.011475391,-0.0029219738,-0.32344976,-0.010493181,0.07282581,0.24179918,0.23185022,0.36317164,0.35443228,0.38964495,0.39816797,0.36498109,0.3661692,124.26533,124.41092,124.423386,124.483,0,0,0,0,0,0,0,0,0,0,0,0,0.0122515615,0.015249135,0.0030443335,0.009101837,0.38983753,0.39845985,0.36499378,0.3662823,-0.0030057505,-0.004226152,0.014285825,0.013246786,164,6,231,2,0,-4395.5015,129.25641,-1881.0686,38.48564,693408.56,1230.3031,151.47426,149.93251,155.39926,155.39926,0,1,0,0,0,0,523.21094,0,0,255,0,0,0,1,0,188,0
True,17758750,15999.99,0,5554.762,-0.030719042,-1.1053417,11.71894,-0.040712357,-0.28448248,39.64721,0.03279059,-0.008830057,2.6109628E-05,-0.3241993,-0.0063990075,0.07272412,0.21720889,0.21102804,0.34340104,0.33460104,0.3290259,0.34814873,0.4192849,0.41636094,127.250946,127.53846,128.7645,128.76714,0,0,0,0,0,0,0,0,0,0,0,0,0.010361845,0.012808516,0.0037288778,0.008236396,0.329189,0.3483843,0.41930148,0.4164424,-0.0060221516,-0.006780334,0.011935253,0.010888997,164,6,231,2,0,-4396.754,129.25975,-1877.3418,39.64825,686713,1181.3079,151.20834,149.67966,155.00247,155.00247,0,1,0,0,0,0,523.3116,0,0,255,0,0,0,1,0,197,0
True,17758859,15999.99,0,5719.5664,-0.3480897,0.06691164,12.027647,-0.041252136,-0.30757225,41.069138,-0.028163735,-0.0066474816,-0.008910645,-0.32510877,-0.006940811,0.072287686,0.23522913,0.22111031,0.32656342,0.32005465,0.27756953,0.2962561,0.33870012,0.3375376,131.26727,131.53104,132.45679,132.47234,0,0,0,0,0,0,0,0,0,0,0,0,0.010124256,0.01197571,0.005214977,0.008268226,0.2777541,0.29649806,0.33874026,0.33763885,-0.0038116723,-0.0055435784,0.009933382,0.009159535,164,6,231,2,0,-4398.265,129.2537,-1872.8586,41.07031,752280.5,1256.7911,150.85898,149.35828,154.57356,154.57356,0,1,0,0,0,0,523.4288,0,0,255,0,0,0,1,0,208,0
True,17758953,15999.99,0,5884.4116,-0.3875494,0.52730715,12.090142,-0.038702965,-0.31339592,42.275024,-0.0074978666,-0.0070104427,-0.015164467,-0.32591528,-0.008619711,0.0710045,0.23617253,0.21555449,0.3418095,0.33119068,0.2819453,0.29480827,0.333542,0.33308563,135.13544,135.32759,136.24721,136.26862,0,0,0,0,0,0,0,0,0,0,0,0,0.009712871,0.011772729,0.0042142663,0.008378074,0.28211254,0.29504323,0.3335686,0.33319098,-0.00369595,-0.0062250905,0.011746027,0.010483526,164,6,231,2,0,-4399.6025,129.25548,-1868.901,42.276203,752876.44,1222.7628,150.55011,149.08495,154.16315,154.16315,0,1,0,0,0,0,523.52905,0,0,255,0,0,0,1,0,218,0
True,17759078,15999.99,0,6073.3164,-2.2100167,0.2908531,11.582587,-0.048583984,-0.32389605,43.62117,0.0046660155,-0.11298046,-0.014133958,-0.3316483,-0.009268191,0.06895523,0.21999308,0.21561359,0.33305982,0.32237774,0.40029445,0.26791623,0.33667776,0.29837492,140.731,139.51146,140.32875,140.34225,0,0,0,0,0,0,0,0,0,0,0,0,-0.2213888,-0.20619486,-0.017177943,-0.013564418,0.45743704,0.33807608,0.3371157,0.29868308,-0.0056806244,-0.006217841,0.010705754,0.009435739,164,6,231,2,0,-4401.222,129.2637,-1864.1503,43.622395,740634.06,1165.4543,150.20984,148.75739,153.69067,153.69067,0,1,0,0,0,0,523.646,0,0,255,0,0,0,1,-127,231,0
True,17759171,15999.99,0,6222.1206,-4.196829,-0.4208869,10.943724,0.2912054,-0.30986625,44.692425,0.009827418,-0.1959489,0.0072518033,-0.3502966,-0.0064043403,0.06849157,0.22301164,0.24521,0.3181977,0.33010477,0.30857313,0.26313055,0.38402978,0.30766654,142.69437,143.07687,144.17982,144.09138,0,0,0,0,0,0,0,0,0,0,0,0,-0.0032923014,-0.0011039494,-0.09996512,-0.09334714,0.3085907,0.26313287,0.39682728,0.32151577,-0.005310349,-0.0025873557,0.00893876,0.010354422,164,6,231,2,0,-4402.693,129.26755,-1859.9712,44.694447,745965.75,1145.5265,149.9347,148.43707,153.30042,153.30042,0,1,0,0,0,0,523.74634,0,0,255,0,0,0,1,0,243,0
True,17759296,15999.99,0,6379.561,-4.4590983,-0.12658364,10.946825,0.37007046,-0.31082106,45.96945,-0.0056361035,-0.057696167,-0.008262907,-0.3638267,-0.005135638,0.068156496,0.23015875,0.24838284,0.3248735,0.34818432,0.27768174,0.2318663,0.33306625,0.2922168,146.70425,146.36533,147.87221,147.65686,0,0,0,0,0,0,0,0,0,0,0,0,-0.055952717,-0.052732993,-0.08134594,-0.07461549,0.28326288,0.2377872,0.34285608,0.30159265,-0.0044336393,-0.002198156,0.0097324625,0.012503948,164,6,231,2,0,-4404.5024,129.26378,-1855.0032,45.97199,752283.44,1126.5961,149.5784,148.06479,152.8281,152.8281,0,1,0,0,0,0,523.8629,0,0,255,0,0,0,1,0,1,0
True,17759390,15999.99,0,6498.117,-3.5531926,0.8896228,10.719822,0.15339756,-0.31550157,47.049786,-0.03698966,-0.019665508,-0.0026484234,-0.36706802,-0.0072660646,0.06762266,0.25302905,0.27041873,0.32856858,0.34860316,0.23161484,0.19957589,0.26502118,0.24983917,149.6187,149.2525,150.46007,150.36884,0,0,0,0,0,0,0,0,0,0,0,0,-0.07360275,-0.07021076,-0.03249583,-0.027897798,0.2430284,0.2115658,0.26700598,0.25139192,-0.0016282201,0.0005049072,0.010171782,0.012553748,164,6,231,2,0,-4406.147,129.26192,-1850.6305,47.05109,752258.25,1105.9877,149.24298,147.72351,152.41637,152.41637,0,1,0,0,0,0,523.9634,0,0,255,0,0,0,1,-51,11,0
True,17759515,15999.99,0,6688.539,-5.7223005,0.87102604,10.0985365,0.0957737,-0.30527413,48.218613,0.001578199,-0.22268365,-0.016192632,-0.37959734,-0.00877798,0.06678687,0.25071537,0.2802557,0.3400886,0.36847422,0.37468258,0.23972157,0.3217422,0.23956431,154.88152,153.96002,154.55612,154.4327,0,0,0,0,0,0,0,0,0,0,0,0,-0.40950245,-0.37620106,-0.06290052,-0.054098595,0.55504894,0.44608706,0.32783306,0.24559666,-0.0019120313,0.0017115735,0.011541426,0.0149162635,164,6,231,2,0,-4408.1626,129.27397,-1845.4268,48.219677,752862.3,1075.7244,148.86761,147.30905,151.89189,151.89189,0,1,0,0,0,0,524.0805,0,0,255,0,0,0,1,-127,23,0
True,17759625,15999.99,0,6851.735,-7.456229,-0.7146561,9.680977,0.8763828,-0.27523363,49.288723,0.013420902,-0.2770262,-0.0090828305,-0.41483775,-0.0038714653,0.06487997,0.22528456,0.26501024,0.3191904,0.3554884,0.29940647,0.19273569,0.4081643,0.29076782,157.03664,156.85635,159.07336,158.79805,0,0,0,0,0,0,0,0,0,0,0,0,-0.08603972,-0.07932988,-0.21025577,-0.19321506,0.31152377,0.2084233,0.4591357,0.34911028,-0.0050315373,-0.00015853345,0.009056784,0.013372347,164,6,231,2,0,-4410.2964,129.28047,-1840.1989,49.29728,752648.7,1049.3619,148.56902,146.93677,151.41782,151.41782,0,1,0,0,0,0,524.1962,0,0,255,0,0,0,1,0,34,0
True,17759718,15999.99,0,6924.3267,-9.65436,1.3195941,10.183857,0.79301643,-0.30016184,50.27075,-0.06988857,-0.11361538,-0.012925953,-0.43330184,-0.006186777,0.06388647,0.25190237,0.31385863,0.31284055,0.36767483,0.22228795,0.14529751,0.26404428,0.2009014,159.48532,158.87828,160.44984,160.17007,0,0,0,0,0,0,0,0,0,0,0,0,-0.19515699,-0.17945738,-0.15325819,-0.13735516,0.29580092,0.23090327,0.30529895,0.24336766,-0.0017664284,0.0058335215,0.008301832,0.014821228,164,6,231,2,0,-4412.2485,129.2789,-1835.6659,50.277897,752497.94,1038.1886,148.23895,146.55026,151.04608,151.04608,0,1,0,0,0,0,524.29535,0,0,255,0,0,0,1,-96,42,0
True,17759843,15999.99,0,7143.999,-8.761077,0.020032868,8.777582,0.5941429,-0.26634443,51.287,0.048002474,-0.21403167,-0.0037226714,-0.45058832,-0.005662507,0.06359104,0.24213733,0.31436655,0.33263737,0.413188,0.466704,0.24738215,0.38533375,0.28474715,165.97942,163.67947,165.27478,164.8703,0,0,0,0,0,0,0,0,0,0,0,0,-0.5400386,-0.4871211,-0.14436907,-0.12665486,0.7137607,0.5463377,0.41149062,0.31164467,-0.0029642694,0.005895827,0.01065553,0.020232406,164,6,231,2,0,-4414.7144,129.29347,-1830.2731,51.291134,709899.6,949.4132,147.87915,146.08888,150.51575,150.51575,0,1,0,0,0,0,524.4121,0,0,255,0,0,0,1,-127,46,0
True,17759937,15999.99,0,7227.024,-12.450722,0.37717706,8.994225,1.0327663,-0.26937473,52.124138,-0.048485428,-0.4509019,-0.0306406,-0.48437032,-0.0038938567,0.06201116,0.24058406,0.31604812,0.2936337,0.37221158,0.400642,0.17877398,0.36425132,0.20507614,167.18799,165.89854,167.22331,166.97682,0,0,0,0,0,0,0,0,0,0,0,0,-0.62282044,-0.5354451,-0.25236043,-0.21878631,0.7405534,0.56450117,0.44313067,0.2998728,-0.003154803,0.0061021,0.006018281,0.015360612,164,6,231,2,0,-4416.9736,129.2927,-1825.6035,52.13506,752518.5,994.73254,147.64143,145.7601,150.14789,150.14789,0,1,0,0,0,0,524.51245,0,0,255,0,0,0,1,-127,48,0
True,17760062,15999.99,0,7379.886,-17.646498,1.7977015,8.795227,2.0674229,-0.23924541,52.979523,-0.017829496,-0.5399929,-0.02476547,-0.54456687,-0.004718658,0.058570627,0.25089037,0.36586437,0.30958107,0.4166467,0.5624111,0.20563185,0.4110358,0.21415655,172.02522,169.10185,170.56042,170.17024,0,0,0,0,0,0,0,0,0,0,0,0,-0.8367379,-0.7030631,-0.43513772,-0.3690978,1.0081848,0.73251766,0.5985777,0.42672732,-0.0018905662,0.01221288,0.007914305,0.020643618,164,6,231,2,0,-4419.85,129.30228,-1820.145,53.020386,696446.06,901.5905,147.33138,145.30821,149.68016,149.68016,0,1,0,0,0,0,524.62976,0,0,255,0,0,0,1,-127,48,0
True,17760156,15999.99,0,7495.3457,-18.069914,0.65033895,7.524006,3.0746536,-0.19312596,53.534264,-0.0045092106,-0.5505646,-0.030276127,-0.5987323,-0.0017995004,0.056527648,0.23571624,0.35100114,0.29665872,0.4188956,0.58389026,0.25145605,0.5017749,0.26063603,173.97993,171.4916,173.71619,172.88203,0,0,0,0,0,0,0,0,0,0,0,0,-1.0202864,-0.87712884,-0.6100938,-0.5101219,1.1755476,0.91246104,0.7899319,0.57284856,-0.0037519224,0.01038966,0.006377939,0.020910993,164,6,231,2,0,-4422.5312,129.3134,-1815.503,53.622833,634400.25,808.47644,147.12393,144.96664,149.30737,149.30737,0,1,0,0,0,0,524.7303,0,0,255,0,0,0,1,-127,47,0
True,17760265,15999.99,0,7581.388,-20.20431,0.64898586,7.775207,3.9380875,-0.17232883,54.06022,-0.002891088,-0.46428466,-0.027941491,-0.6545748,-1.0887162E-05,0.052611943,0.23669682,0.3514128,0.28546914,0.40651608,0.6351489,0.16616023,0.4978425,0.27760425,177.3761,172.15068,175.69485,174.83377,0,0,0,0,0,0,0,0,0,0,0,0,-0.5683613,-0.47075397,-0.7188562,-0.60261106,0.8523196,0.4992179,0.8744149,0.6634789,-0.0036316365,0.01044016,0.0050475746,0.019439165,164,6,231,2,0,-4425.504,129.31938,-1810.7806,54.20374,653999.9,824.0467,146.90152,144.61462,148.97284,148.97284,0,1,0,0,0,0,524.83386,0,0,255,0,0,0,1,0,45,0
True,17760390,15999.99,0,7642.84,-22.663202,1.2994802,8.4688225,3.4311218,-0.16619289,54.86413,-0.035420835,-0.2106355,0.013363767,-0.6961902,-0.00023829193,0.052825868,0.21958593,0.39792466,0.28119203,0.4552596,0.43988732,0.16421077,0.42172396,0.24623388,177.49847,174.09254,177.51648,176.26924,0,0,0,0,0,0,0,0,0,0,0,0,-0.5180449,-0.44424587,-0.58285314,-0.47150433,0.6796112,0.47362387,0.7194226,0.53192806,-0.0057305694,0.016145598,0.0045390613,0.025234401,164,6,231,2,0,-4429.324,129.32082,-1805.2874,54.971565,720243.3,900.009,146.61191,144.10529,148.57625,148.57625,0,1,0,0,0,0,524.9565,0,0,255,0,0,0,1,0,42,0
True,17760484,15999.99,0,7682.771,-20.636827,1.7137448,8.761887,1.8528099,-0.21977186,55.73326,-0.055920992,-0.0069430578,0.006674355,-0.7062493,-0.00405818,0.053951494,0.22397593,0.38453946,0.2526901,0.42982796,0.2675177,0.14284344,0.2718727,0.19953574,177.80148,175.81476,178.16797,177.3643,0,0,0,0,0,0,0,0,0,0,0,0,-0.29264486,-0.26158932,-0.28126192,-0.23881727,0.39649302,0.29804903,0.3911816,0.31120443,-0.0051920637,0.014503684,0.001150392,0.02221077,164,6,231,2,0,-4432.767,129.32712,-1800.8043,55.764484,752268.1,935.0074,146.37013,143.69177,148.28368,148.28368,0,1,0,0,0,0,525.05865,0,0,255,0,0,0,1,0,41,0
True,17760609,15999.99,0,7781.3403,-10.671107,2.3687236,8.333579,0.37112045,-0.28037632,56.71128,-0.016109142,0.06423027,0.050752696,-0.7018412,-0.010670074,0.057733826,0.26480755,0.41496757,0.33623695,0.4697564,0.17904437,0.16256288,0.19223104,0.19094169,179.47362,178.92807,180.09564,179.86366,0,0,0,0,0,0,0,0,0,0,0,0,-0.07412842,-0.071391046,-0.046552166,-0.03287184,0.19378315,0.17754821,0.19778746,0.19375059,-0.00018339604,0.01823619,0.011083491,0.026957966,164,6,231,2,0,-4436.903,129.35431,-1795.7583,56.713192,752559.3,923.872,145.96323,143.11842,147.76944,147.76944,0,1,0,0,0,0,525.1747,0,0,255,0,0,0,1,0,40,0
True,17760718,15999.99,0,7890.2197,-2.977387,1.3725302,8.076754,-0.05958748,-0.26927173,57.51275,-0.023909494,0.031370845,0.03253924,-0.6971334,-0.0126831895,0.061676845,0.2857006,0.33728608,0.35576826,0.43505996,0.15845165,0.15749499,0.19449843,0.20089805,181.61102,181.45238,182.61247,182.57457,0,0,0,0,0,0,0,0,0,0,0,0,-0.00020587182,0.001130084,0.009389537,0.020362621,0.15845178,0.15749905,0.19472495,0.20192736,0.002379477,0.008707285,0.013405621,0.022832818,164,6,231,2,0,-4440.555,129.39392,-1791.3961,57.51341,752263.3,910.74744,145.58678,142.71902,147.29138,147.29138,0,1,0,0,0,0,525.27423,0,0,255,0,0,0,1,0,34,0
True,17760828,15999.99,0,7980.255,-0.0060207844,3.732657,7.984559,-0.11329079,-0.28651023,58.38382,-0.095499486,0.0055281105,-0.0030914098,-0.69576913,-0.020225435,0.064190164,0.38065597,0.35562542,0.3714671,0.3969177,0.1069267,0.1326561,0.15535101,0.15371238,183.44568,183.85023,184.67467,184.63101,0,0,0,0,0,0,0,0,0,0,0,0,0.013888191,0.015326191,0.0128173875,0.019845821,0.10782486,0.1335385,0.15587887,0.15498823,0.014027312,0.010956906,0.0152720995,0.018297989,164,6,231,2,0,-4444.6367,129.4636,-1786.5282,58.38463,752270.44,900.4313,145.10295,142.28981,146.77187,146.77187,0,1,0,0,0,0,525.3839,0,0,255,0,0,0,1,0,25,0
True,17760921,15999.99,0,8138.3877,-3.6881018,2.1191015,7.3630304,0.05599785,-0.2538767,59.16514,0.022809703,-0.20150635,-0.059104122,-0.70633787,-0.023519127,0.060058318,0.33952162,0.29572943,0.3864278,0.39265013,0.23361443,0.18804336,0.24862137,0.18422945,187.52328,187.66281,188.21774,188.07494,0,0,0,0,0,0,0,0,0,0,0,0,-0.31946203,-0.3025751,-0.042919867,-0.031398643,0.3957672,0.3562471,0.25229883,0.18688597,0.008981511,0.0036096796,0.017050814,0.0177906,164,6,231,2,0,-4448.7485,129.58148,-1781.6532,59.165714,752275.25,883.24615,144.6445,141.90309,146.15396,146.15396,0,1,0,0,0,0,525.4923,0,0,255,0,0,0,1,-127,15,0
True,17761031,15999.99,0,8245.345,-10.9353695,0.6666365,7.2748513,0.93125534,-0.27428937,59.88761,-0.051919773,-0.45882004,-0.09518215,-0.7417926,-0.02222587,0.051730927,0.2927669,0.31411555,0.3081348,0.322045,0.3169366,0.13608606,0.27805108,0.15956616,190.63925,189.6069,190.56433,190.60376,0,0,0,0,0,0,0,0,0,0,0,0,-0.5587258,-0.4726415,-0.19880743,-0.17575306,0.64235765,0.49184287,0.34181398,0.2373826,0.0032462776,0.0058650374,0.0077423565,0.009396173,164,6,231,2,0,-4452.898,129.69743,-1776.868,59.895477,752277.2,871.38965,144.3358,141.59625,145.71744,145.71744,0,1,0,0,0,0,525.5987,0,0,255,0,0,0,1,-124,4,0
True,17761140,15999.99,0,8325.075,-16.729631,2.6737688,7.6685452,2.2143269,-0.2535529,60.55806,-0.05012992,-0.43562713,-0.10900766,-0.7947887,-0.02519019,0.042567622,0.34608787,0.35908026,0.39127517,0.40471128,0.21352185,0.108284965,0.28823602,0.15096332,191.16847,191.3708,192.92903,192.67326,0,0,0,0,0,0,0,0,0,0,0,0,-0.22530991,-0.19797294,-0.37683964,-0.3130305,0.31041285,0.2256522,0.47443452,0.34753132,0.009786967,0.0113806985,0.017627127,0.019224584,164,6,231,2,0,-4457.202,129.8281,-1772.1753,60.59906,752268.75,863.15106,143.86366,141.1734,145.15799,145.15799,0,1,0,0,0,0,525.70435,0,0,255,0,0,0,1,0,251,0
True,17761250,15999.99,0,8426.745,-18.17942,1.9641367,7.36308,2.176342,-0.22730696,61.226135,-0.016728643,-0.17998372,-0.082894206,-0.8267559,-0.027492492,0.03368206,0.35442197,0.34686565,0.35597312,0.44447386,0.23164646,0.1359937,0.28571847,0.17542188,194.18607,193.35538,195.45163,194.68108,0,0,0,0,0,0,0,0,0,0,0,0,-0.2730641,-0.24943213,-0.33567935,-0.2738584,0.3580839,0.28409624,0.44081253,0.32522494,0.010809284,0.009882376,0.013429981,0.02395206,164,6,231,2,0,-4461.658,129.98105,-1767.6293,61.26522,752269.4,852.7086,143.39934,140.74738,144.67815,144.67815,0,1,0,0,0,0,525.80884,0,0,255,0,0,0,1,0,250,0
True,17761359,15999.99,0,8506.775,-13.867412,0.7733911,7.176114,1.1764717,-0.24066055,61.98883,-0.016650783,0.0028394922,-0.04068502,-0.83488303,-0.028849998,0.026073737,0.31699112,0.3663981,0.36630395,0.41420853,0.2063293,0.12252065,0.2184415,0.18636611,196.49069,194.99956,197.05142,196.64139,0,0,0,0,0,0,0,0,0,0,0,0,-0.1668479,-0.15081085,-0.16039954,-0.14032017,0.26534882,0.19430703,0.27100682,0.2332854,0.006217774,0.012278348,0.014658239,0.020353738,164,6,231,2,0,-4466.5205,130.15112,-1762.952,62.00046,752254.8,844.6113,142.93832,140.27158,144.10681,144.10681,0,1,0,0,0,0,525.9184,0,0,255,0,0,0,1,0,254,0
True,17761484,15999.99,0,8581.614,-6.1941943,4.973106,6.8392773,0.21824837,-0.26478767,62.887604,-0.06604159,0.028774217,-0.065510616,-0.8325316,-0.038915362,0.020021416,0.43620425,0.38220882,0.4202891,0.45458755,0.11901618,0.13060912,0.1329467,0.12888964,197.81021,197.89319,198.43901,198.3014,0,0,0,0,0,0,0,0,0,0,0,0,-0.03301226,-0.031904288,-0.026784623,-0.010805066,0.12350976,0.13444935,0.135618,0.12934174,0.020841219,0.014217794,0.021076672,0.025154501,164,6,231,2,0,-4472.4214,130.38588,-1757.489,62.88853,752267.25,837.39404,142.23364,139.68802,143.40703,143.40703,0,1,0,0,0,0,526.04724,0,0,255,0,0,0,1,0,8,0
True,17761593,15999.99,0,8709.69,0.9817643,1.1509693,6.4961796,0.0015525818,-0.24456847,63.561806,-0.034308128,0.14431338,-0.044308804,-0.82638097,-0.03976353,0.014618168,0.4109225,0.32460687,0.4110272,0.3660375,0.11866503,0.18734962,0.17311189,0.20284107,200.18051,200.79596,201.53053,201.4732,0,0,0,0,0,0,0,0,0,0,0,0,0.21227126,0.2356612,0.015796645,0.025215244,0.24318816,0.30105826,0.17383112,0.20440233,0.017739996,0.007151969,0.019975498,0.014626555,164,6,231,2,0,-4477.3643,130.6252,-1752.959,63.56227,752257.56,824.892,141.74004,139.31535,142.81763,142.81763,0,1,0,0,0,0,526.1534,0,0,255,0,0,0,1,101,17,0
True,17761687,15999.99,0,8790.248,10.086135,1.9738779,6.0818186,-0.65250206,-0.23184192,64.175835,-0.05894769,0.39601558,-0.020823982,-0.79823697,-0.0432016,0.009542585,0.43058842,0.30923173,0.48129287,0.35691044,0.11451945,0.2162403,0.12845117,0.22145857,202.49051,202.5297,203.33406,203.21593,0,0,0,0,0,0,0,0,0,0,0,0,0.4570121,0.5259263,0.11427931,0.14410861,0.47114196,0.5686461,0.17192866,0.26421806,0.020152345,0.0052659586,0.028329566,0.013541415,164,6,231,2,0,-4482.17,130.87181,-1748.4615,64.179565,752259.3,817.30145,141.22076,138.96564,142.18704,142.18704,0,1,0,0,0,0,526.2565,0,0,255,0,0,0,1,125,24,0
True,17761812,15999.99,0,8908.46,13.582066,2.2857726,6.393304,-1.8199749,-0.20721304,64.831375,0.010037081,0.2549329,-0.056611378,-0.7530198,-0.048517045,0.004788215,0.4625869,0.2717304,0.46774694,0.32851392,0.10631844,0.3352385,0.15571633,0.22604874,204.21646,207.41888,205.64555,205.73984,0,0,0,0,0,0,0,0,0,0,0,0,0.17669716,0.21420749,0.23589113,0.26956317,0.20621713,0.39783123,0.28265208,0.3517987,0.024077483,0.00066580623,0.026719056,0.010165282,164,6,231,2,0,-4487.6465,131.20407,-1743.0792,64.85725,752254.4,806.6849,140.57118,138.59138,141.50795,141.50795,0,1,0,0,0,0,526.3756,0,0,255,0,0,0,1,0,27,0
True,17761906,15999.99,0,8951.308,13.500039,0.7397473,6.7246056,-1.5684776,-0.2513404,65.452866,-0.09650588,0.11780374,-0.067871995,-0.73607254,-0.04890175,-0.004805255,0.44999653,0.24781603,0.4167516,0.27415866,0.09370395,0.13755131,0.14112136,0.19973844,205.65976,205.93155,207.03868,207.41994,0,0,0,0,0,0,0,0,0,0,0,0,0.16102844,0.1777729,0.18465354,0.2150054,0.18630779,0.22477448,0.23240517,0.2934668,0.022533067,-0.0022676848,0.02065609,0.0037028417,164,6,231,2,0,-4492.244,131.49655,-1738.3444,65.47213,752030.94,802.1337,140.10022,138.3851,140.97818,140.97818,0,1,0,0,0,0,526.47705,0,0,255,0,0,0,1,0,26,0
True,17762015,15999.99,0,9055.295,10.34878,1.9529421,5.7938704,-0.67053986,-0.22819877,66.043976,0.043737292,-0.030306082,-0.11625786,-0.73333025,-0.052910928,-0.013182659,0.45563304,0.2908378,0.5231868,0.35745206,0.14416817,0.20042968,0.18437478,0.19945706,208.01349,209.17838,209.24333,209.58711,0,0,0,0,0,0,0,0,0,0,0,0,0.09539162,0.102000095,0.06228993,0.08813483,0.17286995,0.22489126,0.19461268,0.21806161,0.02322448,0.0030096397,0.033310443,0.013605811,164,6,231,2,0,-4496.807,131.8229,-1733.4458,66.047775,752272.75,793.63727,139.51114,138.00896,140.31226,140.31226,0,1,0,0,0,0,526.57904,0,0,255,0,0,0,1,0,21,0
True,17762140,15999.99,0,9112.654,3.610856,1.6998558,5.8617315,-0.079524994,-0.23384583,66.82066,-0.08861049,-0.014816712,-0.09817557,-0.73658425,-0.054328423,-0.025506755,0.45346883,0.32426217,0.50291127,0.3534653,0.089018755,0.095985554,0.14458443,0.14176145,209.48569,209.69049,210.90213,210.93735,0,0,0,0,0,0,0,0,0,0,0,0,0.014772958,0.015217089,-0.005102713,0.012605305,0.09023624,0.09718429,0.14467445,0.14232077,0.022959001,0.0071096867,0.030899838,0.013131816,164,6,231,2,0,-4502.4634,132.2334,-1727.252,66.82112,752259.25,788.3655,138.79425,137.53195,139.54689,139.54689,0,1,0,0,0,0,526.7055,0,0,255,0,0,0,1,0,13,0
True,17762234,15999.99,0,9236.953,1.134553,1.6488217,5.306493,0.0299263,-0.20895767,67.39331,0.041910354,0.0011646698,-0.12759852,-0.73708117,-0.05806946,-0.038302783,0.44101694,0.2861275,0.48978522,0.36981457,0.15954062,0.15277757,0.19712862,0.19772762,212.5532,212.4564,213.76973,213.76115,0,0,0,0,0,0,0,0,0,0,0,0,-0.00028473587,0.0018381671,-0.014174372,0.004249637,0.15954088,0.15278862,0.19763757,0.19777328,0.021431573,0.0024318472,0.029339246,0.015075624,164,6,231,2,0,-4507.2026,132.61766,-1722.0316,67.39364,752269.56,777.9766,138.19188,137.1794,138.89635,138.89635,0,1,0,0,0,0,526.81067,0,0,255,0,0,0,1,0,6,0
True,17762359,15999.99,0,9286.51,6.128581,1.7488889,5.646438,-0.047901154,-0.2512681,68.06435,-0.06782914,0.2252798,-0.025036292,-0.7258266,-0.059699785,-0.04689788,0.45036522,0.34484452,0.43950936,0.32644436,0.09321613,0.15178303,0.11639906,0.15778628,213.9209,214.05843,214.81068,214.64102,0,0,0,0,0,0,0,0,0,0,0,0,0.30488983,0.3473217,0.026310515,0.037053626,0.31882134,0.37903884,0.11933559,0.16207862,0.022578292,0.00963445,0.023361817,0.00991923,164,6,231,2,0,-4512.55,133.05222,-1716.0964,68.06483,752261.06,773.66907,137.59448,136.75705,138.28874,138.28874,0,1,0,0,0,0,526.9288,0,0,255,0,0,0,1,127,251,0
True,17762453,15999.99,0,9380.114,8.831577,1.4463869,5.4942207,-1.1284294,-0.19142342,68.5659,-0.004977897,0.27524853,-0.061324917,-0.69477546,-0.059934177,-0.05388206,0.4737314,0.31824094,0.4849958,0.3909882,0.10401653,0.1463677,0.148039,0.21344298,215.88577,215.43158,217.16484,217.14333,0,0,0,0,0,0,0,0,0,0,0,0,0.08535288,0.091960825,0.15164132,0.18131518,0.13455316,0.17285918,0.2119213,0.2800591,0.025444537,0.0063710846,0.02876982,0.017593015,164,6,231,2,0,-4517.065,133.44853,-1710.93,68.575455,752264.6,765.96356,137.02303,136.37918,137.62549,137.62549,0,1,0,0,0,0,527.0294,0,0,255,0,0,0,1,0,241,0
True,17762578,15999.99,0,9458.6045,10.364621,0.51210093,5.3790812,-1.1024094,-0.18134502,69.18077,-0.047032617,0.07522519,-0.023329606,-0.6770259,-0.059688345,-0.059721384,0.4438081,0.3175939,0.45266104,0.31939647,0.086331174,0.10491034,0.16849285,0.20392461,217.05498,217.04301,219.09877,219.29166,0,0,0,0,0,0,0,0,0,0,0,0,0.108336896,0.11320217,0.12540986,0.14696832,0.13852781,0.15434024,0.2100416,0.25136614,0.021773957,0.0062917173,0.024925455,0.009081285,164,6,231,2,0,-4522.241,133.91432,-1704.8066,69.1898,752270.4,759.4835,136.44249,136.02058,136.93045,136.93045,0,1,0,0,0,0,527.14594,0,0,255,0,0,0,1,0,228,0
True,17762671,15999.99,0,9523.012,7.9946895,2.8867724,5.366854,-0.48813248,-0.19679075,69.71736,0.012682481,0.0028514946,-0.043281794,-0.6734103,-0.0652638,-0.061859954,0.47410414,0.36899203,0.51997405,0.41487503,0.116006136,0.16886471,0.1429608,0.15526223,219.04994,220.10812,220.01804,220.21959,0,0,0,0,0,0,0,0,0,0,0,0,0.1091912,0.11859678,0.038588494,0.06486328,0.15931146,0.2063504,0.14807722,0.16826648,0.025490262,0.01259654,0.032928474,0.020432979,164,6,231,2,0,-4526.7334,134.3485,-1699.3171,69.719345,752262.9,754.62244,135.84798,135.5373,136.36447,136.36447,0,1,0,0,0,0,527.2483,0,0,255,0,0,0,1,20,215,0
True,17762781,15999.99,0,9601.055,8.475714,0.55214334,5.0364566,-0.3493843,-0.2236731,70.23545,-0.008707486,0.21267596,0.00951335,-0.6635522,-0.064593226,-0.06551229,0.39250097,0.31724364,0.44195336,0.34421903,0.13278985,0.19538389,0.12788354,0.17411777,221.42783,221.74423,221.83238,221.78862,0,0,0,0,0,0,0,0,0,0,0,0,0.37831557,0.41333085,0.054405753,0.06884697,0.40094367,0.45718405,0.13897549,0.1872349,0.015480295,0.00624875,0.02365239,0.012032501,164,6,231,2,0,-4531.301,134.80197,-1693.6143,70.23667,752251.06,748.38696,135.40215,135.20618,135.8185,135.8185,0,1,0,0,0,0,527.35284,0,0,255,0,0,0,1,117,206,0
True,17762906,15999.99,0,9678.6455,11.60268,-0.1493773,5.3312864,-1.5309868,-0.23028028,70.72007,-0.045727726,0.426836,0.02690555,-0.6281843,-0.061804328,-0.06561032,0.367398,0.28146133,0.3918208,0.31783292,0.096394815,0.18936826,0.1294468,0.22378764,222.78156,222.70306,223.97766,223.91473,0,0,0,0,0,0,0,0,0,0,0,0,0.3455552,0.39758855,0.20398106,0.23398311,0.35874832,0.44038278,0.24158797,0.3237731,0.012401003,0.0018594638,0.017692,0.00889539,164,6,231,2,0,-4535.9346,135.25975,-1687.6454,70.737,752263.56,742.21295,134.98221,134.88454,135.31299,135.31299,0,1,0,0,0,0,527.46027,0,0,255,0,0,0,1,84,199,0
True,17763015,15999.99,0,9826.233,19.412632,0.08598037,4.002776,-3.1214848,-0.19765085,71.06516,0.027449919,0.48159125,0.009472529,-0.57527226,-0.059298307,-0.06719583,0.37743357,0.2583325,0.42107168,0.2921124,0.18194951,0.4057181,0.18915388,0.33758974,225.48433,227.75716,226.80472,227.3962,0,0,0,0,0,0,0,0,0,0,0,0,0.7338424,0.8547603,0.3833221,0.44987392,0.7560623,0.94616187,0.42745176,0.56245303,0.013632033,-0.0009776689,0.021169715,0.0058374144,164,6,231,2,0,-4540.697,135.74709,-1681.1696,71.13395,752263.44,731.3297,134.52444,134.58759,134.75378,134.75378,0,1,0,0,0,0,527.5737,0,0,255,0,0,0,1,127,193,0
True,17763109,15999.99,0,9772.273,21.53804,0.2625951,3.9648352,-4.70545,-0.15939045,71.216965,0.023587013,0.49285132,0.02105766,-0.518786,-0.055406004,-0.06767549,0.39093012,0.25601146,0.42513135,0.2920399,0.13739228,0.3738706,0.1234332,0.255978,224.508,226.88647,225.5336,225.82602,0,0,0,0,0,0,0,0,0,0,0,0,0.8989736,1.073008,0.53150934,0.63962966,0.90941197,1.136277,0.54565364,0.68894905,0.015287604,-0.0012623817,0.021652378,0.005828794,164,6,231,2,0,-4545.102,136.20166,-1674.7585,71.37242,413587.66,404.1038,134.14674,134.33817,134.26807,134.26807,0,1,0,0,0,0,527.68304,0,0,38,0,0,0,1,72,188,0
True,17763234,15999.99,0,9521.642,27.455347,1.5210173,0.25250816,-5.1198406,-0.026009083,70.91879,-0.043284506,0.3150675,0.09859575,-0.46722504,-0.052615147,-0.06340091,0.42634445,0.30392772,0.4137251,0.26617846,-7.020858E-05,0.0030530982,-0.004046596,0.014935002,220.61794,219.1238,220.48592,219.33856,0,0,0,0,0,0,0,0,0,0,0,0,0.45888925,0.57151526,0.52487075,0.6617832,0.45888925,0.5715234,0.5248863,0.6619517,0.019631755,0.004615333,0.02029626,0.0027540587,164,6,231,2,0,-4549.697,136.68732,-1667.4833,71.103355,-99757.125,-100,133.69832,134.00043,133.7721,133.7721,0,1,0,0,0,0,527.80396,0,0,0,0,0,0,1,0,181,0
True,17763343,15999.99,0,9434.695,25.167814,-0.1358884,-2.5512013,-3.8006191,0.083902,70.468216,0.03794743,0.08378723,0.016498946,-0.44778696,-0.0506888,-0.059561357,0.46449384,0.30306503,0.45780584,0.2758531,-0.0060474426,-0.016959257,-0.01360837,-0.04000425,218.44977,217.81061,218.2506,217.26877,0,0,0,0,0,0,0,0,0,0,0,0,0.41134852,0.46058053,0.4167885,0.50843495,0.41139296,0.46089265,0.4170106,0.5100063,0.024311401,0.0045095123,0.025537133,0.003904298,164,6,231,2,0,-4553.337,137.10455,-1661.1019,70.57068,-98814.62,-100,133.21367,133.63445,133.25638,133.25638,0,1,0,0,0,0,527.9079,0,0,0,0,0,0,1,0,173,0
True,17763453,15999.99,0,9390.991,20.203398,-0.15781417,-3.6276526,-1.9049473,0.04946983,70.06149,-0.02840868,-0.030465538,0.005581733,-0.44530496,-0.05037062,-0.056919463,0.42142424,0.30939394,0.38740468,0.25298104,-0.0046328697,-0.010672796,-0.010249685,-0.02064803,216.99794,217.01889,216.84526,216.77704,0,0,0,0,0,0,0,0,0,0,0,0,0.21191539,0.24063128,0.20044759,0.23006272,0.21196602,0.24086785,0.20070948,0.23098744,0.01902821,0.0052858554,0.017166957,0.0011849813,164,6,231,2,0,-4556.87,137.50763,-1654.4159,70.0874,-98353.14,-100,132.8127,133.30229,132.8246,132.8246,0,1,0,0,0,0,528.0156,0,0,0,0,0,0,1,0,165,0
True,17763546,15999.99,0,9340.37,10.363344,0.18114272,-3.5214407,-0.41738892,0.018044949,69.68349,0.0031891912,-0.06961964,-0.044517163,-0.4519603,-0.05188383,-0.060174204,0.40434,0.30561614,0.38598913,0.27660328,-0.006241731,-0.007211991,-0.012286809,-0.015471427,215.66592,215.9842,215.51141,215.7882,0,0,0,0,0,0,0,0,0,0,0,0,0.09152325,0.09590453,0.038362574,0.0424885,0.09173585,0.09617531,0.040282164,0.04521767,0.016932547,0.004822448,0.01699866,0.003993489,164,6,231,2,0,-4560.143,137.89458,-1647.8685,69.68474,-97824.04,-100,132.35587,132.94502,132.34552,132.34552,0,1,0,0,0,0,528.1204,0,0,0,0,0,0,1,8,158,0
True,17763671,15999.99,0,9277.533,7.4656606,0.9282392,-3.755286,-0.025577545,0.03937924,69.236145,0.029573416,0.1843239,-0.017153602,-0.4463302,-0.053196173,-0.06407978,0.45622173,0.3542788,0.4173763,0.31415972,-0.0073355497,-0.006128859,-0.012528242,-0.011634713,214.65327,213.7805,214.71281,213.85423,0,0,0,0,0,0,0,0,0,0,0,0,0.3480762,0.37276533,0.021850761,0.029880531,0.34815347,0.37281573,0.025187548,0.032065757,0.023296691,0.010791719,0.020730361,0.008458678,164,6,231,2,0,-4563.744,138.33499,-1640.4652,69.23616,-97172.695,-100,131.76918,132.4745,131.77962,131.77962,0,1,0,0,0,0,528.23914,0,0,0,0,0,0,1,127,155,0
True,17763765,15999.99,0,9219.04,12.269421,0.0878366,-3.8385384,-0.85632896,0.040264368,68.81649,-0.0055528525,0.4256284,0.02930394,-0.41568083,-0.050741192,-0.063026786,0.43257514,0.35422727,0.39846945,0.31567878,-0.0063264733,-0.009014329,-0.012111025,-0.009838035,213.73994,211.59726,214.02997,212.04887,0,0,0,0,0,0,0,0,0,0,0,0,0.49409094,0.58211946,0.14209375,0.16302596,0.49413145,0.58218926,0.14260894,0.16332254,0.02039605,0.010785401,0.01848248,0.00863928,164,6,231,2,0,-4566.656,138.69647,-1634.2477,68.82182,-96560.35,-100,131.38184,132.12311,131.3143,131.3143,0,1,0,0,0,0,528.3387,0,0,0,0,0,0,1,127,156,0
True,17763890,15999.99,0,9146.522,16.834993,-0.32689115,-3.1567414,-2.8145447,0.057298064,68.25753,0.04771537,0.41925645,0.03244356,-0.35665706,-0.046626218,-0.06342399,0.38068616,0.3166131,0.36255938,0.29210582,-0.004565251,-0.016198954,-0.0122737745,-0.015438763,212.45415,210.15642,212.2351,210.15736,0,0,0,0,0,0,0,0,0,0,0,0,0.26048562,0.29704168,0.3631585,0.41649225,0.2605256,0.29748306,0.36336586,0.41677833,0.014031015,0.0061714053,0.014213037,0.005836632,164,6,231,2,0,-4569.9463,139.1187,-1626.7343,68.31556,-95800.86,-100,130.97128,131.74654,130.85313,130.85313,0,1,0,0,0,0,528.4585,0,0,0,0,0,0,1,0,158,0
True,17764000,15999.99,0,9074.971,19.285402,-1.3843734,-3.0430386,-2.9928226,0.051081657,67.75375,0.02774333,0.18293987,0.019046657,-0.32122907,-0.04145275,-0.06098142,0.39238188,0.28308082,0.3325697,0.24716899,-0.0042698514,-0.022031156,-0.011342041,-0.02369294,210.22995,208.9599,210.13832,209.01184,0,0,0,0,0,0,0,0,0,0,0,0,0.3933166,0.47011912,0.35611656,0.41682392,0.39333978,0.47063506,0.35629714,0.41749677,0.015465688,0.0020581186,0.010647483,0.0004939735,164,6,231,2,0,-4572.922,139.49452,-1619.3275,67.81984,-95049.28,-100,130.57893,131.42322,130.49092,130.49092,0,1,0,0,0,0,528.5759,0,0,0,0,0,0,1,56,161,0
True,17764125,15999.99,0,9011.208,20.869308,1.105078,-3.1565514,-2.5274773,0.076480985,67.23811,0.0027069263,0.233101,0.032574803,-0.29091424,-0.04162173,-0.057005536,0.44716635,0.32453594,0.406272,0.27637064,-0.0039517586,-0.014598393,-0.0109016225,-0.018746935,208.88788,207.53152,208.69945,207.41107,0,0,0,0,0,0,0,0,0,0,0,0,0.249078,0.2895081,0.30851564,0.36157385,0.24910936,0.28987592,0.3087082,0.3620595,0.0221859,0.00714327,0.019410145,0.0039658323,164,6,231,2,0,-4575.6704,139.8552,-1611.7186,67.285645,-94381.09,-100,130.12695,131.04889,130.02507,130.02507,0,1,0,0,0,0,528.6958,0,0,0,0,0,0,1,0,163,0
True,17764234,15999.99,0,8989.514,17.639618,1.1430128,-2.9321804,-1.6154575,0.050806522,66.87352,0.001406328,0.033497807,-0.0013670038,-0.27664903,-0.042793445,-0.05628532,0.4568316,0.32446885,0.42484578,0.27537218,0.009678266,0.010561657,0.01061151,0.015451631,207.63039,207.47014,207.68747,207.59244,0,0,0,0,0,0,0,0,0,0,0,0,0.19124779,0.20901994,0.18159555,0.21130733,0.19149251,0.20928662,0.18190533,0.21187152,0.023371503,0.007135041,0.021618426,0.003847126,164,6,231,2,0,-4577.8765,140.17537,-1604.9186,66.89304,57367.33,60.939823,129.68619,130.70981,129.58446,129.58446,0,1,0,0,0,0,528.8025,0,0,106,0,0,0,1,0,165,0
True,17764343,15999.99,0,9111.422,9.235123,-1.2911717,0.4224317,-0.59575844,-0.042688727,66.93949,0.026222628,-0.04165588,-0.04697676,-0.27833432,-0.041561134,-0.059451625,0.4186654,0.31766537,0.40242893,0.30622295,0.101729505,0.11648735,0.12527867,0.13102397,209.78734,210.27574,210.53299,210.73915,0,0,0,0,0,0,0,0,0,0,0,0,0.08634537,0.09003261,0.06434518,0.072132915,0.13343318,0.1472249,0.14083695,0.1495675,0.018689793,0.006300483,0.018953227,0.007515054,164,6,231,2,0,-4579.932,140.48404,-1598.1,66.942154,508137.34,532.7533,129.28415,130.37074,129.14888,129.14888,0,1,0,0,0,0,528.9091,0,0,255,0,0,0,1,0,170,0
True,17764453,15999.99,0,9206.609,3.7349482,0.08507316,4.6899037,-0.033540726,-0.19607484,67.48999,-0.09436633,-0.0296659,-0.048886128,-0.2824302,-0.04348442,-0.06301157,0.41456878,0.35295844,0.38478938,0.3281235,0.09779701,0.10287312,0.14512777,0.14171085,211.73566,211.96916,213.00793,213.06909,0,0,0,0,0,0,0,0,0,0,0,0,0.010804181,0.0111745605,-0.0014868177,0.0029092722,0.098391995,0.10347825,0.14513539,0.14174071,0.018187273,0.0106297545,0.016856015,0.010118868,164,6,231,2,0,-4581.914,140.76491,-1591.3281,67.49028,752255.2,780.2704,128.91318,130.0267,128.74623,128.74623,0,1,0,0,0,0,529.01416,0,0,255,0,0,0,1,0,179,0
True,17764562,15999.99,0,9377.643,0.54415166,-1.7709306,5.194117,0.12594604,-0.23396742,68.127975,0.044379033,-0.008245223,-0.013804853,-0.2844153,-0.043381393,-0.06792115,0.31732202,0.28050438,0.38428083,0.3674317,0.16622116,0.16151749,0.26684785,0.26157227,215.02089,215.00085,217.42012,217.41286,0,0,0,0,0,0,0,0,0,0,0,0,-0.014102361,-0.012755191,-0.02090428,-0.013070409,0.1668183,0.16202036,0.26766542,0.2618986,0.0062583648,0.0017420761,0.016795557,0.014792319,164,6,231,2,0,-4584.1875,141.1082,-1583.5002,68.128494,752265.1,766.0757,128.5593,129.70914,128.27847,128.27847,0,1,0,0,0,0,529.1344,0,0,255,0,0,0,1,0,192,0
True,17764671,15999.99,0,9393.533,-0.46472764,1.0107497,5.7017317,0.12886238,-0.29982948,68.743065,0.029165622,0.013651722,-0.031180905,-0.28455716,-0.046310417,-0.07062629,0.371738,0.3184988,0.38118812,0.35383195,0.15731539,0.17387716,0.14370246,0.14078459,216.82251,217.13145,216.95929,216.87794,0,0,0,0,0,0,0,0,0,0,0,0,0.1182682,0.12442184,-0.014789241,-0.009310576,0.19681336,0.21380848,0.14446148,0.14109212,0.012933373,0.006402716,0.016427856,0.013175409,164,6,231,2,0,-4586.167,141.39574,-1576.6953,68.743835,752258.4,765.09875,128.18842,129.37315,127.945114,127.945114,0,1,0,0,0,0,529.238,0,0,255,0,0,0,1,49,208,0
True,17764781,15999.99,0,9467.009,6.9332223,0.1001503,5.5056562,-0.057331085,-0.27077758,69.324196,-0.059963197,0.25681847,0.067236975,-0.27051866,-0.043813065,-0.06932628,0.4065048,0.39057696,0.42330512,0.37841526,0.10604785,0.1652022,0.12177658,0.17420009,218.14723,218.15854,218.9578,218.83672,0,0,0,0,0,0,0,0,0,0,0,0,0.39305082,0.44199976,0.029075563,0.041501984,0.40710574,0.47186393,0.12519954,0.17907564,0.017198097,0.015244283,0.021435253,0.016098183,164,6,231,2,0,-4588.237,141.69669,-1569.4668,69.32474,752268.6,758.8045,127.796265,128.97299,127.48012,127.48012,0,1,0,0,0,0,529.34705,0,0,255,0,0,0,1,127,226,0
True,17764890,15999.99,0,9586.976,12.786058,0.8785256,5.0627604,-1.5175905,-0.19658232,69.79762,0.016440937,0.50613576,0.0980741,-0.22765444,-0.04252654,-0.06335888,0.4076728,0.40328005,0.4708651,0.46312842,0.14675963,0.3001726,0.14098667,0.25486207,220.88219,221.63025,221.50702,221.46872,0,0,0,0,0,0,0,0,0,0,0,0,0.5760238,0.66317207,0.21093751,0.2584984,0.5944256,0.7279428,0.25371614,0.36300978,0.017341368,0.016802527,0.027089782,0.026169948,164,6,231,2,0,-4590.1973,142.01103,-1562.118,69.81439,752261.06,749.5415,127.447205,128.56366,127.004555,127.004555,0,1,0,0,0,0,529.4564,0,0,255,0,0,0,1,127,241,0
True,17765000,15999.99,0,9728.151,15.960331,-1.794749,5.1321435,-3.7629137,-0.16972172,70.12496,-0.0049326457,0.5671382,0.09243497,-0.17000914,-0.036093764,-0.055481322,0.34192938,0.29279795,0.39207327,0.33699727,0.13290891,0.3524418,0.231966,0.41891828,222.24706,223.94295,225.11755,225.91672,0,0,0,0,0,0,0,0,0,0,0,0,0.39699396,0.46205235,0.46937323,0.55524343,0.41865137,0.58112615,0.52356416,0.69554853,0.009276859,0.0032500848,0.017722022,0.011173889,164,6,231,2,0,-4591.956,142.30312,-1554.8265,70.22605,742398.9,728.63495,127.227585,128.39142,126.67755,126.67755,0,1,0,0,0,0,529.5636,0,0,255,0,0,0,1,0,252,0
True,17765109,15999.99,0,9801.823,22.065733,-0.48888665,5.368759,-4.5548105,-0.18913841,70.477295,0.062365815,0.3184667,0.07971998,-0.12303609,-0.035097,-0.045616616,0.34879524,0.30818957,0.39520308,0.33466175,0.18198933,0.5337602,0.22716247,0.38191798,223.84541,229.42342,225.72989,226.71904,0,0,0,0,0,0,0,0,0,0,0,0,0.48313996,0.55224144,0.5178013,0.6217889,0.51627934,0.76803035,0.56543875,0.7297142,0.010119069,0.0051381215,0.018094134,0.010896213,164,6,231,2,0,-4593.4683,142.57521,-1547.5398,70.62458,726138.6,707.88477,126.9664,128.08469,126.42406,126.42406,0,1,0,0,0,0,529.6693,0,0,255,0,0,0,1,0,1,0
True,17765218,15999.99,0,9774.093,22.561163,-0.57502455,6.08695,-4.211919,-0.22627282,70.94951,-0.048238166,0.18201314,0.08262597,-0.09532428,-0.03282701,-0.03873196,0.3305223,0.21807924,0.36718956,0.26342902,0.11320295,0.29552862,0.17111821,0.2840359,223.63684,226.49017,225.63087,226.54376,0,0,0,0,0,0,0,0,0,0,0,0,0.40809628,0.49236238,0.4254186,0.52596366,0.42350617,0.57424545,0.45854378,0.5977576,0.007877596,-0.0059153885,0.01476353,0.002427172,164,6,231,2,0,-4594.78,142.82208,-1540.0215,71.074776,752264.4,734.83813,126.75138,127.968346,126.16144,126.16144,0,1,0,0,0,0,529.7771,0,0,255,0,0,0,1,0,255,0
True,17765328,15999.99,0,9788.67,17.608528,1.7530117,5.593411,-2.4654822,-0.2550025,71.53142,0.027129875,-0.086155735,-0.034357492,-0.09021518,-0.036966126,-0.034085892,0.3825908,0.2814346,0.46618754,0.33965108,0.15783238,0.18251373,0.1541121,0.16061889,225.55107,226.4268,225.92944,226.28157,0,0,0,0,0,0,0,0,0,0,0,0,-0.22928901,-0.21375813,0.24046168,0.2648808,0.2783604,0.28107613,0.28560874,0.30977455,0.014264651,0.0018561855,0.026533656,0.01148941,164,6,231,2,0,-4595.84,143.08533,-1532.2593,71.57434,752259.7,734.1085,126.42236,127.66513,125.79703,125.79703,0,1,0,0,0,0,529.887,0,0,255,0,0,0,1,-101,245,0
True,17765437,15999.99,0,9844.462,5.735296,-0.5295043,5.4049473,-0.2049694,-0.30061018,72.2202,-0.044797216,-0.19142091,0.007214178,-0.11471542,-0.035517048,-0.033540536,0.30976534,0.3039689,0.33275443,0.30409586,0.09738659,0.10172137,0.14795879,0.12942606,226.10558,227.06691,227.58914,227.94649,0,0,0,0,0,0,0,0,0,0,0,0,0.054010127,0.055380974,-0.0016801066,6.285632E-05,0.11136086,0.11582007,0.14796832,0.12942608,0.0053314157,0.004620388,0.0106694475,0.007262159,164,6,231,2,0,-4596.929,143.37247,-1523.3306,72.2211,752268.94,729.7258,126.15645,127.363495,125.492676,125.492676,0,1,0,0,0,0,530.0123,0,0,255,0,0,0,1,0,231,0
True,17765546,15999.99,0,9926.086,-0.9927993,1.1538156,5.059504,0.5204458,-0.27922845,72.74068,0.0062738582,-0.068996005,0.020892795,-0.12790191,-0.038195852,-0.034127805,0.31497085,0.33550712,0.37225276,0.36227775,0.14633688,0.10384791,0.15353231,0.13563237,229.00784,228.43942,229.53993,229.49286,0,0,0,0,0,0,0,0,0,0,0,0,-0.05148765,-0.046744794,-0.06912187,-0.061614484,0.15513046,0.11388356,0.1683746,0.14897142,0.0059699565,0.008489065,0.015365504,0.01417955,164,6,231,2,0,-4597.8384,143.62752,-1515.7048,72.74307,752263.75,723.8729,125.81551,127.00965,125.11692,125.11692,0,1,0,0,0,0,530.1183,0,0,255,0,0,0,1,0,219,0
True,17765671,15999.99,0,10004.922,-4.267767,-0.4612221,4.9110227,0.40890312,-0.25835228,73.2651,-0.003473739,-0.09468788,-0.0064252056,-0.13338473,-0.036985263,-0.031459637,0.30411896,0.3448451,0.34934464,0.4062314,0.14505251,0.10670469,0.16892083,0.14530332,230.57596,230.16158,231.45001,231.41403,0,0,0,0,0,0,0,0,0,0,0,0,-0.2220083,-0.20479563,-0.05889723,-0.049002863,0.26519412,0.23092669,0.17889419,0.15334386,0.004638795,0.009634521,0.012641903,0.019405317,164,6,231,2,0,-4598.8135,143.89264,-1507.892,73.26669,752252.7,718.0708,125.508606,126.61658,124.757935,124.757935,0,1,0,0,0,0,530.22614,0,0,255,0,0,0,1,-127,207,0
True,17765796,15999.99,0,10109.102,-7.5209837,-0.82480896,4.7171164,1.0962105,-0.22451925,73.83706,0.052200884,-0.14395906,0.040114246,-0.15730025,-0.036845006,-0.026935028,0.2898006,0.39069977,0.36282864,0.46506864,0.17450696,0.13277355,0.20681475,0.16295499,232.83412,232.62172,233.94841,233.77824,0,0,0,0,0,0,0,0,0,0,0,0,-0.10605305,-0.099969596,-0.14859481,-0.12654848,0.2042056,0.16620089,0.25466204,0.2063222,0.0028824136,0.015259348,0.014245048,0.026400626,164,6,231,2,0,-4600.0864,144.21378,-1498.5752,73.84554,752254.56,710.76117,125.17828,126.12981,124.344376,124.344376,0,1,0,0,0,0,530.354,0,0,255,0,0,0,1,0,196,0
True,17765890,15999.99,0,10132.525,-8.825679,1.8244973,4.9230976,0.88522625,-0.24569774,74.351074,-0.0022134474,-0.02212872,0.059858274,-0.16676407,-0.039911278,-0.02296864,0.31905216,0.436161,0.35399756,0.46417707,0.13715169,0.09692287,0.13593498,0.11878384,233.92984,233.20811,234.3389,234.14503,0,0,0,0,0,0,0,0,0,0,0,0,-0.10116806,-0.093946494,-0.101066776,-0.08340908,0.17042759,0.13498142,0.16938953,0.14514364,0.0064705946,0.020835914,0.013195097,0.026294626,164,6,231,2,0,-4601.2393,144.48056,-1490.8911,74.35675,752265.4,709.1304,124.909386,125.71823,124.08748,124.08748,0,1,0,0,0,0,530.4589,0,0,255,0,0,0,1,0,189,0
True,17766000,15999.99,0,10212.1,-6.1811814,1.4168926,4.5493846,0.36231518,-0.23576641,74.82261,0.03487067,-0.028436355,0.045585476,-0.16766834,-0.041464202,-0.016917055,0.31822202,0.4361272,0.37113094,0.4809439,0.17430395,0.12720965,0.14129215,0.13289626,236.23004,235.31213,235.89905,235.86627,0,0,0,0,0,0,0,0,0,0,0,0,-0.20220396,-0.18828139,-0.046330497,-0.030394385,0.26696125,0.22722714,0.14869428,0.13632767,0.0063687637,0.020831764,0.015232135,0.028288074,164,6,231,2,0,-4602.47,144.77191,-1483.2288,74.82385,752255.1,703.7348,124.61287,125.279884,123.730064,123.730064,0,1,0,0,0,0,530.563,0,0,255,0,0,0,1,-127,185,0
True,17766109,15999.99,0,10273.592,-4.2397723,-1.4714036,4.7120347,0.5430374,-0.26740408,75.30692,-0.008419971,-0.05972258,0.033294514,-0.17590174,-0.03852474,-0.013277152,0.24560502,0.33552378,0.2855577,0.36418983,0.13546577,0.10361926,0.15217029,0.13682978,236.87387,236.46286,237.60728,237.56386,0,0,0,0,0,0,0,0,0,0,0,0,-0.053243794,-0.049348656,-0.065214865,-0.061075855,0.1455537,0.11477038,0.16555595,0.14984208,-0.0025389008,0.00849111,0.005058106,0.014406886,164,6,231,2,0,-4603.785,145.0581,-1475.3873,75.30935,752264.1,699.2786,124.47041,125.0213,123.5064,123.5064,0,1,0,0,0,0,530.66895,0,0,255,0,0,0,1,0,181,0
True,17766218,15999.99,0,10361.257,-3.4531393,-1.8020039,4.6220255,0.33347225,-0.28355193,75.84581,0.02724079,0.0013104024,0.020344866,-0.1784725,-0.036313847,-0.008410643,0.27040896,0.33838755,0.32116628,0.39408162,0.13601238,0.12522864,0.16486073,0.16222495,238.71478,238.44319,239.6799,239.6637,0,0,0,0,0,0,0,0,0,0,0,0,-0.03940711,-0.037017543,-0.03753911,-0.03141668,0.1416061,0.13058527,0.16908059,0.16523905,0.0005037077,0.0088423975,0.009291701,0.017960798,164,6,231,2,0,-4605.345,145.36928,-1466.3962,75.84707,752266.9,693.4047,124.15085,124.60651,123.153625,123.153625,0,1,0,0,0,0,530.78973,0,0,255,0,0,0,1,0,179,0
True,17766343,15999.99,0,10464.214,-1.089641,-3.6867337,4.241331,0.08964157,-0.2886033,76.36946,0.05745272,0.013359711,0.04270315,-0.17734563,-0.030772619,-0.0043181474,0.23485339,0.2958205,0.30642495,0.32984108,0.14459695,0.15414844,0.20756352,0.20094277,240.51512,240.67238,242.32492,242.1667,0,0,0,0,0,0,0,0,0,0,0,0,-0.014272386,-0.012935086,-0.010516641,-0.00818942,0.14529961,0.1546902,0.20782977,0.20110957,-0.0038577653,0.0036208518,0.0075390674,0.010323074,164,6,231,2,0,-4606.94,145.64508,-1457.3914,76.370056,752266,686.5931,123.8909,124.285995,122.83793,122.83793,0,1,0,0,0,0,530.9099,0,0,255,0,0,0,1,0,177,0
True,17766453,15999.99,0,10480.365,-0.45342833,-0.7253785,4.4865007,-0.0129032135,-0.33087325,76.85727,0.03794812,0.0069620125,0.0046863942,-0.17630953,-0.03065982,-0.0016919909,0.29228052,0.2993601,0.30096993,0.33823794,0.13664588,0.14469317,0.1288814,0.12963529,241.88602,242.02434,242.08604,242.08255,0,0,0,0,0,0,0,0,0,0,0,0,-0.00093178015,0.0011782913,0.0018446523,0.0035487055,0.13664906,0.14469796,0.1288946,0.12968385,0.0031866133,0.004055042,0.0068905056,0.011321399,164,6,231,2,0,-4608.338,145.8551,-1449.5481,76.85797,752262.2,685.65533,123.664795,123.99497,122.62767,122.62767,0,1,0,0,0,0,531.01385,0,0,255,0,0,0,1,0,176,0
True,17766562,15999.99,0,10558.746,0.37486193,-2.4516773,4.412852,-0.030311584,-0.31961644,77.38618,0.02574379,0.0011933116,0.016653733,-0.17586458,-0.025628451,-0.00041865237,0.23593508,0.27320072,0.28845826,0.32519993,0.1300913,0.122663654,0.14494105,0.14916834,243.38277,243.20776,244.1024,244.19502,0,0,0,0,0,0,0,0,0,0,0,0,0.001979969,0.0032839463,0.002969857,0.0040586176,0.13010636,0.122707605,0.14497146,0.14922355,-0.003725078,0.00084616616,0.0054029636,0.009771273,164,6,231,2,0,-4609.967,146.07317,-1440.4098,77.38685,752266.44,680.4527,123.43882,123.6775,122.30887,122.30887,0,1,0,0,0,0,531.1343,0,0,255,0,0,0,1,0,174,0
True,17766687,15999.99,0,10604.941,-0.08768749,-0.2627707,4.377473,-0.015034676,-0.3348087,77.85347,0.016326107,-0.000747739,-0.020677155,-0.17585243,-0.025482005,0.00012340954,0.3436513,0.31023675,0.34383845,0.32968935,0.12323435,0.12258224,0.12020048,0.121632524,244.73723,244.69272,245.01212,245.03731,0,0,0,0,0,0,0,0,0,0,0,0,0.0013978451,0.0034219585,0.0003802199,0.0032393134,0.123242274,0.12262999,0.12020108,0.12167565,0.009488083,0.0053892396,0.011987258,0.010305036,164,6,231,2,0,-4611.405,146.24538,-1432.333,77.85419,752251.4,677.5479,123.115295,123.37457,122.02443,122.02443,0,1,0,0,0,0,531.24005,0,0,255,0,0,0,1,0,173,0
True,17766796,15999.99,0,10673.836,-0.2386452,-1.5228627,4.657836,0.0001821518,-0.3128512,78.36802,-0.013898812,-0.001070115,0.009266678,-0.17599642,-0.0214914,-7.1193084E-05,0.28978837,0.2963566,0.31761703,0.31874427,0.10655133,0.10335961,0.12772587,0.12781371,245.9664,245.901,246.81735,246.81696,0,0,0,0,0,0,0,0,0,0,0,0,-0.00068816816,0.00038574034,-0.0012226572,0.00047381027,0.10655355,0.10336033,0.12773173,0.12781459,0.0028809123,0.0036866106,0.008869726,0.0090037435,164,6,231,2,0,-4613.034,146.42004,-1423.1685,78.36864,752268.9,673.0285,122.854706,123.079666,121.69829,121.69829,0,1,0,0,0,0,531.35925,0,0,255,0,0,0,1,0,171,0
True,17766937,15999.99,0,10775.635,-1.9477944,-2.3952577,4.1686363,0.005126953,-0.2966081,78.958664,0.003841249,-0.010871081,0.006083606,-0.17632775,-0.017949626,-0.0016644609,0.28362605,0.28144485,0.32353878,0.31260034,0.11849885,0.100544766,0.15997133,0.15597597,248.0883,247.73874,249.38986,249.34802,0,0,0,0,0,0,0,0,0,0,0,0,-0.028831681,-0.026965054,-0.003140414,-0.0011920138,0.12195591,0.10409786,0.16000216,0.15598053,0.0021250024,0.0018574409,0.009573776,0.008273274,164,6,231,2,0,-4614.995,146.60454,-1412.1488,78.95921,752214.94,666.5668,122.4737,122.71834,121.28616,121.28616,0,1,0,0,0,0,531.5016,0,0,255,0,0,0,1,-7,169,0
True,17767046,15999.99,0,10813.068,-1.1974382,0.39831284,3.9262679,0.17932034,-0.29217815,79.43683,-0.0028556387,-0.05361281,-0.0053825667,-0.18103106,-0.019180808,-0.0003165414,0.34519574,0.35138652,0.3724756,0.39664912,0.10360756,0.10319506,0.12534893,0.116328046,249.11826,249.3557,249.96205,250.00836,0,0,0,0,0,0,0,0,0,0,0,0,-0.010816672,-0.009355356,-0.025838075,-0.018380933,0.10417066,0.10361826,0.12798421,0.117771275,0.009677533,0.0104369335,0.015391998,0.018266052,164,6,231,2,0,-4616.56,146.73624,-1403.425,79.43756,752256.4,664.42834,122.119965,122.32915,120.9325,120.9325,0,1,0,0,0,0,531.61346,0,0,255,0,0,0,1,0,168,0
True,17767156,15999.99,0,10920.51,-1.5410131,-3.1546836,3.939448,0.261549,-0.26863986,79.89267,0.050290402,-0.011975852,-0.017325222,-0.18442321,-0.014279167,-0.0019566708,0.30081472,0.2979149,0.33752504,0.3418342,0.14060274,0.1273368,0.17727216,0.17297469,251.44485,251.19176,252.69179,252.67386,0,0,0,0,0,0,0,0,0,0,0,0,-0.026347972,-0.024334198,-0.029821754,-0.025989832,0.14305015,0.1296411,0.17976305,0.17491631,0.004233472,0.0038777627,0.011236638,0.011748966,164,6,231,2,0,-4618.231,146.86453,-1394.2474,79.893555,752372,657.93335,121.8191,122.033165,120.591385,120.591385,0,1,0,0,0,0,531.73065,0,0,255,0,0,0,1,0,167,0
True,17767265,15999.99,0,10932.556,-1.8614589,2.233229,4.155465,0.13589,-0.2986406,80.33406,-0.010553803,-0.0004444156,0.09413765,-0.1850382,-0.017706387,-0.0014725088,0.32729897,0.35597774,0.37948546,0.39643738,0.19842584,0.07106653,0.090779215,0.10421836,254.53027,251.256,252.15154,252.368,0,0,0,0,0,0,0,0,0,0,0,0,-0.024110021,-0.015393602,-0.016511433,-0.010793688,0.19988525,0.07271461,0.092268586,0.10477581,0.007482201,0.011000123,0.01622542,0.01824088,164,6,231,2,0,-4619.7407,146.9615,-1386.0602,80.33472,752262.06,657.47125,121.52135,121.71004,120.28238,120.28238,0,1,0,0,0,0,531.8346,0,0,255,0,0,0,1,0,167,0
True,17767375,15999.99,0,11021.729,-0.58696157,-3.3431437,4.315302,-0.0027809143,-0.39233506,80.74596,0.0019766288,0.012110425,-0.008226779,-0.18384862,-0.01251711,0.0004147999,0.24969381,0.25953284,0.3008774,0.30788106,0.11345252,0.10709527,0.14837147,0.1791608,253.61429,253.40231,254.8801,255.32042,0,0,0,0,0,0,0,0,0,0,0,0,-0.0020319256,-0.000879395,0.0012532073,0.0026315956,0.11347071,0.10709888,0.14837676,0.17918013,-0.0020373426,-0.0008304268,0.006879505,0.007712189,164,6,231,2,0,-4621.3096,147.05179,-1377.6144,80.74691,752260.25,651.8063,121.35654,121.56546,120.05818,120.05818,0,1,0,0,0,0,531.94135,0,0,255,0,0,0,1,0,167,0
True,17767484,15999.99,0,11052.281,0.2010423,-1.3944237,4.059864,-0.043831825,-0.33290923,81.185745,0.0022682615,0.004245456,-3.4838886E-05,-0.18302324,-0.010874237,0.00014025845,0.30035618,0.30109093,0.3387998,0.33811843,0.090381175,0.087128624,0.13506293,0.13693902,254.37357,254.28189,255.73926,255.7493,0,0,0,0,0,0,0,0,0,0,0,0,0.0032632048,0.0040908987,0.0030543015,0.006627768,0.090440065,0.08722461,0.13509746,0.13709931,0.0041772276,0.0042673536,0.011388201,0.011307187,164,6,231,2,0,-4622.9116,147.11684,-1368.9922,81.18644,704610.06,608.77136,121.05612,121.26338,119.75634,119.75634,0,1,0,0,0,0,532.04974,0,0,241,0,0,0,1,0,167,0
True,17767593,15999.99,0,10991.542,0.35389748,-1.2129502,1.5993614,-0.029836655,-0.2241117,81.34961,0.09073235,-0.00038735193,-0.0017070528,-0.18284744,-0.008950682,0.0008600096,0.3360748,0.333426,0.37896115,0.38175857,0.056442577,0.061119583,0.062393423,0.06254441,253.6305,253.74956,253.92543,253.93022,0,0,0,0,0,0,0,0,0,0,0,0,0.0022586966,0.00444642,-0.00036443945,0.0066268533,0.056487754,0.061281104,0.06239449,0.0628945,0.008558702,0.008233782,0.01616308,0.016495679,164,6,231,2,0,-4624.496,147.18146,-1360.4458,81.349915,241028.38,209.39014,120.71456,120.916885,119.39572,119.39572,0,1,0,0,0,0,532.1566,0,0,0,0,0,0,1,0,167,0
True,17767703,15999.99,0,10864.755,0.4214444,-0.8846171,-2.5296836,-0.0066843033,-0.08428672,81.040924,0.011059954,-0.0007720393,0.0074396287,-0.18291424,-0.005078327,-0.00022861335,0.34871322,0.33872503,0.3233475,0.31252703,-0.0054729697,-0.005437339,-0.011574464,-0.011323998,251.03561,251.03934,250.84517,250.85623,0,0,0,0,0,0,0,0,0,0,0,0,0.0003850628,0.000707456,-0.0004650463,0.0008428606,0.005486499,0.00548317,0.011583803,0.011355322,0.010109011,0.008883797,0.009551033,0.00826456,164,6,231,2,0,-4626.2837,147.22441,-1350.7888,81.04097,-113788.8,-100,120.37332,120.592606,119.087555,119.087555,0,1,0,0,0,0,532.27747,0,0,0,0,0,0,1,0,167,0
True,17767812,15999.99,0,10803.862,-0.020220399,-2.5729246,-3.5361223,-0.0014543533,-0.008056872,80.64077,0.0683824,-0.00044332357,0.0057232967,-0.18297268,-0.0014215687,0.00028498616,0.30747056,0.31103098,0.33716446,0.3362538,-0.0077574323,-0.007342033,-0.017416252,-0.017792812,249.69609,249.70653,249.40988,249.40308,0,0,0,0,0,0,0,0,0,0,0,0,-0.00015873073,0.00022547356,-0.0016674484,0.0014705827,0.007759056,0.0073454943,0.017495891,0.01785348,0.0050499216,0.005486667,0.011193771,0.011085499,164,6,231,2,0,-4627.8247,147.25449,-1342.4587,80.64077,-113152.43,-100,120.08365,120.2885,118.74941,118.74941,0,1,0,0,0,0,532.38226,0,0,0,0,0,0,1,0,167,0
True,17767921,15999.99,0,10768.568,-0.27040708,0.46053454,-3.7984076,-0.0006971359,-0.031525284,80.23121,0.053132765,-0.00017225047,0.006634241,-0.18301658,-0.0022988163,0.0008165355,0.30715114,0.31495678,0.29028285,0.29542202,0.0014845902,0.0015017625,0.0007011296,0.0007140327,248.70822,248.7083,248.68712,248.68811,0,0,0,0,0,0,0,0,0,0,0,0,-0.0005916183,0.00037359708,0.00041843907,-0.00046565098,0.0015981302,0.0015475353,0.0008165011,0.0008524515,0.005010739,0.0059682317,0.005619891,0.006230898,164,6,231,2,0,-4629.4,147.26505,-1333.9495,80.23122,-17097.375,-15.160238,119.848465,120.04292,118.587456,118.587456,0,1,0,0,0,0,532.48987,0,0,78,0,0,0,1,0,168,0
True,17768031,15999.99,0,10843.249,-0.1713838,-0.082494244,-0.81749487,-0.0017843246,-0.11630851,80.14751,-0.07165715,-4.1724685E-05,-0.010926852,-0.1830265,-0.0014985919,0.0021721278,0.342365,0.33292738,0.2884117,0.26612636,0.04750698,0.050052293,0.06587828,0.066287994,249.99895,250.05045,250.62819,250.63814,0,0,0,0,0,0,0,0,0,0,0,0,0.00055932224,0.00038564974,0.0007818358,0.00025984083,0.047510274,0.05005378,0.06588292,0.0662885,0.009330295,0.008172616,0.005397428,0.0027478673,164,6,231,2,0,-4631.016,147.26152,-1325.2177,80.14758,461880.56,406.79294,119.60755,119.81104,118.38784,118.38784,0,1,0,0,0,0,532.6007,0,0,255,0,0,0,1,0,168,0
True,17768140,15999.99,0,10968.145,0.22663034,-0.7481256,2.6087327,-8.9645386E-05,-0.18583903,80.47534,-0.0021393835,-0.00025821434,-0.006465849,-0.18304776,-0.002096774,0.0015448609,0.31993854,0.31295165,0.33932415,0.33245772,0.09873181,0.10222314,0.14446457,0.14434245,252.36975,252.4477,253.78654,253.7898,0,0,0,0,0,0,0,0,0,0,0,0,-3.3516208E-05,0.00049940817,-0.0015176072,0.0015190962,0.098731816,0.102224365,0.14447254,0.14435045,0.0065793246,0.0057222694,0.011450537,0.010634173,164,6,231,2,0,-4632.58,147.26683,-1316.7626,80.475555,752263.75,654.97784,119.33359,119.54578,118.091095,118.091095,0,1,0,0,0,0,532.7078,0,0,255,0,0,0,1,0,168,0
True,17768250,15999.99,0,11048.791,-0.20249665,-0.87648237,3.6464312,-0.0007266998,-0.25279716,80.89053,0.06480817,-0.00022933313,0.0039739925,-0.18307695,-0.0024432414,0.00080922677,0.30902922,0.30028835,0.36978814,0.36999193,0.15405287,0.14413626,0.15581247,0.156464,254.89503,254.67288,255.3658,255.38083,0,0,0,0,0,0,0,0,0,0,0,0,-0.0008765193,0.0008112462,-0.0030840822,0.0028648388,0.15405536,0.14413854,0.15584299,0.15649022,0.0052411184,0.0041689053,0.015072484,0.015096713,164,6,231,2,0,-4634.143,147.26984,-1308.3195,80.89093,752265.25,650.40186,119.064445,119.28142,117.81466,117.81466,0,1,0,0,0,0,532.8143,0,0,255,0,0,0,1,0,168,0
True,17768359,15999.99,0,11061.571,-0.13497889,0.40025377,4.214988,-0.011912346,-0.14611197,81.351,-0.042548377,0.0015784184,0.0050359624,-0.18286432,-0.0008599964,0.00011455055,0.33219835,0.3365146,0.32177547,0.3231241,0.08091271,0.081324406,0.11446555,0.11500762,254.71245,254.72179,255.86053,255.86809,0,0,0,0,0,0,0,0,0,0,0,0,0.0007972466,0.00077478983,0.0003705692,0.0019529924,0.080916636,0.081328094,0.114466146,0.115024194,0.008083191,0.008612648,0.009364132,0.009524472,164,6,231,2,0,-4635.7246,147.25322,-1299.7761,81.35113,752264.75,649.47815,118.81466,119.03911,117.64194,117.64194,0,1,0,0,0,0,532.9214,0,0,255,0,0,0,1,0,169,0
True,17768468,15999.99,0,11134.73,0.12190944,0.62204665,3.940068,-0.005583763,-0.22771075,81.8213,-0.018043676,-2.8571207E-05,0.0118264975,-0.18279772,-0.0037845736,-0.0005287275,0.3339799,0.33486453,0.36065313,0.35271567,0.09120018,0.092790015,0.12550321,0.12229921,256.41577,256.4702,257.56055,257.50787,0,0,0,0,0,0,0,0,0,0,0,0,-0.00012954218,0.00060424785,-0.0021892604,0.0022505226,0.09120028,0.09279198,0.1255223,0.122319914,0.0083017275,0.008410241,0.013986394,0.013042688,164,6,231,2,0,-4637.5327,147.2594,-1290.004,81.82162,752263.6,645.1831,118.50564,118.73123,117.32471,117.32471,0,1,0,0,0,0,533.0432,0,0,255,0,0,0,1,0,169,0
True,17768578,15999.99,0,11223.988,0.08291173,-2.2577984,3.6415286,0.00015449524,-0.25003755,82.19655,0.02380077,0.00048746477,-0.00806479,-0.18279599,-0.0013619232,-0.0019017375,0.2986246,0.28594756,0.33907616,0.329679,0.1202442,0.099691115,0.1693672,0.17484576,258.2582,257.79886,259.8385,259.86734,0,0,0,0,0,0,0,0,0,0,0,0,-0.00029523618,0.00051775883,-0.0014427505,0.0018764664,0.12024456,0.09969246,0.16937333,0.17485583,0.003964819,0.0024097748,0.011421058,0.010303803,164,6,231,2,0,-4639.055,147.26202,-1281.7698,82.19694,752260.75,640.0246,118.28523,118.52748,117.079605,117.079605,0,1,0,0,0,0,533.1454,0,0,255,0,0,0,1,0,169,0
True,17768687,15999.99,0,11240.691,0.3704796,0.86413443,3.7661245,-0.0057783127,-0.2789148,82.61561,0.019728031,0.0003592544,-0.0038085422,-0.18275157,-0.0035081834,-0.00025373633,0.31902543,0.329722,0.34920377,0.36583182,0.095426075,0.1082798,0.11778827,0.11763285,258.94482,259.2239,259.8686,259.884,0,0,0,0,0,0,0,0,0,0,0,0,-1.17837935E-05,0.0013133596,-0.0013318271,0.0032100673,0.095426075,0.10828777,0.1177958,0.11767664,0.0064673163,0.007779423,0.01262515,0.014602102,164,6,231,2,0,-4640.6206,147.25514,-1273.3002,82.61608,752264,639.205,118.05433,118.26355,116.85726,116.85726,0,1,0,0,0,0,533.2499,0,0,255,0,0,0,1,0,170,0
True,17768796,15999.99,0,11295.16,-0.14572537,1.083686,3.703953,-0.0038890839,-0.27528462,83.01102,0.023897452,7.991044E-05,0.011817349,-0.18274145,-0.004578163,1.2429837E-05,0.3256717,0.33706024,0.35891294,0.36541533,0.10541927,0.1166836,0.114959165,0.11199772,260.43304,260.7225,261.0294,260.98425,0,0,0,0,0,0,0,0,0,0,0,0,-0.0007641402,0.00089027616,-0.0022823089,0.00246974,0.10542204,0.116687,0.11498182,0.11202495,0.0072825886,0.00867958,0.013779502,0.014552586,164,6,231,2,0,-4642.2163,147.26073,-1264.6674,83.01147,752254.25,636.149,117.8017,118.007385,116.598175,116.598175,0,1,0,0,0,0,533.35583,0,0,255,0,0,0,1,0,170,0
True,17768906,15999.99,0,11346.568,0.116063535,-0.88880765,3.8047037,-0.0032548904,-0.2848865,83.42557,-0.020048596,-8.782257E-05,0.004930446,-0.18273762,-0.0025227,0.0004400192,0.30233157,0.30785114,0.32705992,0.33230492,0.08539945,0.08973262,0.11801489,0.11728967,261.2939,261.3946,262.4243,262.41913,0,0,0,0,0,0,0,0,0,0,0,0,-0.00012603603,0.0005220338,-0.0010358631,0.001474762,0.085399546,0.08973414,0.11801943,0.11729894,0.004419539,0.005096607,0.009992417,0.010616008,164,6,231,2,0,-4643.8843,147.25745,-1255.6416,83.42605,752264.44,633.1289,117.587265,117.78674,116.35806,116.35806,0,1,0,0,0,0,533.46606,0,0,255,0,0,0,1,0,171,0
True,17769000,15999.99,0,11401.321,0.07367784,0.9542814,3.6190727,0.0020685196,-0.27451175,83.82144,0.004024621,-0.00018448019,-0.017878989,-0.1827515,-0.0043390356,-0.00067444413,0.33296004,0.3209992,0.35990456,0.35588777,0.0969502,0.09379644,0.1153982,0.11671246,262.7962,262.70767,263.59537,263.62204,0,0,0,0,0,0,0,0,0,0,0,0,-0.0002584886,0.00092524383,-0.0020405462,0.0025188664,0.09695055,0.093801,0.115416236,0.11673964,0.008176625,0.0067094304,0.0138974,0.013419833,164,6,231,2,0,-4645.5522,147.26105,-1246.6198,83.82189,752250.1,630.15,117.31923,117.52644,116.097145,116.097145,0,1,0,0,0,0,533.57574,0,0,255,0,0,0,1,0,172,0
True,17769125,15999.99,0,11465.673,-0.3195516,-1.6516297,3.7398014,0.0012302399,-0.28196365,84.26042,-0.03378607,-0.00011545147,0.0077562667,-0.18276852,-0.0018184396,-0.00025739422,0.29704586,0.30108744,0.32468075,0.32443228,0.08287323,0.08368798,0.12742268,0.1279278,263.8874,263.90433,265.27167,265.28827,0,0,0,0,0,0,0,0,0,0,0,0,-0.00038072985,-0.00024661218,-0.0014832894,0.0007710355,0.082874104,0.08368835,0.1274313,0.12793012,0.0037711598,0.004266929,0.0097095445,0.009680003,164,6,231,2,0,-4647.422,147.25818,-1236.5045,84.26089,752262.6,626.4441,117.083374,117.2809,115.82864,115.82864,0,1,0,0,0,0,533.6981,0,0,255,0,0,0,1,0,173,0
