IsRaceOn,TimestampMS,EngineMaxRpm,EngineIdleRpm,CurrentEngineRpm,AccelerationX,AccelerationY,AccelerationZ,VelocityX,VelocityY,VelocityZ,AngularVelocityX,AngularVelocityY,AngularVelocityZ,Yaw,Pitch,Roll,NormalizedSuspensionTravelFrontLeft,NormalizedSuspensionTravelFrontRight,NormalizedSuspensionTravelRearLeft,NormalizedSuspensionTravelRearRight,TireSlipRatioFrontLeft,TireSlipRatioFrontRight,TireSlipRatioRearLeft,TireSlipRatioRearRight,WheelRotationSpeedFrontLeft,WheelRotationSpeedFrontRight,WheelRotationSpeedRearLeft,WheelRotationSpeedRearRight,WheelOnRumbleStripFrontLeft,WheelOnRumbleStripFrontRight,WheelOnRumbleStripRearLeft,WheelOnRumbleStripRearRight,WheelInPuddleDepthFrontLeft,WheelInPuddleDepthFrontRight,WheelInPuddleDepthRearLeft,WheelInPuddleDepthRearRight,SurfaceRumbleFrontLeft,SurfaceRumbleFrontRight,SurfaceRumbleRearLeft,SurfaceRumbleRearRight,TireSlipAngleFrontLeft,TireSlipAngleFrontRight,TireSlipAngleRearLeft,TireSlipAngleRearRight,TireCombinedSlipFrontLeft,TireCombinedSlipFrontRight,TireCombinedSlipRearLeft,TireCombinedSlipRearRight,SuspensionTravelMetersFrontLeft,SuspensionTravelMetersFrontRight,SuspensionTravelMetersRearLeft,SuspensionTravelMetersRearRight,CarOrdinal,CarClass,CarPerformanceIndex,DrivetrainType,NumCylinders,PositionX,PositionY,PositionZ,Speed,Power,Torque,TireTempFl,TireTempFr,TireTempRl,TireTempRr,Boost,Fuel,Distance,BestLapTime,LastLapTime,CurrentLapTime,CurrentRaceTime,Lap,RacePosition,Accelerator,Brake,Clutch,Handbrake,Gear,Steer,NormalDrivingLine,NormalAiBrakeDifference
True,26975343,15999.99,0,381.36453,-0.13761406,0.23366952,0.62490046,-0.0047997236,-0.006859064,2.8285124,-0.04274209,0.00024695008,0.027654257,-0.19133623,0.084169775,-0.06127022,0.26526964,0.39278513,0.29234096,0.2112972,-0.0026637549,-0.0025867445,-0.0023471746,-0.006347252,8.801021,8.806523,8.81022,8.808598,0,0,0,0,0,0,0,0,0.120000005,0,0.120000005,0.120000005,-0.011898406,-0.012002841,-0.013950613,-0.007177381,0.012192935,0.012278413,0.01414669,0.009581357,-0.00012671202,0.015515152,0.005864583,-0.0037709177,164,6,231,2,0,5110.988,181.41553,-2864.8975,2.8285246,-185.49509,-4.647775,219.59659,204.64496,220.97412,220.97412,-5.879999,1,119.9214,0,0,0.6601484,20.594692,0,8,0,0,0,0,1,0,127,0
True,26994000,15999.99,0,93.355034,0.16075051,-0.052659124,4.3154573,0.006649956,-0.0046072607,0.4378186,-0.02372166,0.00076087617,-0.010177824,-1.8846264,-0.022825353,-0.026400719,0.2579891,0.26305792,0.24722978,0.25282714,0.84125626,-0.04840719,1.3859024,0.043975696,1.2665049,2.7966263,1.2672153,3.179348,0,0,0,0,0,0,0,0,0,0,0,0,0.008629295,0.008721299,-0.018965932,-0.018941792,0.8413005,0.049186554,1.3860321,0.04788166,-0.0010197908,-0.00039801747,0.00050120056,0.0011666864,164,6,231,2,0,5962.0874,126.488075,-2231.4834,0.4378933,7622.2954,721.629,124.408585,124.98532,124.06047,124.06047,0,1,-52.58624,0,0,0.093394786,0.093394786,0,7,255,0,0,0,1,0,58,0
True,26994109,15999.99,0,325.01413,0.10216427,-0.13373244,11.670897,0.017656028,-0.021532778,1.8204784,-0.039191302,0.0042135874,-0.012162257,-1.8848052,-0.026526567,-0.028064074,0.2106521,0.23159324,0.25886434,0.27827972,2.6999161,0.45107034,0.86994386,0.54496586,10.504466,6.568224,7.195336,6.702312,0,0,0,0,0,0,0,0,0,0,0,0,0.33396718,0.329084,-0.040993724,-0.03853221,2.7204928,0.5583554,0.8709092,0.5463264,-0.006826449,-0.0042576753,0.0018844642,0.004192807,164,6,231,2,0,5961.971,126.48999,-2231.5205,1.8206912,50998.375,1546.6406,124.57599,125.12248,124.301414,124.301414,0,1,-52.506092,0,0,0.20618898,0.20618896,0,7,255,0,0,0,1,10,58,0
True,26994218,15999.99,0,481.2961,3.5374486,-0.1871812,10.773231,0.41871884,-0.05148208,3.009349,-0.010183744,0.32699397,0.011509235,-1.8677881,-0.028754732,-0.027827766,0.17630477,0.19809689,0.26848802,0.2874961,0.60433066,0.6512085,1.4858826,0.4290243,11.236157,10.392155,11.879828,10.676509,0,0,0,0,0,0,0,0,0,0,0,0,0.3759397,0.5680716,-0.04331974,-0.049169276,0.7117206,0.8641631,1.486514,0.4318327,-0.011039712,-0.008366551,0.0030286498,0.0052885674,164,6,231,2,0,5961.7065,126.49243,-2231.5813,3.038776,76027.336,1546.6406,126.53378,126.80986,124.568054,124.568054,0,1,-52.328197,0,0,0.31611997,0.31611994,0,7,255,0,0,0,1,0,57,0
True,26994328,15999.99,0,692.6325,-1.9818294,0.046419263,11.167427,0.09272444,-0.04989868,4.377356,-0.0015071059,0.08417105,-0.001311979,-1.840846,-0.029636294,-0.030378876,0.16871397,0.20369814,0.29028323,0.327742,1.224016,0.57542753,2.2471561,0.064860865,15.84212,14.012714,16.755589,16.3923,0,0,0,0,0,0,0,0,0,0,0,0,-0.5359707,-0.524874,0.024868201,0.028406901,1.3362185,0.77885145,2.2472937,0.07080878,-0.01197085,-0.007679466,0.0056199394,0.010073509,164,6,231,2,0,5961.304,126.49774,-2231.6624,4.3786225,107512.57,1546.6406,128.55544,127.28784,125.15459,125.15459,0,1,-52.06011,0,0,0.42478186,0.42478186,0,7,255,0,0,0,1,0,56,0
True,26994437,15999.99,0,848.8599,-0.90605736,-0.03923683,13.9548025,0.001730442,-0.05866404,5.8757687,-0.014477274,-0.0056726607,0.0042778878,-1.8396345,-0.030410603,-0.03027189,0.17152464,0.21508221,0.2993574,0.33950275,1.7273359,0.4001301,0.7316714,0.52020985,21.246552,18.935316,19.481625,19.1997,0,0,0,0,0,0,0,0,0,0,0,0,0.0060950266,0.00892466,-0.018102087,-0.012933245,1.7273467,0.4002296,0.7318953,0.5203706,-0.011626074,-0.0062830225,0.006698787,0.011471774,164,6,231,2,0,5960.7705,126.50845,-2231.8074,5.876062,136389.39,1546.6406,129.53954,127.35543,126.1431,126.1431,0,1,-51.696877,0,0,0.53306144,0.5330614,0,7,255,0,0,0,1,0,55,0
True,26994562,15999.99,0,1018.42126,-2.9141917,-0.069854304,11.938553,-0.24838448,-0.07204386,7.2414646,0.00866775,-0.19536722,-0.015277775,-1.8463631,-0.031698555,-0.030784324,0.16481844,0.21905719,0.3079318,0.35063562,2.5673506,0.21637185,0.72956485,-0.06609139,25.83574,22.831732,21.938911,24.22073,0,0,0,0,0,0,0,0,0,0,0,0,-1.3559014,-1.0736933,-0.0037091668,0.002287528,2.9034045,1.095278,0.7295743,0.06613096,-0.012448698,-0.0057954267,0.007718224,0.012795389,164,6,231,2,0,5960.082,126.52403,-2232.0066,7.2460814,0,0,132.6086,127.63298,126.37368,126.37368,0,1,-51.225746,0,0,0.6406773,0.6406772,0,7,255,0,0,0,1,-127,55,0
True,26994671,15999.99,0,1478.2191,-3.6102684,-0.056399018,13.502783,-0.40750742,-0.07746385,8.644289,-0.004836224,-0.4993659,0.009516824,-1.887967,-0.032501426,-0.030283416,0.17255875,0.23658118,0.3036131,0.34666947,6.217956,0.45123747,3.2497404,2.093857,39.83186,29.600204,33.5396,34.113483,0,0,0,0,0,0,0,0,0,0,0,0,0.39149648,0.32091153,-0.25700977,-0.23090169,6.230269,0.5537142,3.2598875,2.10655,-0.011499224,-0.0036458224,0.007204756,0.012323841,164,6,231,2,0,5959.268,126.54474,-2232.2993,8.654235,237508.84,1546.6406,139.02516,128.82812,130.908,130.908,0,1,-50.657116,0,0,0.75007474,0.7500746,0,7,255,0,0,0,1,0,56,0
True,26994781,15999.99,0,2079.8992,-0.26940775,-0.25526783,13.292396,0.061095715,-0.10855968,10.133002,-0.0026579872,-0.36966562,0.024974465,-1.9339085,-0.03425369,-0.02690389,0.17601909,0.22750247,0.307226,0.34426522,6.909207,3.803821,6.136686,5.3513913,49.360424,43.782154,48.646896,49.00409,0,0,0,0,0,0,0,0,0,0,0,0,0.47771943,0.4449687,-0.53774846,-0.50271136,6.9257026,3.829759,6.1602015,5.374952,-0.011074757,-0.0047594756,0.007634308,0.0120379925,164,6,231,2,0,5958.3037,126.56975,-2232.661,10.133768,334207.62,1546.6406,146.34967,132.98306,140.12903,140.12903,-0.62995243,1,-49.980446,0,0,0.85936475,0.85936457,0,7,255,0,0,0,1,0,57,0
True,26994890,15999.99,0,2697.4941,-0.12515354,-0.09940332,13.332024,0.4097736,-0.108232126,11.597665,0.020219931,-0.30915928,0.025245292,-1.9708959,-0.03436097,-0.023619376,0.1812311,0.21178101,0.32951277,0.36247438,8.317321,7.85286,8.24002,7.01856,61.3134,62.246128,63.102947,62.051495,0,0,0,0,0,0,0,0,0,0,0,0,0.9556135,1.0053873,-0.7082191,-0.6524668,8.372038,7.9169574,8.270399,7.0488224,-0.010435417,-0.006687969,0.01028404,0.014202934,164,6,231,2,0,5957.181,126.59842,-2233.0852,11.605407,434325.25,1546.6406,153.75429,140.98407,148.86642,148.86642,-1.9339914,1,-49.192043,0,0,0.9696722,0.96967196,0,7,255,0,0,0,1,127,58,0
True,26995000,15999.99,0,3367.015,0.6077056,-0.061301336,12.936943,0.8122344,-0.10094342,13.055764,0.029248828,-0.16224971,-0.003548293,-1.9972199,-0.03251238,-0.02159271,0.19374609,0.20001805,0.3502857,0.35313445,10.010329,10.591908,9.675738,9.112668,76.303795,79.35954,77.41656,78.02462,0,0,0,0,0,0,0,0,0,0,0,0,0.073404446,0.10555788,-0.7720389,-0.74532187,10.010598,10.592434,9.7064905,9.143097,-0.0089002475,-0.008130889,0.012753785,0.013092484,164,6,231,2,0,5955.8765,126.63075,-2233.5818,13.081394,543105,1546.6406,161.15974,149.08685,157.86298,157.86298,-3.465701,1,-48.27508,0,0,1.0828519,1.0828515,0,7,255,0,0,0,1,0,60,0
True,26995109,15999.99,0,2092.6047,-1.9108996,-0.44785795,12.423524,0.7587738,-0.12168622,14.299426,0.016434798,-0.1188298,-0.037886627,-2.012531,-0.030488964,-0.021239998,0.17835112,0.20368518,0.32050303,0.3278481,5.177971,0.09356016,0.72990716,0.149397,63.030132,44.90563,45.355865,45.19875,0,0,0,0,0,0,0,0,0,0,0,0,-0.47273096,-0.43316475,-0.67817825,-0.62540007,5.1995053,0.4431537,0.9963384,0.64299667,-0.010788694,-0.007681057,0.009212844,0.010086123,164,6,231,2,0,5954.6025,126.66064,-2234.079,14.320061,0,0,167.15436,155.76788,165.06404,165.06404,-5.0907755,1,-47.3772,0,0,1.1824303,1.18243,0,7,255,0,0,0,1,0,61,0
True,26995218,15999.99,0,2251.9395,-3.941708,-0.3045605,14.37252,0.07869959,-0.12793845,15.810605,-0.0057348497,0.012155579,0.0239182,-2.014257,-0.028925838,-0.022931453,0.16517465,0.20806068,0.3012169,0.3419055,0.97689044,0.52892184,0.60846055,0.59548306,53.116985,51.533077,51.835625,51.835777,0,0,0,0,0,0,0,0,0,0,0,0,0.28969815,0.29726487,-0.04503899,-0.040903542,1.0189406,0.60673285,0.6101252,0.5968862,-0.012405006,-0.007144328,0.006919872,0.011757445,164,6,231,2,0,5952.999,126.697815,-2234.8076,15.8113165,363835.38,1546.6406,167.97864,154.17633,163.27724,163.27724,-8.481747,1,-46.226334,0,0,1.3003057,1.3003055,0,7,255,0,0,0,1,9,66,0
True,26995343,15999.99,0,2475.4082,3.7091343,-0.071036115,13.036941,0.34215975,-0.15036549,17.334003,-0.00787892,0.28623003,0.04084291,-1.9969765,-0.029485932,-0.018801993,0.1714681,0.17715387,0.31671977,0.3226117,0.58822495,1.3825634,0.3306402,0.62368214,57.332638,59.30989,56.41553,56.674118,0,0,0,0,0,0,0,0,0,0,0,0,1.12733,1.3430802,-4.3637345E-05,0.0041538435,1.2715665,1.9275233,0.3306402,0.62369597,-0.011633009,-0.010935556,0.008763049,0.009463549,164,6,231,2,0,5951.2437,126.73713,-2235.6013,17.338032,384224.97,1492.6359,166.4769,154.65561,161.31271,161.31271,-12.200121,1,-44.967155,0,0,1.4161123,1.4161118,0,7,255,0,0,0,1,127,71,0
True,26995453,15999.99,0,2688.815,5.907044,-0.03573039,12.473969,0.25278044,-0.17284234,18.753927,-0.010610978,0.4706627,0.006375823,-1.9487745,-0.02989803,-0.016333228,0.18215755,0.15094979,0.31476402,0.2942471,0.3246715,1.3087512,0.38516277,0.9054782,61.338062,63.52698,61.74704,62.08366,0,0,0,0,0,0,0,0,0,0,0,0,-0.21243864,-0.23388481,0.16267113,0.17786661,0.38799712,1.3294857,0.41810557,0.92278236,-0.010321774,-0.014149917,0.00853052,0.006091211,164,6,231,2,0,5949.3096,126.77991,-2236.3813,18.756426,433607.22,1546.6406,165.04333,155.88145,159.44444,159.44444,-14.7,1,-43.59906,0,0,1.5317514,1.5317509,0,7,255,0,0,0,1,0,74,0
True,26995562,15999.99,0,2883.7146,3.6857612,-0.05902192,14.807134,-0.09209108,-0.1955153,20.28302,-0.0026321267,0.2281139,0.014327723,-1.9142998,-0.030199742,-0.016913323,0.18042284,0.17658353,0.31793946,0.29340973,0.5567772,0.8271625,0.45608404,0.745409,66.574745,66.87477,66.32942,66.72945,0,0,0,0,0,0,0,0,0,0,0,0,-0.12072175,-0.12080605,0.17669712,0.19082917,0.5697145,0.83593774,0.48911607,0.7694481,-0.010534562,-0.011005517,0.008908059,0.0059916563,164,6,231,2,0,5947.4883,126.81994,-2237.061,20.284172,462090.25,1532.9937,163.33829,154.94846,158.02419,158.02419,-14.7,1,-42.321777,0,0,1.6312902,1.6312896,0,7,255,0,0,0,1,0,76,0
True,26995671,15999.99,0,3119.0474,2.4326272,-0.23946163,15.168396,-0.056363106,-0.21507426,22.123379,0.0068639745,0.044152964,0.010637234,-1.9008511,-0.029390572,-0.01599976,0.20254332,0.1984931,0.3289467,0.31579703,0.52607423,0.5930847,0.49077985,0.55608636,71.904686,72.07503,71.98396,72.12837,0,0,0,0,0,0,0,0,0,0,0,0,-0.00528605,-0.0015894389,0.047327414,0.052326854,0.5261008,0.59308684,0.49305654,0.55854285,-0.007821124,-0.008317951,0.010216739,0.008653339,164,6,231,2,0,5945.132,126.87039,-2237.8916,22.124493,504285.06,1546.6406,161.45723,153.66052,156.48181,156.48181,-14.7,1,-40.679214,0,0,1.7490466,1.749046,0,7,255,0,0,0,1,0,78,0
True,26995781,15999.99,0,3355.0415,0.8424132,-0.19154055,15.472305,-0.013733387,-0.23696484,23.903452,-0.0048518293,0.007511121,0.010772479,-1.8985647,-0.029361986,-0.0149326315,0.18860525,0.20506667,0.35972095,0.3451965,0.52981585,0.46788642,0.4600847,0.48792535,77.62947,77.20123,77.457634,77.58174,0,0,0,0,0,0,0,0,0,0,0,0,-0.0014379355,0.0019930247,0.0044424003,0.012013912,0.52981776,0.46789068,0.46010613,0.48807323,-0.009530857,-0.0075115934,0.013875566,0.012148716,164,6,231,2,0,5942.634,126.92194,-2238.7473,23.90463,532100.2,1516.8641,159.7505,152.44131,155.09741,155.09741,-14.7,1,-38.941456,0,0,1.8636711,1.8636706,0,7,255,0,0,0,1,0,79,0
True,26995890,15999.99,0,3542.4944,0.34467793,-0.12506175,15.023607,-0.0019426346,-0.2458104,25.348095,0.0064840848,0.0024781378,0.0094350735,-1.8981179,-0.029290613,-0.0140731465,0.15930545,0.1662895,0.34743953,0.35480446,0.4358513,0.46040946,0.43109614,0.42643535,81.64286,81.801056,81.88517,81.8368,0,0,0,0,0,0,0,0,0,0,0,0,-0.0032026307,-0.0002411145,-0.002453255,0.0048465645,0.43586308,0.46040952,0.43110314,0.4264629,-0.013124958,-0.012268249,0.012415398,0.013291035,164,6,231,2,0,5940.3867,126.96835,-2239.5117,25.349285,540337,1458.7931,158.41519,151.46964,154.00488,154.00488,-14.7,1,-37.380676,0,0,1.9599664,1.9599658,0,7,255,0,0,0,1,0,79,0
True,26996015,15999.99,0,3786.8748,-0.16142416,-0.16915664,13.871513,0.0029067993,-0.2507075,27.196806,0.0012191031,0.0010335465,0.010419041,-1.8979707,-0.02844736,-0.0131985955,0.15545845,0.17970923,0.30288598,0.29972658,0.41536552,0.33878243,0.39339095,0.41075405,87.44961,86.899025,87.55224,87.66457,0,0,0,0,0,0,0,0,0,0,0,0,-0.0041173585,-0.0015182407,-0.0026452718,-0.0007448199,0.41538593,0.33878583,0.39339986,0.4107547,-0.013596855,-0.010622099,0.007118311,0.0067426823,164,6,231,2,0,5937.1313,127.03484,-2240.6172,27.19796,553117.8,1396.6964,156.70464,150.23956,152.62137,152.62137,-14.7,1,-35.119797,0,0,2.090715,2.0907147,0,7,255,0,0,0,1,0,80,0
True,26996125,15999.99,0,4007.0488,2.6316535,0.13785769,13.257784,0.11575031,-0.268099,28.7448,-0.013312757,0.16482298,0.044856336,-1.8905672,-0.029642232,-0.01024318,0.17646539,0.1906842,0.31734827,0.3237593,0.33486426,0.63794965,0.31349307,0.4173708,92.238525,93.755554,92.29887,92.289406,0,0,0,0,0,0,0,0,0,0,0,0,0.43248478,0.47495148,0.022812774,0.0276647,0.5469709,0.79533553,0.31432202,0.41828665,-0.0110200085,-0.009275839,0.008837771,0.009599991,164,6,231,2,0,5934.126,127.097275,-2241.623,28.746283,554262.8,1322.609,155.35245,149.27287,151.51938,151.51938,-14.7,1,-33.035645,0,0,2.2039254,2.203925,0,7,255,0,0,0,1,85,81,0
True,26996234,15999.99,0,4204.4766,3.602993,0.117453836,12.793346,-0.14345837,-0.2531571,30.175758,-0.002921341,0.18703456,0.015694348,-1.863144,-0.02942219,-0.007236617,0.20800696,0.21549357,0.31895873,0.3053416,0.3288702,0.4046822,0.35172343,0.48347762,96.81204,96.50084,97.29061,97.39024,0,0,0,0,0,0,0,0,0,0,0,0,-0.04491828,-0.043140143,0.11781241,0.12614706,0.3319236,0.40697512,0.3709301,0.4996636,-0.0071509182,-0.0062325634,0.009029243,0.007410269,164,6,231,2,0,5930.957,127.16627,-2242.6184,30.177158,610457.2,1388.1565,154.16652,148.52014,150.49014,150.49014,0,1,-30.851141,0,0,2.3167133,2.3167129,0,7,255,0,0,0,1,0,80,0
True,26996343,15999.99,0,4381.609,3.0665882,-0.23280561,13.43913,-0.13485241,-0.27298713,31.456532,0.021527097,0.042307932,0.018994771,-1.8536559,-0.029014627,-0.0056133554,0.18183462,0.20007138,0.33967268,0.33953056,0.41387126,0.4425134,0.35439298,0.41762543,101.217674,101.210434,101.056496,101.30098,0,0,0,0,0,0,0,0,0,0,0,0,0.022866683,0.026397,0.05472524,0.062327325,0.41450247,0.44330004,0.3585934,0.42225075,-0.010361385,-0.008124348,0.011491977,0.0114750825,164,6,231,2,0,5928.165,127.226845,-2243.4565,31.458006,624524.9,1362.67,153.18057,147.83414,149.71765,149.71765,0,1,-28.93447,0,0,2.4112587,2.411258,0,7,255,0,0,0,1,0,79,0
True,26996453,15999.99,0,4593.993,1.2344537,-0.876369,13.165964,-0.0476799,-0.2760116,32.967545,0.023367954,0.0035015245,0.01831785,-1.8518163,-0.025605408,-0.0035019168,0.14612357,0.1504538,0.3014267,0.30127826,0.3764977,0.39316365,0.413245,0.42515662,105.64967,105.773895,106.26714,106.3406,0,0,0,0,0,0,0,0,0,0,0,0,0.011091468,0.013605212,0.013650073,0.015571558,0.37666103,0.39339897,0.41347036,0.42544168,-0.014741931,-0.014210757,0.0069448166,0.0069271624,164,6,231,2,0,5924.6567,127.29555,-2244.4817,32.96874,656680.56,1366.4364,152.09845,147.0749,148.86493,148.86493,0,1,-26.531773,0,0,2.5246894,2.5246885,0,7,255,0,0,0,1,0,76,0
True,26996562,15999.99,0,4793.1597,0.4117577,0.317907,14.384022,-0.01696682,-0.31249654,34.562553,-0.06266946,0.0014776425,0.026397463,-1.8516484,-0.027698575,-0.00090891594,0.22187987,0.25073263,0.28823537,0.29594034,0.29942825,0.28344917,0.35601166,0.3619039,110.172646,110.03883,111.00296,111.026596,0,0,0,0,0,0,0,0,0,0,0,0,0.0012266645,0.00326192,0.0028730335,0.0038618885,0.29943076,0.28346795,0.35602325,0.36192453,-0.0054491796,-0.0019099154,0.005376458,0.0062925257,164,6,231,2,0,5920.997,127.36132,-2245.541,34.56397,739064.6,1473.9581,151.09471,146.36142,148.10147,148.10147,0,1,-24.027449,0,0,2.6375043,2.6375034,0,7,255,0,0,0,1,0,73,0
True,26996671,15999.99,0,4983.1265,0.051500082,0.86782914,13.560662,-0.0103235245,-0.33378518,35.90861,0.016485732,-0.00039936876,0.018247122,-1.851631,-0.03136646,0.001548154,0.21483926,0.24949493,0.37279746,0.39821535,0.4029535,0.43187928,0.32061017,0.31884813,115.31848,115.58853,114.88412,114.88077,0,0,0,0,0,0,0,0,0,0,0,0,-0.00031035813,0.0038088749,-0.003113781,0.007890818,0.40295362,0.4318961,0.32062528,0.31894577,-0.006312825,-0.0020617396,0.015430268,0.018452268,164,6,231,2,0,5917.737,127.43201,-2246.4827,35.910164,704881.4,1352.1967,150.2973,145.80215,147.49448,147.49448,0,1,-21.796928,0,0,2.7337487,2.7337475,0,7,255,0,0,0,1,0,71,0
True,26996781,15999.99,0,5192.3545,0.00047445297,-0.78872436,12.758608,-0.0037517548,-0.30188322,37.405514,0.014114735,-0.0012484789,0.013973428,-1.8517767,-0.02723497,0.003029282,0.17117108,0.20067142,0.32186076,0.33550292,0.3463704,0.2866938,0.37845892,0.39542478,119.56357,118.979034,120.18789,120.33813,0,0,0,0,0,0,0,0,0,0,0,0,-0.0008094827,0.0016614463,-0.0024153003,0.0022794309,0.34637135,0.28669864,0.3784666,0.39543137,-0.011669442,-0.0080507435,0.009374272,0.0109962225,164,6,231,2,0,5913.589,127.52129,-2247.6802,37.40673,711925.1,1310.2838,149.4035,145.18665,146.81003,146.81003,0,1,-18.959166,0,0,2.8514886,2.8514876,0,7,255,0,0,0,1,0,67,0
True,26996906,15999.99,0,5376.959,0.1394248,0.5151503,13.09396,-0.0138578415,-0.32932144,38.939167,-0.034512717,0.0006328712,0.042379327,-1.8517284,-0.029596694,0.0062531303,0.2059116,0.26292697,0.33049658,0.34734362,0.29362068,0.26066235,0.29457924,0.30603155,123.9939,123.677574,124.31508,124.41195,0,0,0,0,0,0,0,0,0,0,0,0,-0.0011639199,0.0014088836,-0.0015923246,0.0036961446,0.293623,0.26066616,0.29458353,0.30605388,-0.0074079484,-0.00041408092,0.010401003,0.012403995,164,6,231,2,0,5909.3213,127.6089,-2248.9126,38.94056,752929.9,1338.3883,148.58293,144.60576,146.20277,146.20277,0,1,-16.039522,0,0,2.9678257,2.9678245,0,7,255,0,0,0,1,0,64,0
True,26997000,15999.99,0,5561.49,-0.2539811,0.43763724,12.503833,-0.018195152,-0.32887164,40.196873,0.0076910127,-0.0006810014,0.031197468,-1.8517125,-0.030905718,0.01019168,0.1763926,0.21370664,0.32448038,0.36040476,0.30001593,0.3522223,0.31942654,0.3170368,128.00757,128.55261,128.54146,128.51129,0,0,0,0,0,0,0,0,0,0,0,0,0.001236204,0.00402547,-4.832375E-06,0.005823616,0.30001846,0.3522453,0.31942654,0.3170903,-0.01102894,-0.0064517595,0.009685729,0.013956871,164,6,231,2,0,5905.5405,127.69665,-2250.0051,40.198223,749108.44,1287.4497,147.92873,144.15073,145.71826,145.71826,0,1,-13.452757,0,0,3.0672476,3.067247,0,7,255,0,0,0,1,0,61,0
True,26997125,15999.99,0,5754.79,0.056073427,-0.8199444,11.605361,-0.013263702,-0.3197336,41.576427,0.026558079,-0.0016522869,0.009984648,-1.8518199,-0.02800185,0.012379216,0.20697732,0.22588846,0.29485413,0.32935724,0.2888554,0.31832445,0.34959498,0.34496692,132.2379,132.5486,133.19675,133.16397,0,0,0,0,0,0,0,0,0,0,0,0,0.0017337212,0.00476476,0.0015973817,0.0041793017,0.2888606,0.3183601,0.34959862,0.34499225,-0.0072772205,-0.00495746,0.0061633848,0.010265544,164,6,231,2,0,5901.007,127.798935,-2251.315,41.57766,739266.2,1227.5356,147.23401,143.68204,145.20891,145.20891,0,1,-10.352364,0,0,3.182636,3.1826355,0,7,255,0,0,0,1,0,58,0
True,26997234,15999.99,0,5915.684,0.15745163,0.036052823,12.107054,-0.009362221,-0.33117208,42.96701,-0.017029177,-0.0007112684,0.015800495,-1.852025,-0.028224306,0.013298758,0.22652516,0.25977385,0.3438604,0.34971368,0.26896897,0.2257816,0.26753804,0.27814427,136.48221,136.0151,136.76828,136.87296,0,0,0,0,0,0,0,0,0,0,0,0,0.00014043767,0.0026678017,-0.0019488992,0.0040906863,0.268969,0.22579737,0.26754513,0.27817434,-0.004879359,-0.0008008629,0.011989865,0.0126857795,164,6,231,2,0,5896.28,127.89722,-2252.6807,42.96828,752757.56,1216.001,146.58484,143.24017,144.74744,144.74744,0,1,-7.118258,0,0,3.2989962,3.2989955,0,7,255,0,0,0,1,0,54,0
True,26997328,15999.99,0,6067.141,0.20099854,0.48569176,11.550385,-0.011461258,-0.33912855,44.09224,-0.015658237,-0.0030195345,0.022610294,-1.8521234,-0.030047216,0.015169102,0.21907271,0.24471608,0.3306056,0.35604218,0.23407158,0.23319994,0.27602297,0.27549556,139.66327,139.702,140.35641,140.34953,0,0,0,0,0,0,0,0,0,0,0,0,0.000987989,0.003329444,-0.0019497611,0.0037925027,0.23407367,0.2332237,0.27602986,0.27552167,-0.005793523,-0.0026479438,0.010413971,0.013438191,164,6,231,2,0,5892.173,127.98948,-2253.868,44.09354,752417.75,1184.6157,146.07024,142.8869,144.38112,144.38112,0,1,-4.308094,0,0,3.397187,3.3971863,0,7,255,0,0,0,1,0,51,0
True,26997453,15999.99,0,6268.0073,0.0099105835,-0.97279525,11.13234,-0.008603096,-0.30546004,45.32057,0.038122777,-0.0027970588,0.02209683,-1.8524977,-0.027087046,0.017280342,0.14643799,0.20039767,0.2860255,0.292923,0.3346684,0.25286624,0.32598886,0.3621352,144.62157,143.70062,144.92511,145.23221,0,0,0,0,0,0,0,0,0,0,0,0,0.0002555545,0.0025772147,-0.0003637707,0.000105061576,0.3346685,0.25287938,0.32598907,0.36213523,-0.014703363,-0.008084323,0.005113721,0.0059337877,164,6,231,2,0,5887.307,128.10126,-2255.2756,45.3216,747643.44,1139.7148,145.53485,142.53003,144.00279,144.00279,0,1,-0.97848624,0,0,3.5104723,3.5104716,0,7,255,0,0,0,1,0,47,0
True,26997562,15999.99,0,6382.8896,-0.3001697,0.59272885,11.096403,-0.025316238,-0.34393114,46.575615,-0.060415786,-0.00026643783,0.05216589,-1.8525491,-0.028898532,0.022041934,0.23942256,0.28708845,0.29741958,0.33148175,0.17770134,0.17394815,0.2230045,0.22662266,146.87788,146.83722,147.69116,147.72563,0,0,0,0,0,0,0,0,0,0,0,0,0.0013938309,0.0030360227,0.0015795426,0.004150097,0.17770681,0.17397465,0.2230101,0.22666065,-0.0032972805,0.0025497228,0.0064683966,0.010518137,164,6,231,2,0,5882.275,128.20573,-2256.7336,46.576893,752642.9,1126.6522,145.04483,142.19836,143.66884,143.66884,0,1,2.466775,0,0,3.624473,3.6244721,0,7,255,0,0,0,1,0,43,0
True,26997671,15999.99,0,6554.9287,-0.0753212,0.52467966,10.399155,-0.025942802,-0.31812936,47.59746,0.045989178,-0.002705398,0.033100322,-1.8527523,-0.030164812,0.026374158,0.2419134,0.28223902,0.34314522,0.37845078,0.27030855,0.28751767,0.2741854,0.2723691,151.08298,151.30917,151.48611,151.48175,0,0,0,0,0,0,0,0,0,0,0,0,0.002656941,0.0062280283,-9.875801E-05,0.007104927,0.2703216,0.2875851,0.2741854,0.27246174,-0.0029917397,0.001954861,0.011904836,0.016102403,164,6,231,2,0,5877.7437,128.31596,-2258.0474,47.59853,752293.8,1096.7537,144.6353,141.92612,143.3953,143.3953,0,1,5.5681376,0,0,3.724645,3.7246437,0,7,255,0,0,0,1,0,40,0
True,26997796,15999.99,0,6699.628,-0.12083125,-0.1818747,10.117442,-0.021788597,-0.32225814,48.843178,-0.012300637,-0.002635807,0.017219301,-1.853084,-0.028580738,0.029163273,0.23212746,0.26708087,0.34697026,0.36904353,0.2157018,0.20766188,0.2291492,0.23271334,154.44907,154.37177,154.87401,154.9152,0,0,0,0,0,0,0,0,0,0,0,0,0.00321299,0.0055053867,-0.00021679405,0.0065504005,0.21572572,0.20773485,0.2291493,0.2328055,-0.0041921437,9.546429E-05,0.012359608,0.014983952,164,6,231,2,0,5872.112,128.44539,-2259.6816,48.844246,752255.6,1072.7236,144.19061,141.6388,143.10187,143.10187,0,1,9.422904,0,0,3.8462548,3.8462534,0,7,255,0,0,0,1,0,35,0
True,26997890,15999.99,0,6854.6133,-0.33344746,-0.8473473,9.646128,-0.023652077,-0.30511048,49.85151,0.020769885,-0.0018657234,0.04202454,-1.8533344,-0.026500707,0.031923026,0.19442676,0.2646904,0.28833732,0.33432668,0.24431801,0.19577661,0.2718298,0.28636986,157.91011,157.33377,158.60031,158.74533,0,0,0,0,0,0,0,0,0,0,0,0,0.0018028351,0.004025048,0.00171561,0.0041966317,0.24432465,0.19581798,0.27183524,0.28640062,-0.008816753,-0.00019776449,0.005388584,0.010856379,164,6,231,2,0,5867.21,128.55498,-2261.1055,49.852448,752290.06,1048.4888,143.84279,141.41245,142.8785,142.8785,0,1,12.778377,0,0,3.9496915,3.94969,0,7,255,0,0,0,1,0,32,0
True,26998000,15999.99,0,6967.8413,0.00055909157,1.3472633,9.606759,-0.03213501,-0.32681206,50.977615,-0.05189535,-0.003045484,0.050852884,-1.8536917,-0.029821835,0.038161952,0.29172188,0.3324241,0.34278527,0.37503645,0.15384623,0.164306,0.19050117,0.19049956,160.40648,160.5576,161.15265,161.15775,0,0,0,0,0,0,0,0,0,0,0,0,0.0031534026,0.005263549,4.0199604E-05,0.006505981,0.15387855,0.16439028,0.19050117,0.19061062,0.0031180866,0.008110885,0.011862043,0.015696466,164,6,231,2,0,5861.6357,128.67761,-2262.7266,50.978672,752620.25,1031.9922,143.4919,141.1881,142.66087,142.66087,0,1,16.593504,0,0,4.0648217,4.0648203,0,7,255,0,0,0,1,0,27,0
True,26998125,15999.99,0,7154.4136,-0.24291992,-0.35510015,8.911811,-0.032235146,-0.2844731,52.007275,0.04216314,-0.0038425655,0.05489557,-1.8541352,-0.02874749,0.043278404,0.22841279,0.31636068,0.36385295,0.40319377,0.27172607,0.20760766,0.27105987,0.29112548,165.05411,164.2842,165.412,165.64755,0,0,0,0,0,0,0,0,0,0,0,0,0.002905666,0.0057641924,-0.0016468384,0.009826113,0.2717416,0.20768766,0.27106488,0.29129127,-0.00464781,0.0061404407,0.014366832,0.01904416,164,6,231,2,0,5856.0234,128.81992,-2264.362,52.008057,752797.6,1005.3257,143.17114,140.98584,142.47202,142.47202,0,1,20.43664,0,0,4.1783485,4.1783476,0,7,255,0,0,0,1,0,23,0
True,26998234,15999.99,0,7263.707,2.3374996,-0.3584118,9.29646,0.018651962,-0.2980116,53.05073,-0.036558963,0.12682398,0.07738476,-1.850472,-0.027601406,0.050910804,0.25845847,0.29060617,0.32085752,0.358426,0.13708751,0.20263828,0.19801755,0.25011307,166.9819,167.26479,168.05734,168.12598,0,0,0,0,0,0,0,0,0,0,0,0,0.25723532,0.27927262,0.018211117,0.024313373,0.29148412,0.34504414,0.19885321,0.25129202,-0.0009622164,0.002981227,0.009254992,0.013721608,164,6,231,2,0,5850.3105,128.94977,-2266.0212,53.05157,752516.5,989.6967,142.91054,140.82779,142.31288,142.31288,0,1,24.347319,0,0,4.29159,4.291589,0,7,255,0,0,0,1,122,19,0
True,26998343,15999.99,0,7404.9307,5.44944,0.87588006,8.694403,-0.48684216,-0.3050846,54.023254,0.025749274,0.1574636,0.05353905,-1.8268498,-0.032027844,0.058478788,0.2747317,0.29084763,0.34043577,0.36170065,0.18325256,0.27538943,0.18459122,0.24628507,170.68336,171.14784,171.04567,171.08662,0,0,0,0,0,0,0,0,0,0,0,0,0.04497628,0.05014542,0.11319254,0.12550606,0.18869118,0.2799177,0.21653284,0.27642015,0.0010339618,0.0030108467,0.011582702,0.014110941,164,6,231,2,0,5844.462,129.09903,-2267.6453,54.02631,752735.1,971.26086,142.73552,140.7433,142.1894,142.1894,0,1,28.336002,0,0,4.404966,4.4049644,0,7,255,0,0,0,1,0,13,0
True,26998453,15999.99,0,7532.5874,4.7613406,-0.8158779,8.834132,-0.42455196,-0.30952334,55.00383,-0.0006482862,0.023713233,0.055003494,-1.8179576,-0.030112343,0.064739466,0.24633734,0.27731314,0.31008032,0.34385476,0.16059701,0.22276011,0.20612599,0.2345858,173.1606,173.8964,174.09738,174.29388,0,0,0,0,0,0,0,0,0,0,0,0,0.0687198,0.07405474,0.076375976,0.083103605,0.17468202,0.23474704,0.21982087,0.24887086,-0.0024490692,0.0013506189,0.0079736635,0.011989195,164,6,231,2,0,5838.4707,129.25183,-2269.2346,55.00634,752538.3,954.34503,142.5109,140.62068,142.09332,142.09332,0,1,32.407078,0,0,4.518684,4.5186825,0,7,255,0,0,0,1,0,6,0
True,26998578,15999.99,0,7655.8394,-3.1328018,0.16662316,8.277091,-0.18080616,-0.3136708,55.951252,-0.015183899,-0.23282416,-0.020036343,-1.8293123,-0.02991426,0.066062175,0.2570798,0.29534787,0.32476968,0.35054776,0.25439292,0.14656834,0.23173317,0.16667522,176.8359,176.40546,176.84401,176.97427,0,0,0,0,0,0,0,0,0,0,0,0,-0.41648722,-0.37251443,-0.017156186,-0.0119143175,0.4880342,0.40031147,0.23236738,0.1671005,-0.0011313297,0.003562875,0.009720117,0.012784947,164,6,231,2,0,5832.354,129.40358,-2270.8354,55.952427,752588.25,939.14185,142.33734,140.546,142.00203,142.00203,0,1,36.55896,0,0,4.6326404,4.6326385,0,7,255,0,0,0,1,-127,253,0
True,26998687,15999.99,0,7780.2,-8.434987,0.45894778,8.203462,0.7291231,-0.29360336,56.821,0.01110821,-0.27512762,0.027242482,-1.8647722,-0.028354099,0.06651584,0.22209221,0.32138357,0.31812268,0.40079546,0.27943859,0.1312864,0.25249934,0.1655693,179.80902,179.05379,179.7775,179.85124,0,0,0,0,0,0,0,0,0,0,0,0,-0.067146406,-0.05896938,-0.18843397,-0.16875617,0.28739268,0.14392187,0.31506076,0.23641455,-0.0054231323,0.0067565814,0.008929845,0.018759023,164,6,231,2,0,5826.337,129.55496,-2272.5125,56.82643,752636.6,924.21295,142.26566,140.58359,141.9461,141.9461,0,1,40.661613,0,0,4.743445,4.743443,0,7,255,0,0,0,1,0,247,0
True,26998781,15999.99,0,7903.187,-8.876488,-1.1367207,8.345255,0.681057,-0.2957766,57.677994,0.014079318,-0.064097635,0.055746663,-1.881071,-0.024556966,0.07204018,0.17809692,0.27454016,0.26258045,0.3422496,0.22180073,0.15734464,0.26521415,0.20729883,182.1999,181.611,183.0465,182.65907,0,0,0,0,0,0,0,0,0,0,0,0,-0.11368657,-0.106688365,-0.14001067,-0.12770094,0.24923924,0.19010456,0.29990253,0.24347554,-0.010819875,0.0010104664,0.0023262836,0.011798352,164,6,231,2,0,5820.4126,129.69228,-2274.2805,57.682766,752424.5,909.3525,142.13007,140.51944,141.91653,141.91653,0,1,44.726006,0,0,4.851444,4.851442,0,7,255,0,0,0,1,0,244,0
True,26998890,15999.99,0,8004.3267,-8.433186,-0.961178,7.620249,0.30566597,-0.3289516,58.399513,0.034592383,-0.120936565,0.00927513,-1.8874526,-0.023115547,0.075357966,0.2104667,0.310165,0.2633144,0.34117514,0.2905686,0.21234071,0.23727785,0.1814582,185.30045,184.76488,184.85896,184.66212,0,0,0,0,0,0,0,0,0,0,0,0,-0.37994632,-0.36018205,-0.078752026,-0.07118092,0.47831926,0.41811442,0.2500053,0.19491999,-0.006849192,0.005380437,0.002413541,0.011670608,164,6,231,2,0,5815.2935,129.7951,-2275.891,58.40124,752652.1,898.36743,142.04243,140.50119,141.88136,141.88136,-1.2887125,1,48.25503,0,0,4.9438934,4.9438915,0,7,255,0,0,0,1,-127,243,0
True,26999015,15999.99,0,8133.067,-11.889933,-1.0510104,7.3117337,0.62192917,-0.33171546,59.23606,-0.023127448,-0.3785487,-0.034882482,-1.915296,-0.018220846,0.07312522,0.101354025,0.20275958,0.18166207,0.27536348,0.4031298,0.14797235,0.29494953,0.16194819,188.93515,186.99721,187.81004,187.70035,0,0,0,0,0,0,0,0,0,0,0,0,-0.6820694,-0.5724922,-0.18398467,-0.16145672,0.79229563,0.59130627,0.3476285,0.22868207,-0.02023365,-0.0077945963,-0.007294316,0.0038460903,164,6,231,2,0,5808.851,129.89743,-2278.0334,59.240253,752274.25,883.4825,142.08481,140.6547,141.86147,141.86147,-10.3785515,1,52.719593,0,0,5.059316,5.059314,0,7,255,0,0,0,1,-127,241,0
True,26999109,15999.99,0,8222.142,-14.115537,0.013310373,7.976518,1.3679695,-0.34681702,59.996006,0.0056209164,-0.266139,0.015539294,-1.9541659,-0.016243668,0.073880695,0.1280512,0.25277358,0.19774586,0.31622395,0.25595844,0.12095168,0.29704565,0.17420076,189.52725,188.85042,190.47734,190.04996,0,0,0,0,0,0,0,0,0,0,0,0,-0.17950007,-0.159864,-0.29478326,-0.2578573,0.31262597,0.20046398,0.4184893,0.3111853,-0.016958803,-0.0016595572,-0.005382072,0.0087041,164,6,231,2,0,5802.976,129.97844,-2280.1619,60.0126,752267.5,873.96136,142.09053,140.7612,141.90186,141.90186,-14.7,1,56.804344,0,0,5.164114,5.1641116,0,7,255,0,0,0,1,0,241,0
True,26999218,15999.99,0,8296.367,-14.051468,2.057115,7.563827,0.6330261,-0.31738782,60.866447,-0.031417765,-0.05002967,0.011444102,-1.9696559,-0.018714115,0.074877016,0.21828558,0.33484212,0.28785723,0.4052771,0.16146645,0.10241934,0.18550181,0.14454545,191.39693,190.76372,192.02136,191.74257,0,0,0,0,0,0,0,0,0,0,0,0,-0.22014439,-0.20088746,-0.11475453,-0.09928057,0.27301094,0.22548945,0.21812733,0.17535684,-0.005890079,0.008407492,0.005331505,0.01929186,164,6,231,2,0,5796.5254,130.06761,-2282.703,60.870567,752508.8,866.4356,142.02975,140.80048,141.94579,141.94579,-14.7,1,61.364403,0,0,5.278807,5.278804,0,7,255,0,0,0,1,-127,242,0
True,26999328,15999.99,0,8402.912,-12.879001,2.670688,7.2186165,0.37469673,-0.28373432,61.54962,-0.0038594548,-0.274011,-0.011247128,-1.9857042,-0.02155293,0.07535547,0.29303876,0.3874535,0.3351957,0.43960068,0.2717417,0.13876691,0.19529237,0.12256071,194.62976,193.8803,193.87689,194.03578,0,0,0,0,0,0,0,0,0,0,0,0,-0.5299323,-0.46913546,-0.1111007,-0.09025462,0.59554327,0.4892283,0.22468305,0.15220718,0.0032796226,0.01486114,0.010959696,0.023372672,164,6,231,2,0,5790.9478,130.16486,-2285.0503,61.551414,752664.4,855.7865,142.04071,140.9017,141.96269,141.96269,-14.7,1,65.34365,0,0,5.3776526,5.3776493,0,7,255,0,0,0,1,-127,242,0
True,26999453,15999.99,0,8548.56,-16.56045,0.40846264,6.727904,1.4120941,-0.230358,62.256435,-0.0321587,-0.53245443,-0.028177878,-2.0329647,-0.017068231,0.074472286,0.24665889,0.35150674,0.29828224,0.3996939,0.34883124,0.13330191,0.3432828,0.1549201,197.32784,196.56804,197.82285,197.54274,0,0,0,0,0,0,0,0,0,0,0,0,-0.7718092,-0.64460593,-0.33922368,-0.28140846,0.8469786,0.6582448,0.4826135,0.32123348,-0.0024096258,0.010451682,0.0065709576,0.018628053,164,6,231,2,0,5784.357,130.28111,-2288.0154,62.272873,752395.1,840.61804,142.2015,141.1973,142.0221,142.0221,-14.7,1,70.05278,0,0,5.494393,5.4943895,0,7,255,0,0,0,1,-127,240,0
True,26999562,15999.99,0,8656.913,-25.577911,3.4306011,6.8744435,2.7061577,-0.19133162,62.822918,-0.012955282,-0.5745813,-0.04486078,-2.1038065,-0.018902527,0.06935325,0.29238158,0.43904233,0.31075588,0.46480814,0.59124196,0.1793061,0.3323832,0.1388046,202.48314,199.01141,199.59898,199.3684,0,0,0,0,0,0,0,0,0,0,0,0,-1.0852301,-0.8837732,-0.5397467,-0.43180686,1.2358363,0.90177923,0.633881,0.45356795,0.003199011,0.021189354,0.008053981,0.026369654,164,6,231,2,0,5777.829,130.40543,-2291.2883,62.88147,736106.75,812.3862,142.49998,141.7244,142.2072,142.2072,-14.7,1,74.856544,0,0,5.611075,5.611071,0,7,255,0,0,0,1,-127,238,0
True,26999671,15999.99,0,8753.65,-25.070581,1.0324547,6.1629424,3.9010258,-0.13864207,63.22897,-0.017593656,-0.53672767,-0.017383844,-2.1673982,-0.01487342,0.06622558,0.2653565,0.43762583,0.2747179,0.43943548,0.69468,0.18891844,0.40690967,0.19191219,205.22714,200.21707,202.1465,201.56949,0,0,0,0,0,0,0,0,0,0,0,0,-1.3216144,-1.0339588,-0.73569936,-0.60196406,1.4930656,1.0510762,0.84073126,0.6318156,-0.000116057694,0.0210156,0.0037693344,0.023353033,164,6,231,2,0,5771.4087,130.53502,-2294.8997,63.349346,657710.44,717.632,143.43909,142.51654,142.4748,142.4748,-14.7,1,79.653885,0,0,5.727787,5.7277837,0,7,255,0,0,0,1,-127,239,0
True,26999781,15999.99,0,8779.56,-27.357803,1.4265023,7.0412054,3.8790054,-0.11026156,63.70939,-0.062682815,-0.33980784,-0.021280928,-2.2104504,-0.013889036,0.066213295,0.24233404,0.4594622,0.26980394,0.4468204,0.32427847,0.10652435,0.40249586,0.1991212,202.48357,200.70184,203.93196,202.84969,0,0,0,0,0,0,0,0,0,0,0,0,-0.5644268,-0.4573214,-0.7027003,-0.5553798,0.65094864,0.46956396,0.809809,0.5899966,-0.0029401407,0.023694187,0.0031851009,0.024231046,164,6,231,2,0,5766.094,130.63663,-2298.208,63.827465,752265.5,818.13696,143.82822,142.97238,142.74734,142.74734,-14.7,1,83.77148,0,0,5.8262696,5.8262663,0,7,255,0,0,0,1,0,241,0
True,26999890,15999.99,0,8833.59,-26.84845,1.7538972,7.0401545,2.0903397,-0.15704155,64.437546,0.017341562,-0.057891235,0.021320537,-2.2333975,-0.017711064,0.06589061,0.22061779,0.39759734,0.31162217,0.49159378,0.30939925,0.12248474,0.27634653,0.1797749,204.9404,202.30516,204.6693,203.76176,0,0,0,0,0,0,0,0,0,0,0,0,-0.3465543,-0.30104256,-0.3573284,-0.29036045,0.4645727,0.32500637,0.45172003,0.34150872,-0.005603995,0.016105447,0.008156978,0.02955427,164,6,231,2,0,5760.0137,130.76726,-2302.4373,64.471634,752459.1,813.60034,143.90526,143.24864,142.99133,142.99133,0,1,88.64065,0,0,5.9417615,5.9417577,0,7,255,0,0,0,1,0,248,0
True,27000000,15999.99,0,8866.965,-15.592279,2.374803,6.821886,0.48093414,-0.29097152,65.21321,-0.06610908,0.017825468,0.05998824,-2.2342112,-0.022915468,0.07031317,0.27783638,0.43729073,0.25951833,0.4346938,0.13138303,0.09568083,0.13566467,0.122436166,204.76373,204.09254,205.074,204.86122,0,0,0,0,0,0,0,0,0,0,0,0,-0.18652011,-0.17286342,-0.071147725,-0.05829736,0.22814743,0.19757679,0.15318911,0.13560678,0.0014148057,0.020974495,0.0019622184,0.022789285,164,6,231,2,0,5754.199,130.89328,-2306.808,65.21563,752440.3,810.5384,143.90587,143.36154,143.08252,143.08252,0,1,93.40788,0,0,6.0539417,6.0539374,0,7,255,0,0,0,1,-127,254,0
True,27000109,15999.99,0,8979.7705,-11.545863,1.6736741,5.902917,0.12844086,-0.2510612,65.89646,-0.03321734,-0.24305035,-0.00442918,-2.246817,-0.024513016,0.07471474,0.27695984,0.4025421,0.33140254,0.46565726,0.17810152,0.101139225,0.2006153,0.1292696,206.95232,206.8175,207.65863,207.64752,0,0,0,0,0,0,0,0,0,0,0,0,-0.5064476,-0.44180307,-0.06539574,-0.045336604,0.53685135,0.45323184,0.21100497,0.13698919,0.0013072826,0.016712006,0.010508716,0.026470609,164,6,231,2,0,5748.3916,131.04329,-2311.3547,65.897064,752399.44,800.28564,143.94925,143.47961,143.14032,143.14032,0,1,98.25992,0,0,6.166453,6.166448,0,7,255,0,0,0,1,-127,2,0
True,27000218,15999.99,0,9071.297,-16.021275,3.368164,5.72867,0.7922592,-0.20759273,66.42233,0.0021318244,-0.46622372,0.0074359626,-2.2828689,-0.026957287,0.074544005,0.29450366,0.42147398,0.35100272,0.47858498,0.32478598,0.12733795,0.21619843,0.105631836,210.29366,209.2967,209.19765,209.47447,0,0,0,0,0,0,0,0,0,0,0,0,-0.7028896,-0.5971105,-0.2016127,-0.16189423,0.7742995,0.6105374,0.29561704,0.1933076,0.0034593195,0.019034311,0.012839034,0.02800762,164,6,231,2,0,5743.362,131.19391,-2315.4827,66.427376,752270.06,792.25616,144.11014,143.76991,143.21516,143.21516,0,1,102.53964,0,0,6.2648034,6.2647986,0,7,255,0,0,0,1,-127,3,0
True,27000343,15999.99,0,9233.435,-21.073952,0.71558917,5.62668,2.7369576,-0.17806411,66.934784,0.038615294,-0.53972536,-0.026147038,-2.3507037,-0.02231158,0.07395386,0.2598649,0.39507088,0.29939765,0.44141823,0.58500046,0.19887502,0.3639089,0.16825144,215.61465,212.05592,213.20865,212.63272,0,0,0,0,0,0,0,0,0,0,0,0,-1.078168,-0.90476465,-0.52826303,-0.4356739,1.2266506,0.92636406,0.64147604,0.46703348,-0.0007896945,0.015795536,0.0067035705,0.02358877,164,6,231,2,0,5737.2197,131.38945,-2320.863,66.99096,710968.5,735.63965,144.3895,144.21837,143.3852,143.3852,0,1,107.92061,0,0,6.3872175,6.3872128,0,7,255,0,0,0,1,-127,5,0
True,27000453,15999.99,0,9268.501,-29.045933,3.0075183,6.0952015,4.2093887,-0.14570391,67.29101,-0.07073226,-0.6239243,-0.06970959,-2.4225016,-0.021389253,0.06838441,0.29119965,0.46691847,0.2681883,0.44530627,0.54492664,0.15098287,0.34627438,0.13907315,216.00755,212.61551,214.0903,213.73161,0,0,0,0,0,0,0,0,0,0,0,0,-1.2764804,-0.9744304,-0.7278677,-0.5638548,1.3879291,0.986058,0.8060381,0.5807526,0.0030540302,0.02460882,0.00299301,0.024051026,164,6,231,2,0,5731.491,131.56316,-2326.333,67.42269,734606.3,756.9964,145.27591,145.06071,143.67993,143.67993,0,1,113.13188,0,0,6.5050874,6.505082,0,6,255,0,0,0,1,-127,8,0
True,27000546,15999.99,0,9325.911,-31.064804,2.9285626,6.8520603,4.52314,-0.08717799,67.63639,-0.017972458,-0.4064083,-0.033092543,-2.4738064,-0.022040978,0.0655606,0.2558559,0.4469972,0.27663887,0.49752456,0.45477876,0.12110032,0.37288308,0.17350164,216.98611,213.36372,215.9718,215.00201,0,0,0,0,0,0,0,0,0,0,0,0,-0.6508296,-0.5267304,-0.7664566,-0.58926296,0.79397917,0.5404722,0.85234827,0.6142749,-0.0012814626,0.02216515,0.0039977245,0.030259393,164,6,231,2,0,5726.9165,131.72758,-2331.173,67.78751,752505.25,770.7838,145.81885,145.71861,144.00853,144.00853,0,1,117.50824,0,0,6.6036444,6.6036396,0,6,255,0,0,0,1,0,12,0
True,27000671,15999.99,0,9374.433,-28.791847,1.1007022,6.4833584,3.311306,-0.13915062,68.23269,-0.0085845655,-0.12483434,-0.020418823,-2.5042932,-0.02235323,0.06320223,0.2363626,0.41912633,0.26690406,0.48079434,0.4166646,0.121671386,0.29387316,0.16886772,218.7875,214.46335,216.95099,215.90709,0,0,0,0,0,0,0,0,0,0,0,0,-0.5175849,-0.4309992,-0.53026646,-0.419548,0.6644573,0.447844,0.60625404,0.45225748,-0.0036726333,0.018746331,0.0028403252,0.028270297,164,6,231,2,0,5721.793,131.91794,-2337.1423,68.313126,752438.56,766.6085,145.95886,146.0576,144.31705,144.31705,0,1,122.71952,0,0,6.719296,6.7192917,0,6,255,0,0,0,1,0,20,0
True,27000781,15999.99,0,9370.379,-21.999771,2.4426425,6.604824,1.0419464,-0.24203753,68.95842,-0.086431354,0.026935631,0.0434938,-2.5070834,-0.02697449,0.063684665,0.29216844,0.47018456,0.3046402,0.4752303,0.12722899,0.07760281,0.13709599,0.109804176,216.4567,215.48965,216.8469,216.4283,0,0,0,0,0,0,0,0,0,0,0,0,-0.26473042,-0.23475881,-0.14637092,-0.11681864,0.29371655,0.24725269,0.20054863,0.16032328,0.003172867,0.02500946,0.007326871,0.027608775,164,6,231,2,0,5717.0044,132.09566,-2343.2332,68.96671,752348.8,766.8371,146.02101,146.26665,144.4773,144.4773,0,1,127.81162,0,0,6.8322062,6.832202,0,6,255,0,0,0,1,-127,29,0
True,27000890,15999.99,0,9479.598,-13.766203,1.2950159,6.0460877,0.32190704,-0.22532707,69.56619,-0.020675877,-0.21907687,0.0053257206,-2.517277,-0.028707141,0.06788865,0.26247862,0.4013474,0.30909327,0.4543721,0.2035543,0.10624239,0.19286697,0.12772565,218.93677,218.28488,219.12088,219.07423,0,0,0,0,0,0,0,0,0,0,0,0,-0.55396926,-0.47948834,-0.08483494,-0.06541934,0.59018326,0.49111763,0.21070035,0.14350446,-0.00046907738,0.016565453,0.007856309,0.025128886,164,6,231,2,0,5712.383,132.2958,-2349.451,69.5673,752402.1,758.06085,146.0897,146.42017,144.5552,144.5552,0,1,132.99362,0,0,6.9440722,6.944068,0,6,255,0,0,0,1,-127,36,0
True,27001000,15999.99,0,9584.9795,3.2251134,2.81331,-0.5283258,3.142006,-0.12355095,69.47271,-0.037664026,-0.41038698,-0.017163428,-2.5547423,-0.02983098,0.06443814,0.23373847,0.40776086,0.26793507,0.4443157,0.5242748,0.16264926,0.36398807,0.18707511,223.4747,219.47473,221.44647,221.1509,0,0,0,0,0,0,0,0,0,0,0,0,-1.0539267,-0.8586208,-0.514133,-0.416936,1.177126,0.87389046,0.6299365,0.4569822,-0.003994528,0.017352171,0.002962906,0.023933254,164,6,231,2,0,5707.836,132.51599,-2355.6821,69.54384,717404.44,714.6389,146.31221,146.79437,144.66281,144.66281,0,1,138.06921,0,0,7.0549493,7.054945,0,6,255,0,0,0,1,-127,38,0
True,27001109,15999.99,0,9619.051,-11.478092,1.960014,1.7834768,4.5830307,-0.12771279,69.54823,-0.039169148,-0.3876029,0.00983375,-2.5989773,-0.030080471,0.06649375,0.17695194,0.39264315,0.19290571,0.4137426,0.5330636,0.2023976,0.4128456,0.21021418,223.73114,220.1458,222.74861,221.77197,0,0,0,0,0,0,0,0,0,0,0,0,-1.287451,-1.0613586,-0.7474459,-0.5946411,1.3934443,1.0804845,0.8538834,0.6307044,-0.010960326,0.015497737,-0.005957529,0.020298343,164,6,231,2,0,5703.267,132.76761,-2362.0703,69.69919,676161.75,671.1721,147.29672,147.68195,144.93695,144.93695,0,1,143.23793,0,0,7.167825,7.1678205,0,6,255,0,0,0,1,-127,34,0
True,27001218,15999.99,0,9648.763,-13.778744,2.1579614,2.0220575,5.5798416,-0.061705023,69.562706,-0.001537195,-0.24525394,0.0005101334,-2.6373749,-0.03075549,0.06789442,0.1624613,0.35750386,0.18330543,0.3797767,0.5031877,0.17329368,0.44483447,0.2532167,224.49722,220.20207,223.76497,222.42548,0,0,0,0,0,0,0,0,0,0,0,0,-0.7925721,-0.6771017,-0.87033266,-0.6989518,0.93881226,0.69892585,0.9774235,0.7434059,-0.012737842,0.011187326,-0.007098932,0.016260043,164,6,231,2,0,5698.883,133.0374,-2368.527,69.78616,674413.75,667.2563,148.47704,148.95581,145.29214,145.29214,0,1,148.45534,0,0,7.279826,7.279822,0,6,255,0,0,0,1,0,29,0
True,27001343,15999.99,0,9689.806,-13.76416,2.654997,3.485909,5.578661,-0.13014266,69.8443,-0.012291592,-0.09329149,-0.016920181,-2.6601593,-0.034495287,0.06531017,0.13946965,0.33161405,0.16591649,0.37585756,0.7046699,0.18709265,0.3830213,0.24129137,228.96893,220.71727,223.81972,222.59451,0,0,0,0,0,0,0,0,0,0,0,0,-0.8790208,-0.73266786,-0.8408837,-0.68302685,1.1266043,0.75617844,0.92400795,0.7243944,-0.015558144,0.008011516,-0.009166349,0.01579409,164,6,231,2,0,5694.663,133.3237,-2375.0535,70.06686,663538,654.0746,148.65854,149.35306,145.66321,145.66321,0,1,153.56346,0,0,7.3910866,7.3910823,0,6,255,0,0,0,1,0,21,0
True,27001437,15999.99,0,9666.676,-17.874973,1.3004481,6.183159,4.019903,-0.21707162,70.42091,-0.08394365,0.015236458,-0.050284848,-2.6626735,-0.036401413,0.06423665,0.17285246,0.3597618,0.18985339,0.3801763,0.30873418,0.112124674,0.29783773,0.1834051,224.41446,220.97147,224.2226,222.87137,0,0,0,0,0,0,0,0,0,0,0,0,-0.6049094,-0.4941031,-0.57927954,-0.4533696,0.6791408,0.5066654,0.65136176,0.48906177,-0.011463197,0.0114643015,-0.006320428,0.016307555,164,6,231,2,0,5691.1187,133.57245,-2380.8318,70.53588,751942.25,742.5462,148.81886,149.65912,145.9233,145.9233,0,1,158.02339,0,0,7.4875927,7.4875884,0,6,255,0,0,0,1,-2,12,0
True,27001546,15999.99,0,9714.5205,-12.970243,2.3263867,5.4026265,1.6479836,-0.2828446,71.06196,-0.02896106,0.021156507,0.045942966,-2.653919,-0.04238874,0.06431863,0.1545054,0.35730416,0.20807903,0.4077881,0.2903524,0.13790947,0.22031721,0.16169252,225.62802,222.92622,224.79509,223.99034,0,0,0,0,0,0,0,0,0,0,0,0,-0.7071674,-0.61112344,-0.23832276,-0.19937041,0.7644542,0.6264909,0.32455724,0.25669637,-0.013713762,0.011162829,-0.004153535,0.019590396,164,6,231,2,0,5687.075,133.89131,-2387.8545,71.08163,752285,739.47955,148.93564,149.98093,146.10242,146.10242,0,1,163.36293,0,0,7.6021614,7.602157,0,6,255,0,0,0,1,-127,254,0
True,27001656,15999.99,0,9761.373,-16.590334,1.73198,5.3355064,0.62654877,-0.31628305,71.61745,-0.0072006155,-0.24632351,0.00067647034,-2.6669722,-0.044387877,0.06786816,0.20636627,0.3402545,0.25278062,0.44081488,0.2505555,0.12366867,0.18588382,0.115227886,226.02145,224.95891,225.42764,225.38014,0,0,0,0,0,0,0,0,0,0,0,0,-0.7047021,-0.6081598,-0.12753634,-0.10396697,0.74791914,0.62060636,0.22542918,0.15519857,-0.007352177,0.009071406,0.0011611544,0.023517035,164,6,231,2,0,5683.3022,134.20976,-2394.8162,71.62089,752418,736.2211,149.13239,150.31612,146.18704,146.18704,0,1,168.55951,0,0,7.7132096,7.7132053,0,6,255,0,0,0,1,-127,239,0
True,27001765,15999.99,0,9835.558,-19.0394,1.7068028,5.344139,1.5494862,-0.2267397,72.106026,-0.049767714,-0.51238316,-0.014545011,-2.7098594,-0.042749893,0.069539495,0.24622203,0.39195964,0.2847256,0.42651978,0.1911164,0.07653475,0.25637102,0.11232105,225.94464,226.5138,227.67592,227.61215,0,0,0,0,0,0,0,0,0,0,0,0,-0.33806446,-0.2891354,-0.30313438,-0.2458095,0.38834658,0.29909337,0.39700952,0.27025604,-0.002463214,0.0154138915,0.004959177,0.021817453,164,6,231,2,0,5679.6797,134.53595,-2401.9634,72.12303,752230.8,730.26276,149.34065,150.67567,146.28264,146.28264,0,1,173.76834,0,0,7.824784,7.8247795,0,6,255,0,0,0,1,0,224,0
True,27001875,15999.99,0,9889.866,-22.62106,4.057521,5.652003,2.0108242,-0.18442225,72.632065,-0.033300392,-0.24407457,-0.030765306,-2.7526603,-0.046905417,0.06830462,0.30430445,0.4437812,0.30521572,0.45579287,0.16901365,0.07173746,0.19605352,0.11412621,228.04768,227.524,228.8129,228.65663,0,0,0,0,0,0,0,0,0,0,0,0,-0.24132578,-0.20364426,-0.3178935,-0.26265374,0.29462475,0.21591027,0.37348795,0.28637698,0.004661545,0.021770656,0.0073952973,0.025297806,164,6,231,2,0,5676.2705,134.89397,-2409.3083,72.66013,752423.75,726.62427,149.35803,150.81194,146.4643,146.4643,0,1,179.08052,0,0,7.936731,7.9367266,0,6,255,0,0,0,1,0,209,0
True,27002000,15999.99,0,9939.673,-20.246922,4.3284802,5.326013,1.0499363,-0.21059513,73.19284,-0.0932291,-0.19406189,-0.024473082,-2.7704127,-0.05236169,0.06761901,0.36242083,0.48432457,0.30624482,0.45460823,0.12531042,0.069474615,0.14516062,0.09183647,229.12474,229.01389,229.81143,229.81445,0,0,0,0,0,0,0,0,0,0,0,0,-0.38781872,-0.3362856,-0.1676318,-0.13633923,0.40756112,0.34338713,0.22174767,0.16438468,0.011790473,0.026743963,0.0075176507,0.02515696,164,6,231,2,0,5673.1006,135.284,-2416.7947,73.200676,752389.1,722.9538,149.39105,150.95332,146.59322,146.59322,0,1,184.4265,0,0,8.048324,8.04832,0,6,255,0,0,0,1,-127,198,0
True,27002093,15999.99,0,9993.065,-18.449,9.649573,5.507334,1.076891,-0.10521698,73.6989,-0.074646264,-0.20655365,0.014393164,-2.801332,-0.06478137,0.06901129,0.4115509,0.55416703,0.45001653,0.6084461,0.078330025,0.05628718,0.12706111,0.08220709,229.83098,230.44324,231.06758,231.20322,0,0,0,0,0,0,0,0,0,0,0,0,-0.100080356,-0.09229842,-0.17813142,-0.11703591,0.12708922,0.10810756,0.21880431,0.14302242,0.017817084,0.03531128,0.024611041,0.043447144,164,6,231,2,0,5670.155,135.75365,-2424.4236,73.70683,752429,719.18713,149.50159,151.19098,146.75182,146.75182,-2.1297379,1,189.79306,0,0,8.159841,8.159838,0,6,255,0,0,0,1,0,193,0
True,27002218,15999.99,0,10064.061,-12.087527,7.8562794,5.068243,0.5391998,-0.1143477,74.214226,-0.07710759,-0.023551632,0.0072612334,-2.812849,-0.07585109,0.07097374,0.47481588,0.56353086,0.45740578,0.58002377,0.075430475,0.06726897,0.115178324,0.09943145,231.82854,231.8007,232.81296,232.69603,0,0,0,0,0,0,0,0,0,0,0,0,-0.06532537,-0.06301053,-0.08458728,-0.038125087,0.099785574,0.092170715,0.14290226,0.106490076,0.025577568,0.036459908,0.025489569,0.04006794,164,6,231,2,0,5667.4087,136.3243,-2432.0835,74.21627,752440.2,714.0927,149.517,151.25786,146.89153,146.89153,-9.655735,1,195.15668,0,0,8.270123,8.270121,0,6,255,0,0,0,1,0,191,0
True,27002328,15999.99,0,10123.078,-5.3818016,10.442718,4.5569997,0.12054634,-0.12995338,74.71483,-0.11599669,-0.0046199784,0.020885155,-2.8153365,-0.09131534,0.073283605,0.5534888,0.58497614,0.50593346,0.5638375,0.06902717,0.07311114,0.08857297,0.08371089,233.36523,233.45389,234.01297,233.97104,0,0,0,0,0,0,0,0,0,0,0,0,-0.015675643,-0.0151224015,-0.033387955,0.010992994,0.07078472,0.07465873,0.09465689,0.08442961,0.03522809,0.03909052,0.03125915,0.038143516,164,6,231,2,0,5664.724,137.0017,-2439.8875,74.71505,752429.9,709.9421,149.54843,151.30972,147.02094,147.02094,-14.7,1,200.61336,0,0,8.38131,8.381308,0,6,255,0,0,0,1,0,192,0
True,27002437,15999.99,0,10193.357,-1.8166449,7.935933,4.275362,0.0067481995,-0.09573364,75.18704,-0.05459576,-0.003094229,0.0074227806,-2.81667,-0.10224933,0.0742537,0.48295686,0.49438748,0.5206135,0.52808714,0.07869792,0.072672315,0.10166876,0.10213891,234.94112,234.86116,235.67659,235.69586,0,0,0,0,0,0,0,0,0,0,0,0,-0.0011359055,-0.0004617602,-0.022348158,0.020314598,0.078706115,0.07267378,0.104096,0.104139514,0.026576191,0.027978346,0.0330045,0.033893056,164,6,231,2,0,5662.0684,137.79811,-2447.7334,75.1871,752374.06,704.93945,149.55725,151.31866,147.14594,147.14594,-14.7,1,206.0845,0,0,8.492324,8.49232,0,6,255,0,0,0,1,0,195,0
True,27002562,15999.99,0,10248.091,-0.9696785,7.710347,4.192253,-0.02677536,-0.14832449,75.65379,-0.13577922,-0.002171963,-0.021015543,-2.8177564,-0.1130995,0.07352219,0.48886952,0.4619639,0.47188225,0.474165,0.06141624,0.061564147,0.0868576,0.08686302,236.17648,236.18849,236.9365,236.94533,0,0,0,0,0,0,0,0,0,0,0,0,0.0043824306,0.0037887592,-0.008681812,0.01584059,0.0615724,0.061680622,0.08729042,0.08829557,0.027301475,0.024001062,0.027210712,0.027482115,164,6,231,2,0,5659.4,138.68262,-2455.6716,75.653946,752361.5,701.1663,149.57521,151.33307,147.24847,147.24847,-14.7,1,211.62769,0,0,8.603972,8.60397,0,6,255,0,0,0,1,0,197,0
True,27002656,15999.99,0,10320.603,-0.66243446,5.2885265,3.9734101,-0.04377556,-0.15327597,76.04245,-0.050212264,-0.0019550123,0.0005384013,-2.8185017,-0.12049279,0.07350663,0.4691059,0.46236873,0.47589985,0.46303773,0.07367722,0.08552061,0.12517625,0.120560296,237.52582,237.7533,238.75761,238.70874,0,0,0,0,0,0,0,0,0,0,0,0,0.005118151,0.006260844,-0.010032251,0.01789507,0.073854774,0.08574948,0.12557763,0.121881165,0.024877146,0.02405072,0.027688377,0.026159167,164,6,231,2,0,5657.0054,139.56108,-2462.8245,76.04261,752260.7,696.1584,149.57704,151.33539,147.35278,147.35278,0,1,216.62012,0,0,8.704086,8.704083,0,6,255,0,0,0,1,0,200,0
True,27002765,15999.99,0,10371.049,-0.59411484,6.245911,3.9479225,-0.040418625,-0.1824956,76.51044,-0.06354691,-0.0006158094,-0.012689813,-2.8194559,-0.13058051,0.069884785,0.46840692,0.44904044,0.49557507,0.4559259,0.089772046,0.07690908,0.09220918,0.094512075,239.32988,239.10228,239.66531,239.68599,0,0,0,0,0,0,0,0,0,0,0,0,0.005004897,0.006077173,-0.01091779,0.015423776,0.08991145,0.07714881,0.09285328,0.09576234,0.024791405,0.022415787,0.030027613,0.025313623,164,6,231,2,0,5654.1445,140.68028,-2471.393,76.51066,752264.9,692.7701,149.59875,151.34805,147.46474,147.46474,0,1,222.60449,0,0,8.823406,8.823402,0,6,255,0,0,0,1,0,204,0
True,27002890,15999.99,0,10434.552,-0.0070843697,1.8510953,4.066506,-0.045173645,-0.20779705,76.93917,-0.066467695,-0.0020024683,-0.028675588,-2.8197694,-0.13246408,0.06874649,0.43694934,0.39144763,0.43028554,0.41621077,0.07730108,0.08022904,0.10811829,0.10780673,240.4389,240.49721,241.25725,241.25932,0,0,0,0,0,0,0,0,0,0,0,0,0.006425568,0.0072333002,-0.002444158,0.012951324,0.077567674,0.08055445,0.10814591,0.10858189,0.020932615,0.015351087,0.022265173,0.020591788,164,6,231,2,0,5651.412,141.80025,-2479.5945,76.93946,752264.3,688.4826,149.5844,151.32527,147.53929,147.53929,0,1,228.3384,0,0,8.93702,8.9370165,0,6,255,0,0,0,1,0,207,0
True,27003000,15999.99,0,10493.026,0.21958959,2.4030128,3.9146168,-0.043296814,-0.23271084,77.346794,-0.030095074,-0.0016159597,-0.030138783,-2.8202748,-0.13691773,0.06624418,0.4793412,0.42807388,0.42923293,0.4110574,0.090508506,0.10524968,0.10587319,0.10396433,241.9157,242.22443,242.48466,242.46066,0,0,0,0,0,0,0,0,0,0,0,0,0.0056250365,0.008529516,-0.0024805402,0.011793879,0.09068313,0.10559474,0.10590225,0.10463115,0.026132673,0.019843895,0.022140026,0.019979093,164,6,231,2,0,5648.6934,142.94553,-2487.7666,77.347145,752339.7,684.7605,149.5816,151.31628,147.6256,147.6256,0,1,234.05013,0,0,9.049636,9.049634,0,6,255,0,0,0,1,0,211,0
True,27003109,15999.99,0,10546.861,-0.4512539,-0.021522075,3.7126298,-0.04269409,-0.24286938,77.742325,-0.04944124,0.000553319,-0.04559701,-2.8203852,-0.13600045,0.060889874,0.3790133,0.32470995,0.4123814,0.35938594,0.082435906,0.08013107,0.113119155,0.11572005,243.01794,242.97478,243.8626,243.91219,0,0,0,0,0,0,0,0,0,0,0,0,0.006269784,0.0068816985,-0.0006854861,0.009642378,0.08267399,0.08042603,0.113121234,0.11612108,0.013825811,0.007164616,0.02013651,0.013835739,164,6,231,2,0,5646.017,144.0814,-2495.8193,77.74271,752266,681.1704,149.56401,151.28691,147.68878,147.68878,0,1,239.6776,0,0,9.160051,9.160049,0,6,255,0,0,0,1,0,215,0
True,27003218,15999.99,0,10610.251,-0.13666338,-1.2729893,3.413435,-0.042268753,-0.2653098,78.06678,0.015204867,-0.0023198056,-0.018831445,-2.8204434,-0.13474622,0.058528718,0.33146176,0.29325345,0.3822243,0.35876587,0.10852743,0.1230963,0.13849327,0.13314864,244.50952,244.79262,245.27411,245.2223,0,0,0,0,0,0,0,0,0,0,0,0,0.0057195304,0.0075478605,0.0012144566,0.008375917,0.108678035,0.123327486,0.13849859,0.13341182,0.007992834,0.0033059604,0.016551048,0.013762012,164,6,231,2,0,5643.6777,145.07024,-2502.8591,78.06724,752286.25,677.09515,149.54445,151.26207,147.74612,147.74612,0,1,244.59758,0,0,9.256115,9.256112,0,6,255,0,0,0,1,0,218,0
True,27003328,15999.99,0,10695.225,0.122742414,-4.7303543,3.3719049,-0.027597427,-0.29710054,78.45531,0.04569824,-0.00417606,-0.058753002,-2.820509,-0.12801237,0.05398392,0.3060473,0.24654944,0.33298004,0.29345304,0.12656592,0.1426788,0.18482123,0.18918063,246.04936,246.32312,247.39383,247.48953,0,0,0,0,0,0,0,0,0,0,0,0,0.005554221,0.0075534214,0.003211897,0.0050660106,0.12668772,0.1428786,0.18484914,0.18924844,0.004875336,-0.0024230517,0.01069627,0.0059968047,164,6,231,2,0,5640.8584,146.22145,-2511.342,78.45587,752143.6,671.46704,149.51001,151.21704,147.7913,147.7913,0,1,250.52267,0,0,9.371285,9.371283,0,6,255,0,0,0,1,0,222,0
True,27003437,15999.99,0,10714.594,-0.04069662,-0.8165935,3.6906126,-0.015447617,-0.31466198,78.866035,0.0379207,-0.0029318787,-0.018086325,-2.8208432,-0.12781441,0.04909605,0.3078348,0.2568092,0.35346127,0.31153914,0.12747385,0.120881185,0.12440019,0.12282771,247.31508,247.2274,247.55121,247.53711,0,0,0,0,0,0,0,0,0,0,0,0,0.0021655927,0.004231289,-0.0006812587,0.0028575556,0.12749225,0.12095522,0.12440205,0.122860946,0.0050946027,-0.001164522,0.013131335,0.008147109,164,6,231,2,0,5638.1167,147.30371,-2519.591,78.86667,752463.56,670.7977,149.49835,151.2027,147.8602,147.8602,0,1,256.27902,0,0,9.48262,9.482616,0,6,255,0,0,0,1,0,225,0
True,27003546,15999.99,0,10805.965,-0.4091307,-4.6189356,3.3068383,-0.018527985,-0.3026414,79.240105,0.03580144,-0.0013496522,-0.05258016,-2.8207724,-0.12050407,0.044771507,0.2992601,0.2479997,0.35021105,0.30100566,0.11795371,0.11034758,0.20158634,0.20756266,248.3437,248.20888,250.17285,250.33119,0,0,0,0,0,0,0,0,0,0,0,0,0.0036892577,0.0050778207,0.0011616574,0.004841272,0.118011385,0.11046435,0.20158967,0.20761912,0.0040427744,-0.0022451542,0.012744915,0.006894756,164,6,231,2,0,5635.385,148.35158,-2527.816,79.240685,752176.3,664.66455,149.46614,151.15912,147.90024,147.90024,0,1,262.01788,0,0,9.5930605,9.593056,0,6,255,0,0,0,1,0,229,0
True,27003656,15999.99,0,10840.284,-0.2726828,-2.7071857,3.5423422,-0.017824173,-0.33120966,79.64926,0.06337043,-0.0005674525,-0.056383733,-2.8208055,-0.11785962,0.04019591,0.28952116,0.23415622,0.34350118,0.30955994,0.11882121,0.21808216,0.14697321,0.12315858,249.53941,251.59018,250.41353,250.05753,0,0,0,0,0,0,0,0,0,0,0,0,0.0034179504,0.0063906796,0.0017335324,0.004450209,0.11887036,0.21817577,0.14698343,0.12323896,0.0028481334,-0.003943283,0.011947155,0.007911794,164,6,231,2,0,5632.6226,149.36717,-2536.13,79.64996,752506.6,663.0741,149.4483,151.13593,147.95692,147.95692,0,1,267.81384,0,0,9.704046,9.7040415,0,6,255,0,0,0,1,0,233,0
True,27003765,15999.99,0,11000.762,-0.07765287,-6.16134,2.7524369,0.009296417,-0.345356,79.97836,0.11850668,-0.00993431,-0.025493111,-2.821,-0.10952971,0.03200856,0.24147725,0.20953533,0.2743682,0.2784827,0.32077208,0.23970582,0.2910443,0.27163786,254.46674,252.98276,254.17068,254.30348,0,0,0,0,0,0,0,0,0,0,0,0,0.00043426,0.003211081,-0.0018061702,-0.0014263432,0.32077238,0.23972732,0.2910499,0.27164158,-0.0030452386,-0.0069634393,0.0037277602,0.004216939,164,6,231,2,0,5629.8794,150.32901,-2544.385,79.97911,752618.56,653.5204,149.42416,151.09383,148.0014,148.0014,0,1,273.56763,0,0,9.813677,9.813673,0,6,255,0,0,0,1,0,237,0
True,27003875,15999.99,0,10925.657,-0.18549895,-2.4971645,3.955852,0.022138596,-0.37611055,80.4697,0.024643257,-0.00341342,-0.0130683705,-2.821657,-0.10630333,0.030159986,0.30744994,0.29616183,0.32520652,0.31293643,0.09529279,0.09650538,0.12915473,0.1277579,251.706,251.73866,252.64507,252.64995,0,0,0,0,0,0,0,0,0,0,0,0,-0.0026901003,-0.00074090535,-0.0042006574,-0.0018986901,0.09533075,0.09650822,0.12922302,0.127772,0.005047392,0.0036627203,0.009772055,0.008313235,164,6,231,2,0,5627.0522,151.25177,-2552.8977,80.47057,752381.1,657.6875,149.42273,151.08217,148.06282,148.06282,0,1,279.49353,0,0,9.926042,9.926038,0,6,255,0,0,0,1,0,241,0
True,27003984,15999.99,0,10999.872,0.08392322,-1.4875293,3.3188505,0.0055980682,-0.31910896,80.7946,0.08165819,0.03648314,-0.04800668,-2.820945,-0.104488745,0.027088242,0.3299866,0.26806495,0.39007747,0.34429598,0.14785847,0.177753,0.14002694,0.15246676,253.84785,254.29228,253.97826,254.0591,0,0,0,0,0,0,0,0,0,0,0,0,0.1566997,0.16476649,0.00036429617,0.008425516,0.21544588,0.24237187,0.14002742,0.15269938,0.0078118816,0.0002161786,0.017484736,0.012041651,164,6,231,2,0,5624.5986,152.04703,-2560.2952,80.795235,752601.9,653.6373,149.41957,151.06265,148.12085,148.12085,-1.7761059,1,284.6438,0,0,10.023185,10.02318,0,6,255,0,0,0,1,72,244,0
True,27004093,15999.99,0,9910.793,-5.8493614,-2.9790745,-58.431705,-1.5285892,-0.33312273,68.97733,-0.008135681,-0.013414578,0.018055368,-2.8211246,-0.100062124,0.02606657,0.2963359,0.2494714,0.36299178,0.3006761,0.20684257,0.31402215,0.26932573,0.29999527,227.50522,229.23969,229.27545,229.04884,0,0,0,0,0,0,0,0,0,0,0,0,0.15788801,0.16798908,0.15255879,0.1688393,0.2602162,0.35613233,0.30953276,0.3442439,0.0036840737,-0.0020646267,0.014264442,0.0068555735,164,6,231,2,0,5622.445,152.74915,-2567.2163,68.99507,695411.8,668.6034,149.60368,151.34007,148.29596,148.29596,-4.370741,1,289.42886,0,0,10.124186,10.124181,0,6,255,0,0,0,1,0,250,0
True,27004203,15999.99,0,9058.306,-0.79940796,-2.5352201,-33.028473,-0.43318367,-0.417089,65.73476,0.07031489,-0.15424599,-0.061919138,-2.8345566,-0.09738953,0.025425358,0.25090164,0.16426317,0.36433715,0.28024244,0.22417162,0.24249911,0.25907668,0.25345004,208.24998,209.14865,209.22273,209.71022,0,0,0,0,0,0,0,0,0,0,0,0,0.10058229,0.103367634,0.032722868,0.03809802,0.24570249,0.26361087,0.26113504,0.25629747,-0.0018891841,-0.0125168115,0.014424402,0.004426159,164,6,231,2,0,5620.0293,153.51599,-2575.0444,65.7375,752271.94,792.9323,149.68814,151.44019,148.49615,148.49615,-6.778592,1,294.8328,0,0,10.248285,10.248282,0,6,255,0,0,0,1,0,2,0
True,27004328,15999.99,0,8886.035,-5.6656175,-3.6760817,-20.233479,-0.0650692,-0.38122034,64.077255,0.07097962,-0.103621095,-0.042397954,-2.8486812,-0.09001059,0.021392908,0.23109892,0.18298763,0.33845156,0.27949697,0.24006489,0.23933776,0.2976249,0.26898888,204.32901,204.70686,205.62434,205.57089,0,0,0,0,0,0,0,0,0,0,0,0,-0.014307341,-0.011804509,-0.025667626,-0.022859562,0.24049085,0.2396287,0.29872963,0.26995847,-0.004318312,-0.01021995,0.011346798,0.0043375306,164,6,231,2,0,5617.7974,154.18333,-2582.3086,64.07842,751587.8,807.14215,149.69427,151.43324,148.57774,148.57774,0,1,299.8443,0,0,10.365596,10.365593,0,6,255,0,0,0,1,-1,9,0
True,27004437,15999.99,0,8698.643,-3.9339154,0.281258,-4.266169,0.17329788,-0.36501312,63.847668,0.005399905,-0.04893797,-0.036508895,-2.8591533,-0.09003943,0.018446125,0.36237943,0.31465325,0.38774347,0.3635745,0.14319828,0.16906466,0.1493727,0.12929088,200.56262,201.20824,200.93204,200.85579,0,0,0,0,0,0,0,0,0,0,0,0,-0.016661681,-0.013846312,-0.037328243,-0.0289721,0.14416435,0.1696307,0.15396623,0.13249722,0.011785395,0.0059309974,0.017207239,0.014333729,164,6,231,2,0,5615.688,154.8034,-2589.431,63.84895,752538.1,826.4521,149.71136,151.44016,148.67157,148.67157,0,1,304.73715,0,0,10.482839,10.482835,0,6,255,0,0,0,1,0,18,0
True,27004546,15999.99,0,9048.527,14.58446,-1.0356531,10.707884,2.8853302,-0.13687801,65.36276,0.0031597065,-0.07455223,-0.06823897,-2.8655145,-0.085083455,0.0060371016,0.2455203,0.27476606,0.2834707,0.3271946,0.42991772,0.14277057,0.44991744,0.32230633,209.83925,205.64998,210.12616,209.14351,0,0,0,0,0,0,0,0,0,0,0,0,-0.12707485,-0.10600252,-0.44889945,-0.40417618,0.4483049,0.17782004,0.6355599,0.5169524,-0.0025492944,0.0010381788,0.0048099756,0.0100084245,164,6,231,2,0,5613.686,155.35359,-2595.6086,65.42655,707661.1,746.5466,149.73997,151.487,148.74323,148.74323,-2.4748898,1,309.02097,0,0,10.583253,10.583248,0,6,255,0,0,0,1,6,22,0
True,27004656,15999.99,0,9141.455,9.049072,-3.521218,5.001093,3.464323,-0.21554184,65.91912,0.049140748,0.15919645,-0.016116247,-2.8606212,-0.08018526,0.0029820937,0.2263115,0.24084423,0.2856001,0.29924178,0.2295014,0.23667842,0.4251764,0.4326412,209.2052,208.64009,212.46928,212.13976,0,0,0,0,0,0,0,0,0,0,0,0,0.22417276,0.2599223,-0.49631125,-0.48346743,0.3208182,0.3515342,0.65352875,0.64878285,-0.0049055666,-0.0031228885,0.0050631464,0.0066850446,164,6,231,2,0,5611.2197,155.96967,-2602.8582,66.010445,720827.1,752.9007,149.81831,151.55682,148.95525,148.95525,-6.426593,1,314.07184,0,0,10.700073,10.7000675,0,6,255,0,0,0,1,127,24,0
True,27004765,15999.99,0,9078.626,7.996513,-1.9557488,4.5104136,2.5948753,-0.4399066,66.43237,0.03486729,0.3592654,-0.015322719,-2.8348944,-0.080630586,-0.0004004333,0.23502111,0.2515885,0.30247086,0.32017025,0.17667155,0.2061581,0.15807278,0.18713407,210.34354,209.09496,210.08476,209.19112,0,0,0,0,0,0,0,0,0,0,0,0,0.27891567,0.30938748,-0.29387695,-0.27647796,0.33016178,0.3717819,0.33369246,0.3338551,-0.0038371906,-0.0018049292,0.007068958,0.009173285,164,6,231,2,0,5609.016,156.466,-2609.0413,66.48448,752460,791.64886,149.87126,151.61829,149.14099,149.14099,-10.660719,1,318.3991,0,0,10.799426,10.799421,0,6,255,0,0,0,1,112,23,0
True,27004875,15999.99,0,9135.913,5.0300546,-1.1908846,5.0005665,-0.26535988,-0.31793737,67.060745,0.031143598,0.43490764,-0.018796965,-2.7833362,-0.07651024,-0.0062435204,0.2915161,0.26224822,0.3701951,0.3467472,0.12243009,0.14014664,0.12637801,0.20328806,211.30063,209.55319,211.58806,210.99937,0,0,0,0,0,0,0,0,0,0,0,0,-0.05940068,-0.0581004,0.103799626,0.11279836,0.13607927,0.15171269,0.16354132,0.2324855,0.003092844,-0.00049734116,0.015120864,0.01233308,164,6,231,2,0,5606.4077,157.01302,-2616.138,67.06202,752549.25,786.9053,149.92006,151.668,149.23015,149.23015,-14.7,1,323.38297,0,0,10.912979,10.912974,0,6,255,0,0,0,1,0,21,0
True,27005000,15999.99,0,9236.452,10.37588,-0.48749065,5.5814033,-1.3446846,-0.28899336,67.68769,0.023715809,0.15678872,0.013695312,-2.7497225,-0.075030886,-0.0069196406,0.31296688,0.26729217,0.36698687,0.31927413,0.12179079,0.21627091,0.14382318,0.20253775,212.69908,213.42415,213.41124,213.48177,0,0,0,0,0,0,0,0,0,0,0,0,-0.049271073,-0.04660786,0.20306805,0.22486524,0.13137974,0.22123607,0.2488408,0.30263165,0.005724136,0.00012138486,0.014739431,0.009066742,164,6,231,2,0,5603.677,157.56279,-2623.3408,67.70167,752425.3,778.08075,149.94366,151.66197,149.36197,149.36197,-14.7,1,328.45935,0,0,11.027578,11.027574,0,6,255,0,0,0,1,-4,17,0
True,27005109,15999.99,0,9341.888,4.0075254,-2.7695906,5.7869587,-1.0547028,-0.29310226,68.338745,0.05033869,-0.12781927,-0.053335138,-2.748431,-0.069955364,-0.009931304,0.30373544,0.23870236,0.36570612,0.30202731,0.19025297,0.16821054,0.21346192,0.20145042,215.15372,215.3487,215.87386,216.15448,0,0,0,0,0,0,0,0,0,0,0,0,-0.22803462,-0.2138385,0.13219325,0.13810864,0.2969781,0.27206928,0.25107977,0.24424633,0.004591748,-0.0033856258,0.0145871565,0.007016219,164,6,231,2,0,5600.764,158.10756,-2630.7236,68.34751,752459.9,769.3037,149.96237,151.66188,149.48488,149.48488,-14.7,1,333.68515,0,0,11.144514,11.144509,0,6,255,0,0,0,1,-100,10,0
True,27005218,15999.99,0,9413.514,-5.7305202,-1.1228783,5.191529,0.2881546,-0.3330269,68.95096,0.02372206,-0.3926132,-0.062538475,-2.7792728,-0.068985984,-0.016487932,0.24668577,0.23581311,0.30152336,0.2904859,0.29582787,0.110717185,0.20975946,0.12605657,218.08307,216.89813,217.17003,217.5336,0,0,0,0,0,0,0,0,0,0,0,0,-0.14291412,-0.12542903,-0.10106292,-0.09438562,0.32854006,0.16730432,0.2328363,0.15747666,-0.002406329,-0.0037400387,0.0069563016,0.005644031,164,6,231,2,0,5597.914,158.6132,-2638.0056,68.95236,752474.6,763.4518,150.0878,151.81117,149.5556,149.5556,-14.7,1,338.83478,0,0,11.258636,11.258633,0,6,255,0,0,0,1,0,4,0
True,27005328,15999.99,0,9486.503,-8.456787,-2.3922775,5.7688723,1.3144855,-0.33854723,69.47243,0.027207267,-0.16378888,-0.076558895,-2.806833,-0.065827854,-0.019269403,0.20652579,0.2015422,0.27762836,0.26463535,0.19824952,0.1262922,0.23615488,0.1494363,218.79453,218.33607,219.6814,219.05437,0,0,0,0,0,0,0,0,0,0,0,0,-0.16366795,-0.1513554,-0.22071803,-0.19973002,0.2570799,0.19712476,0.32324228,0.24944596,-0.007332608,-0.007943928,0.004115369,0.0025705956,164,6,231,2,0,5595.4834,159.04291,-2644.451,69.48568,752260.7,757.349,150.1047,151.82458,149.62457,149.62457,-14.7,1,343.37204,0,0,11.358334,11.35833,0,6,255,0,0,0,1,0,1,0
True,27005437,15999.99,0,9544.533,-8.410765,-1.9647243,5.5127606,0.67492676,-0.34789038,70.109764,0.0082494235,0.008956962,-0.018786144,-2.8134265,-0.06274583,-0.025214862,0.23196253,0.25186422,0.2981925,0.30227828,0.15113398,0.10336461,0.16435987,0.1465554,220.36606,219.50084,220.80847,220.57745,0,0,0,0,0,0,0,0,0,0,0,0,-0.10327062,-0.095169105,-0.09381046,-0.08878533,0.18304728,0.14050409,0.18924737,0.17135145,-0.0042123757,-0.0017711073,0.006560292,0.0070460625,164,6,231,2,0,5592.7085,159.52606,-2652.178,70.11388,752270.3,752.67706,150.11938,151.86142,149.70326,149.70326,0,1,348.77863,0,0,11.476161,11.476158,0,6,255,0,0,0,1,0,0,0
True,27005562,15999.99,0,9623.612,-3.115632,-1.2249591,5.1759853,0.09139824,-0.32694054,70.70697,0.0242903,0.029708076,-0.018617932,-2.810306,-0.0608513,-0.025934469,0.279243,0.2829258,0.3080819,0.35758245,0.12757449,0.12926081,0.15135129,0.15327734,221.88805,221.75917,222.52254,222.44688,0,0,0,0,0,0,0,0,0,0,0,0,-0.020211091,-0.018118033,-0.008207765,-0.0044874474,0.12916555,0.13052441,0.15157367,0.153343,0.0015873462,0.0020391047,0.007736068,0.013621315,164,6,231,2,0,5590.0674,159.98654,-2659.786,70.70779,752427.4,746.7656,150.12001,151.86156,149.76106,149.76106,0,1,354.08234,0,0,11.59071,11.590706,0,6,255,0,0,0,1,0,1,0
True,27005671,15999.99,0,9683.194,0.4132353,-0.4029341,5.376662,-0.014266968,-0.3211727,71.29709,-0.03049846,0.042229336,0.007878544,-2.8075647,-0.059565768,-0.026520526,0.30005032,0.3055073,0.31726816,0.3271643,0.08950497,0.10282894,0.12096018,0.13018724,223.10498,223.14404,223.91263,223.89012,0,0,0,0,0,0,0,0,0,0,0,0,0.08621062,0.09022245,0.007008401,0.009646158,0.12427153,0.13679868,0.12116305,0.13054413,0.0041397065,0.0048090965,0.008828249,0.010004822,164,6,231,2,0,5587.4526,160.42758,-2667.3552,71.29781,752338.25,742.04944,150.1219,151.85413,149.81966,149.81966,0,1,359.35474,0,0,11.70366,11.703656,0,6,255,0,0,0,1,47,2,0
True,27005781,15999.99,0,9829.836,6.173289,-3.0730133,4.4888062,-0.4069004,-0.27777028,71.79901,0.024690168,0.25503987,0.04434529,-2.7916694,-0.05441913,-0.026128994,0.27131665,0.23646368,0.33180305,0.2925505,0.13117655,0.2230218,0.19138432,0.29714003,225.8329,226.24937,227.31699,227.76732,0,0,0,0,0,0,0,0,0,0,0,0,0.45758137,0.5112065,0.09080713,0.102505326,0.4760126,0.55773723,0.2118346,0.31432393,0.0006150529,-0.0036602356,0.0105563365,0.0058895014,164,6,231,2,0,5584.771,160.86348,-2674.9844,71.80069,752236.06,730.6851,150.20168,151.90317,149.89061,149.89061,0,1,364.67966,0,0,11.816837,11.816832,0,6,255,0,0,0,1,102,2,0
True,27005875,15999.99,0,9861.502,9.926523,-1.0147997,4.9266157,-1.0886364,-0.29733896,72.2756,0.06566003,0.15803221,0.01265277,-2.766784,-0.053617958,-0.023842085,0.33615854,0.27721465,0.38807178,0.33791527,0.12509957,0.2689708,0.13362369,0.18902293,227.03412,228.84956,227.56786,227.7142,0,0,0,0,0,0,0,0,0,0,0,0,0.11970136,0.13409,0.15953718,0.17925029,0.17314248,0.30054188,0.2081043,0.26050016,0.008568972,0.0013385378,0.017246272,0.011283033,164,6,231,2,0,5582.3457,161.21881,-2681.575,72.28441,752664.94,729.14105,150.30734,151.95905,150.00684,150.00684,0,1,369.30264,0,0,11.9144125,11.914408,0,6,255,0,0,0,1,0,0,0
True,27005984,15999.99,0,9893.901,9.17449,-1.4819888,5.440184,-0.8287411,-0.30271983,72.801636,-0.03883081,0.044310812,-0.0068449853,-2.7578368,-0.05046656,-0.025294485,0.3526037,0.25657952,0.34798622,0.26399094,0.07943355,0.11082064,0.122751,0.15311529,227.66573,227.98755,228.73686,228.97559,0,0,0,0,0,0,0,0,0,0,0,0,0.09810419,0.10614809,0.10882799,0.11985143,0.12623043,0.15345563,0.16404676,0.19444448,0.010586243,-0.0011927001,0.012480393,0.0024939775,164,6,231,2,0,5579.7827,161.55748,-2688.2659,72.806984,752254.44,726.06757,150.34465,151.96849,150.10455,150.10455,0,1,374.01804,0,0,12.013297,12.013292,0,6,255,0,0,0,1,0,252,0
True,27006109,15999.99,0,9855.541,13.6184635,0.12063421,1.0653186,0.51200676,-0.21795201,72.51736,-0.0027997042,0.29748783,0.022289779,-2.7358913,-0.048770018,-0.029636752,0.41754934,0.37689385,0.44380817,0.39904425,0.08339837,0.113186724,0.10902513,0.15007108,227.5094,226.67969,228.12393,227.65033,0,0,0,0,0,0,0,0,0,0,0,0,0.18931742,0.20471667,-0.021057239,-0.005417765,0.20687285,0.23392338,0.11104002,0.15016885,0.018552888,0.013565827,0.023872912,0.018550813,164,6,231,2,0,5575.933,161.99542,-2697.2185,72.51949,752385.5,729.16956,150.3756,152.00009,150.21849,150.21849,0,1,380.42282,0,0,12.14814,12.148135,0,6,255,0,0,0,1,107,239,0
True,27006218,15999.99,0,9951.547,16.018822,-0.60129726,3.4826734,-0.94726753,-0.099138975,72.85931,-0.017982665,0.5374044,0.053620614,-2.6951735,-0.045561127,-0.027984155,0.44730988,0.37257555,0.43653095,0.36953276,0.08894799,0.22625817,0.13175024,0.27841538,228.9817,228.89214,230.26039,230.35373,0,0,0,0,0,0,0,0,0,0,0,0,0.5334492,0.647161,0.18760233,0.22863038,0.540814,0.68557286,0.22924389,0.3602596,0.022203505,0.013036117,0.023007706,0.015042119,164,6,231,2,0,5573.0605,162.3119,-2703.6042,72.86553,752437.4,722.1683,150.53688,152.09933,150.28888,150.28888,0,1,385.06598,0,0,12.244578,12.244574,0,6,255,0,0,0,1,127,231,0
True,27006328,15999.99,0,9899.684,25.34341,3.9681163,4.2841406,-2.819622,-0.08701587,73.105804,-0.028398512,0.6408131,0.040297307,-2.6320786,-0.05082241,-0.024861906,0.51849246,0.37174767,0.5046373,0.36146396,0.03246558,0.19308671,0.039145242,0.16985561,228.13617,227.86852,229.21332,228.72067,0,0,0,0,0,0,0,0,0,0,0,0,0.80723923,0.98747736,0.3755985,0.48777777,0.8078918,1.0061779,0.37763286,0.51650566,0.030935213,0.012934562,0.031105049,0.014082797,164,6,231,2,0,5569.8726,162.65996,-2710.17,73.16021,527458.6,508.5847,151.0029,152.37149,150.55368,150.55368,0,1,389.8682,0,0,12.344599,12.344594,0,5,151,27,0,0,1,127,222,243
True,27006437,15999.99,0,9006.705,22.725155,0.2708543,-13.40587,-5.2619896,0.31692743,70.94838,-0.028175768,0.6780068,0.06138952,-2.5612273,-0.043077067,-0.024588719,0.50290614,0.3432191,0.40954337,0.2552617,-0.11395295,-0.92934626,-0.40325588,-0.7370943,217.41052,200.11609,211.41461,203.77669,0,0,0,0,0,0,0,0,0,0,0,0,1.0037756,1.2379047,0.7189821,0.9009091,1.0102232,1.5479317,0.82434857,1.1640211,0.029023297,0.009435065,0.019799087,0.001456134,164,6,231,2,0,5565.785,163.09132,-2717.861,71.14394,347290.56,368.7234,152.17386,153.35616,151.05017,151.05017,0,1,395.5879,0,0,12.46524,12.465234,0,5,133,255,0,0,1,127,210,129
True,27006546,15999.99,0,9513.898,26.571312,1.1926166,-11.440848,-6.8544636,0.564296,69.14575,0.011017192,0.5929656,-0.0167696,-2.497918,-0.041501198,-0.025052078,0.5451331,0.34914368,0.44233763,0.24054882,0.12170922,0.26837885,0.1757802,0.41068107,218.31836,218.08893,220.11844,220.95827,0,0,0,0,0,0,0,0,0,0,0,0,0.9981054,1.152706,0.9991559,1.2113339,1.0054986,1.1835364,1.0145005,1.2790577,0.034203127,0.010161813,0.023698077,-0.00029311702,164,6,231,2,0,5562.2383,163.45718,-2723.952,69.486946,752253.56,756.5084,154.5404,155.19012,151.68086,151.68086,0,1,400.35196,0,0,12.566009,12.566003,0,5,255,0,0,0,1,0,201,0
True,27006640,15999.99,0,9615.477,28.064499,1.8866024,2.7794504,-8.558456,0.25984573,69.11174,-0.11237204,0.6426876,0.052365296,-2.4329965,-0.046880975,-0.024975576,0.51282156,0.32176623,0.42505878,0.22633985,0.1614549,0.5541424,0.2404364,0.48692477,219.75443,223.28659,222.03946,222.67882,0,0,0,0,0,0,0,0,0,0,0,0,0.9483917,1.2168998,1.0666872,1.3377934,0.9620366,1.3371308,1.0934494,1.4236526,0.030239582,0.00680352,0.02164375,-0.001982458,164,6,231,2,0,5558.491,163.8204,-2729.8723,69.64012,662750.3,658.2141,155.07855,155.62498,153.22034,153.22034,0,1,404.95963,0,0,12.666873,12.666868,0,5,255,0,0,0,1,0,190,0
True,27006765,15999.99,0,9686.159,24.176485,-0.2512048,4.595525,-9.808544,0.12462473,69.01526,-0.0020046886,0.4604405,-0.013813806,-2.3719919,-0.047456853,-0.028001858,0.44484764,0.2492093,0.47349572,0.25890344,0.264963,0.57598877,0.3744344,0.6473825,220.91924,223.8519,223.82834,224.98468,0,0,0,0,0,0,0,0,0,0,0,0,1.2169267,1.3984941,1.2985624,1.6164199,1.2454381,1.5124645,1.3514678,1.7412401,0.021901473,-0.002096776,0.027402543,0.0018891133,164,6,231,2,0,5553.7754,164.2646,-2736.6372,69.70888,552394.75,544.52625,156.44815,157.0373,156.2471,156.2471,0,1,410.5915,0,0,12.785411,12.785405,0,5,255,0,0,0,1,0,177,0
True,27006875,15999.99,0,9671.686,26.495209,1.329816,4.7449274,-10.31209,0.06691098,68.98282,0.005140065,0.38006914,-0.0011387765,-2.3185077,-0.049894486,-0.028092971,0.43277913,0.2489892,0.43799222,0.24716742,0.2676802,0.7181433,0.33859274,0.55464244,220.63658,226.01198,222.88475,223.8828,0,0,0,0,0,0,0,0,0,0,0,0,1.3238448,1.5753798,1.3222952,1.6165878,1.350636,1.7313439,1.3649577,1.7090887,0.020421073,-0.0021237768,0.023181438,0.0004937872,164,6,231,2,0,5548.8335,164.70207,-2743.11,69.74935,562092.1,555.0927,158.74905,158.96924,160.08395,160.08395,0,1,415.95096,0,0,12.902363,12.902357,0,5,255,0,0,0,1,0,165,0
True,27006984,15999.99,0,9657.026,25.585838,0.6227603,4.8856544,-10.378004,0.034000635,68.99277,-0.033989757,0.37441108,0.0031717662,-2.2816508,-0.04939909,-0.030360963,0.44804943,0.23037796,0.44805092,0.24621189,0.22188531,0.66515386,0.3245194,0.5299514,219.9828,225.37498,222.75151,223.67085,0,0,0,0,0,0,0,0,0,0,0,0,1.2405297,1.5657359,1.2920226,1.5725696,1.2602171,1.7011639,1.3321544,1.659465,0.022294223,-0.00440675,0.024377346,0.00038018078,164,6,231,2,0,5544.4062,165.07477,-2748.453,69.76894,586256.8,579.6524,160.93414,160.79056,163.14381,163.14381,0,1,420.50595,0,0,13.001978,13.001969,0,5,255,0,0,0,1,0,153,0
True,27007093,15999.99,0,9656.396,27.42725,1.333894,4.8709364,-9.809715,0.037357092,69.08837,-0.02824844,0.3018889,0.0059535694,-2.2478557,-0.05055642,-0.03241142,0.43875235,0.24198449,0.47419143,0.23793584,0.2388482,0.57282764,0.31673318,0.53685313,220.36694,224.3628,222.74525,223.97194,0,0,0,0,0,0,0,0,0,0,0,0,1.2273071,1.4609957,1.1964258,1.5233065,1.2503324,1.56928,1.2376407,1.615139,0.021153785,-0.0029830188,0.027485259,-0.00060378015,164,6,231,2,0,5539.572,165.4702,-2753.8308,69.781334,606537.6,599.7599,163.11325,162.5173,166.1983,166.1983,-3.9655247,1,425.5458,0,0,13.105787,13.105779,0,5,255,0,0,0,1,0,141,0
True,27007203,15999.99,0,9627.706,18.00483,0.60235125,4.857961,-9.39336,0.03451872,69.34743,-0.081413575,0.116941236,0.029438589,-2.2249017,-0.05077981,-0.033593975,0.42512593,0.29632336,0.44695896,0.26665327,0.16307698,0.107075445,0.31955492,0.46129876,220.46573,220.067,222.86705,224.07816,0,0,0,0,0,0,0,0,0,0.120000005,0,0,-0.42288566,-0.31993094,1.1293393,1.3202405,0.45323986,0.3373736,1.1736791,1.3985105,0.019482281,0.0036825351,0.02424752,0.0028105117,164,6,231,2,0,5534.345,165.87978,-2759.2097,69.98073,752266.1,746.1611,163.88985,163.16054,168.45576,168.45576,-11.76,1,430.47528,0,0,13.213335,13.213326,0,5,255,0,0,0,1,-49,129,0
True,27007312,15999.99,0,9625.07,19.843706,2.5848777,5.1316514,-6.9190006,-0.12691069,69.97798,-0.047021165,-0.15108737,0.35505867,-2.228192,-0.05881005,-0.025897171,0.39711145,0.23223427,0.46298197,0.29725125,0.15334667,0.286807,0.15457991,0.35739326,219.87874,222.80966,220.93895,224.65276,0,0,0,0,0,0,0,0,0,0.59999996,0,0.120000005,0.81159353,1.221246,0.6842255,1.0933143,0.82595354,1.254472,0.7014695,1.150246,0.016045846,-0.004179042,0.026152536,0.0064483844,164,6,231,2,0,5528.093,166.37433,-2765.356,70.31931,752260.5,747.0911,163.56253,162.5018,170.2225,170.2225,-11.76,1,436.61792,0,0,13.338519,13.338511,0,4,255,0,0,0,1,0,129,0
True,27007421,15999.99,0,9889.724,17.658718,-2.370298,3.8241887,-3.2297173,-0.33055806,70.46873,0.03462364,-0.3429848,-0.15036061,-2.2526166,-0.059153263,-0.011111284,0.32954535,0.12663774,0.44159722,0.15550908,0.19860713,0,0.45142427,0,221.7876,235.59785,226.74617,229.73213,0,0,0,0,0,0,0,0,0,0,0,0,-0.42571568,0,0.41002578,0,0.46976444,0,0.60984015,0,0.007757757,-0.017132187,0.023610048,-0.010403711,164,6,231,2,0,5522.752,166.79733,-2770.2036,70.54347,752264.1,727.3985,163.61267,162.31784,170.02547,170.02547,-5.21696,1,441.3679,0,0,13.441112,13.441104,0,4,255,0,0,0,1,-127,129,0
True,27007531,15999.99,0,9701.306,-3.7686071,1.7027473,4.7163587,0.032081604,-0.4044273,71.18658,0.024023924,-0.6142493,-0.06369132,-2.3088465,-0.06335048,-0.0243544,0.34520522,0.18632284,0.43057156,0.25249934,0.24540338,0.10373342,0.20905638,0.0936421,223.79904,224.28593,223.72961,224.36911,0,0,0,0,0,0,0,0,0,0,0,0,-0.38322768,-0.3387183,-0.106313005,-0.08791342,0.4550673,0.35424668,0.23453577,0.12844303,0.009678695,-0.009810831,0.022299178,0.0011277124,164,6,231,2,0,5516.5254,167.25859,-2775.791,71.18773,752250.56,740.6147,163.42924,162.01099,169.43393,169.43393,-4.1899757,1,446.87518,0,0,13.5593,13.559293,0,3,255,0,0,0,1,0,129,0
True,27007656,15999.99,0,9785.216,-13.866957,-0.35470748,5.031375,2.3720207,-0.27044177,71.67108,-0.023884196,-0.3510707,-0.12941563,-2.3636706,-0.06157111,-0.028336013,0.31237274,0.22812665,0.33814985,0.23847988,0.15717505,0.09231481,0.27295813,0.13342984,224.62776,225.15521,226.85735,226.29498,0,0,0,0,0,0,0,0,0,0,0,0,-0.2616797,-0.2372234,-0.4053826,-0.3311391,0.30525443,0.25455248,0.48871383,0.35701066,0.005651254,-0.0046829097,0.011310924,-0.00053909793,164,6,231,2,0,5510.6216,167.71623,-2781.2576,71.71082,752258.06,734.14404,163.1062,161.70425,168.84894,168.84894,-4.3818836,1,452.57755,0,0,13.672079,13.672071,0,3,255,0,0,0,1,0,129,0
True,27007750,15999.99,0,9813.531,-18.093668,2.267941,5.1837516,2.0511322,-0.26772523,72.11926,-0.05964071,-0.11194355,-0.19397333,-2.3859036,-0.06674142,-0.045236427,0.32294917,0.28201059,0.32491788,0.37368682,0.11592341,0.09051501,0.16409805,0.13436472,225.89551,226.02524,226.97191,227.0394,0,0,0,0,0,0,0,0,0,0,0,0,0.19001348,0.19647323,-0.28539282,-0.2684872,0.22258337,0.21632083,0.32920697,0.300232,0.0069486275,0.0019268394,0.009737741,0.015536007,164,6,231,2,0,5505.5806,168.13535,-2786.1985,72.14891,752257.25,732.222,162.88225,161.52557,168.40944,168.40944,0,1,457.20703,0,0,13.770381,13.770373,0,3,255,0,0,0,1,72,129,0
True,27007859,15999.99,0,9399.188,-3.6912878,-0.123469934,-5.3648987,1.5441666,-0.13287449,71.71614,0.1061837,0.17442931,0.08464611,-2.3818161,-0.06553746,-0.045649074,0.2109037,0.28653485,0.2679261,0.34319454,-0.15495946,-0.20157337,-0.3132087,-0.28107783,219.32986,217.55615,216.49422,216.15971,0,0,0,0,0,0,0,0,0,0,0,0,0.33901784,0.38144624,-0.19696248,-0.19418743,0.37275398,0.4314314,0.36999175,0.3416336,-0.006795585,0.0024818145,0.0029618368,0.011910703,164,6,231,2,0,5499.5874,168.67633,-2792.232,71.73288,608836.5,618.73444,162.64948,161.36693,167.94347,167.94347,0,1,462.7783,0,0,13.888335,13.888327,0,3,154,255,0,0,1,125,142,129
True,27007984,15999.99,0,9072.071,7.3674307,-2.4036112,-18.160238,-0.07814407,0.20885277,69.51042,0.07744197,0.44868907,0.09252241,-2.3466766,-0.054320596,-0.038791373,0.23236364,0.24599208,0.17562807,0.19474667,-0.14513017,-0.22882819,-0.30718574,-0.36735702,212.87866,209.43423,209.92354,207.33124,0,0,0,0,0,0,0,0,0,0,0,0,0.5117218,0.58869964,0.075308554,0.086748816,0.53190404,0.6316088,0.31628224,0.37746063,-0.004163172,-0.002491422,-0.008011714,-0.0057386532,164,6,231,2,0,5493.9546,169.1514,-2797.8523,69.51077,131193.83,138.01367,162.60487,161.27536,167.46678,167.46678,-5.091483,1,468.22943,0,0,14.001182,14.001174,0,3,0,255,0,0,1,127,173,129
True,27008093,15999.99,0,8450.021,19.014782,0.30792737,-22.254095,-2.5109081,0.45522738,66.812416,-0.0110980645,0.6966684,0.09458232,-2.2794113,-0.04894271,-0.030964416,0.42696583,0.3345151,0.23036134,0.14599662,-0.44384235,-0.740843,-0.21568094,-0.9289103,197.17418,192.55888,203.6849,186.91907,0,0,0,0,0,0,0,0,0,0,0,0,0.7572057,0.9249096,0.42480478,0.5291599,0.87769955,1.1850342,0.47642142,1.0690578,0.019707974,0.008367378,-0.0015043318,-0.011534674,164,6,231,2,0,5488.3096,169.59097,-2803.251,66.86112,-68893.23,-77.71834,162.83824,161.35931,167.12328,167.12328,-14.7,1,473.29175,0,0,14.115841,14.115831,0,3,6,255,0,0,1,127,207,129
True,27008203,15999.99,0,8029.761,22.460442,0.14612043,-18.699337,-5.5954,0.5355828,64.22111,-0.006877103,0.8177291,0.0347223,-2.1933887,-0.04647509,-0.027771467,0.48482388,0.3549011,0.31023368,0.19086172,-0.7190851,-0.7415693,-0.66631883,-0.6410645,182.72531,182.86797,187.10214,186.64769,0,0,0,0,0,0,0,0,0,0,0,0,1.2109109,1.4941808,0.9214804,1.086467,1.4083283,1.6680831,1.1371486,1.2614969,0.026805215,0.010868054,0.007991895,-0.0062005445,164,6,231,2,0,5482.7686,170.01627,-2808.179,64.46663,-62800.887,-74.655426,163.89613,162.50317,167.14865,167.14865,-14.7,1,478.17062,0,0,14.229089,14.229078,0,3,6,255,0,0,1,127,239,129
True,27008328,15999.99,0,7622.2314,20.150263,-1.3153173,-13.697746,-9.757473,0.46898806,61.561394,-0.011574047,0.8958873,0.015632832,-2.0891435,-0.04198611,-0.030715788,0.4467913,0.31426144,0.29849806,0.18258968,-0.29169345,-0.7680804,-0.5244669,-1.3111209,185.25897,173.4462,180.35799,168.11353,0,0,0,0,0,0,0,0,0,0,0,0,1.8332987,2.2115002,1.6167345,1.9259576,1.8563591,2.3410854,1.6996752,2.3298821,0.022139892,0.0058829337,0.006596621,-0.0071840286,164,6,231,2,0,5476.6895,170.45515,-2813.2158,62.33163,-52212.305,-65.22897,168.29828,166.05206,169.99437,169.99437,0,1,483.26923,0,0,14.353938,14.353929,0,3,7,255,0,0,1,127,16,129
True,27008437,15999.99,0,7056.7344,18.836435,-1.6927174,-11.210821,-13.436283,0.46990442,59.120003,0.04253592,0.8319286,-0.011222491,-1.9952111,-0.036273405,-0.033971462,0.4316405,0.28542697,0.33348462,0.18885708,-0.42277476,-1.075107,-1.392296,-1.1920896,174.48161,160.57697,158.15837,162.85576,0,0,0,0,0,0,0,0,0,0,0,0,2.5596664,2.8527596,2.2366095,2.6802444,2.594346,3.0486214,2.6345606,2.9333918,0.0202814,0.002345916,0.010756265,-0.006438881,164,6,231,2,0,5471.438,170.80441,-2817.299,60.62944,-16097.54,-21.738577,175.15134,171.75488,175.59505,175.59505,-8.127152,1,487.58972,0,0,14.462387,14.462378,0,3,15,255,0,0,1,127,44,129
True,27008531,15999.99,0,6967.211,19.441978,-0.49548048,-9.463353,-16.35819,0.50820065,56.92364,0.0039360635,0.8727507,0.009475657,-1.9139127,-0.032533225,-0.03619494,0.4510812,0.30131823,0.3373454,0.19508944,-0.53374517,-1.1628342,-0.6279352,-1.1663717,165.3705,152.47633,167.71083,156.24057,0,0,0,0,0,0,0,0,0,0,0,0,3.0489542,3.5942116,2.749835,3.1700864,3.09532,3.7776368,2.8206196,3.37785,0.022666119,0.0042952374,0.011215281,-0.0056978986,164,6,231,2,0,5466.9185,171.08578,-2820.629,59.229633,1918.497,2.6298523,183.42912,179.18481,183.02335,183.02335,0,1,491.03497,0,0,14.556212,14.556201,0,3,20,255,0,0,1,127,70,129
True,27008656,15999.99,0,6521.365,19.525227,-0.14490104,-8.2278595,-19.579006,0.54801834,54.095806,0.010415535,0.8562801,-0.002292525,-1.8164073,-0.027956339,-0.04010313,0.47349924,0.32405227,0.35219008,0.20691101,-0.7505165,-1.1638492,-1.0369852,-1.0643654,152.88852,144.36858,152.47188,150.88454,0,0,0,0,0,0,0,0,0,0,0,0,3.766335,4.341395,3.491562,3.985197,3.8403847,4.494692,3.6422992,4.124884,0.025416061,0.0070839413,0.012980204,-0.0042924024,164,6,231,2,0,5461.454,171.41844,-2824.4226,57.532547,62780.992,91.948235,194.61989,187.82478,194.08493,194.08493,0,1,495.3082,0,0,14.670375,14.670366,0,3,37,168,0,0,1,127,101,172
True,27008765,15999.99,0,6944.21,16.489489,-1.6278539,-4.425705,-22.81181,0.43859255,51.484913,-0.03440351,0.85163176,0.004909798,-1.7223818,-0.021906821,-0.041667365,0.44050398,0.3054586,0.3424408,0.21486771,0.1281296,0.34434238,-0.064120315,0.20577972,159.3292,157.95015,161.44678,161.17464,0,0,0,0,0,0,0,0,0,0,0,0,4.1519637,4.9557476,4.008891,4.79181,4.15394,4.967696,4.0094037,4.7962265,0.021368653,0.004803121,0.011821087,-0.0033464096,164,6,231,2,0,5456.0596,171.71889,-2827.9666,56.314003,438378.66,605.0705,204.15797,195.58209,203.43405,203.43405,-11.76,1,499.47638,0,0,14.783948,14.783938,0,3,254,0,0,0,1,127,127,0
True,27008875,15999.99,0,7363.813,17.795586,0.17516053,1.1374897,-25.470293,0.40364802,49.32731,0.022466995,0.7887288,0.01475523,-1.6296822,-0.02033167,-0.042591326,0.27578196,0.29123676,0.38694265,0.2811247,0.5333264,1.0317256,0.8685802,1.4298555,169.37479,171.3363,169.24934,170.5624,0,0,0,0,0,0,0,0,0,0,0,0,3.9173644,4.0985613,4.415159,5.292573,3.9535022,4.226424,4.4997845,5.4823184,0.0011627972,0.0030585788,0.017112028,0.0045310557,164,6,231,2,0,5450.835,171.99652,-2831.1765,55.516502,282282.53,366.34146,212.12411,202.81918,211.65292,211.65292,-11.76,1,503.03363,0,0,14.893825,14.893815,0,3,255,0,0,0,1,-127,127,0
True,27008984,15999.99,0,7633.5293,17.867868,-1.4631491,2.1319454,-27.456223,0.5592493,47.255665,0.0048906524,0.71734685,-0.063090056,-1.5456604,-0.01130697,-0.04169945,0.42220452,0.28790334,0.4100706,0.18304417,0.19379345,0.5286856,2.2725513,2.6713874,172.96346,174.06622,176.51337,179.07668,0,0,0,0,0,0,0,0,0,0.120000005,0.59999996,0,-0.6173432,0.9414743,6.268419,5.9170966,0.64704597,1.0797603,6.6676507,6.4921756,0.019123923,0.0026496798,0.019861765,-0.0071299933,164,6,231,2,0,5445.5566,172.26067,-2834.1826,54.655785,296386.94,371.0027,214.1557,206.19025,220.18419,220.18419,-11.76,1,506.9314,0,0,15.004101,15.004092,0,3,255,0,0,0,1,-127,127,0
True,27009093,15999.99,0,7570.568,14.445485,-2.345389,-8.086645,-28.753563,0.039596677,44.426685,-0.08360493,0.46380657,-0.017714575,-1.4819051,-0.006953129,-0.054365747,0.32623234,0.28626013,0.097302295,0.17945385,0.9457117,0.33106735,0,3.096375,175.34723,167.6895,178.36664,174.90193,0,0,0,0,0,0,0,0,0.59999996,0,0,0.59999996,-2.005863,0.20766705,0,6.1999016,2.2176242,0.39080837,0,6.930102,0.007351361,0.0024481155,-0.017324068,-0.0075568557,164,6,231,2,0,5440.344,172.49261,-2836.941,52.919743,298317.47,376.1975,215.1784,203.51463,225.52176,225.52176,-11.76,1,510.74002,0,0,15.11397,15.11396,0,3,255,0,0,0,1,-127,127,0
True,27009203,15999.99,0,7550.289,6.1662836,-3.145447,-3.3481288,-29.996735,0.105531454,43.077557,-0.048523445,0.2931929,0.29958802,-1.4445105,-0.0073623247,-0.041443605,0.16511017,0.31515774,0.03288391,0.1217097,0.9237864,0.7320682,0,3.703741,174.20644,171.63373,174.99321,175.31592,0,0,0,0,0,0,0,0,0.59999996,0.59999996,0.59999996,0.59999996,-1.4266272,0.6462415,0,7.1991014,1.6996018,0.9764998,0,8.095972,-0.012412913,0.005992882,-0.024982937,-0.014422208,164,6,231,2,0,5435.8213,172.67235,-2839.3203,52.49277,357582.6,452.7402,215.89677,201.40721,223.43677,223.43677,-11.76,1,514.04175,0,0,15.211261,15.211251,0,3,255,0,0,0,1,-127,127,0
True,27009312,15999.99,0,8296.997,4.874011,-2.0005298,0.279588,-30.523758,-0.5818661,42.516624,-0.23381585,0.14509074,0.45257849,-1.4249177,-0.02987387,-0.029443327,0.18952768,0.26326323,0.018481145,0.20060667,0,0.47382313,0,1.1711222,193.71378,189.94202,190.56508,192.43512,0,0,0,0,0,0,0,0,0,0.59999996,0,0.59999996,0,0.24919342,0,2.12302,0,0.5353557,0,2.4246116,-0.009417705,-0.00037283078,-0.026695319,-0.005041942,164,6,231,2,0,5431.708,172.82567,-2841.4717,52.342155,736236.94,851.5367,214.3002,199.13626,220.6859,220.6859,-11.284096,1,516.3493,0,0,15.299826,15.299817,0,3,255,0,0,0,1,-127,127,0
True,27009421,15999.99,0,8221.888,10.90476,2.489272,4.8098583,-29.302246,-0.7826334,43.087513,0.06496787,-0.13464928,-0.063877195,-1.4227113,-0.052594706,-0.020458512,0.19199686,0.14160268,0.57268727,0.4808134,0.4489911,0.460781,1.0113541,1.1997591,188.36986,185.59949,187.1456,195.74774,0,0,0,0,0,0,0,0,0.59999996,0.59999996,0.59999996,0.59999996,-0.52001685,0.16167772,1.8964413,1.9859267,0.6870302,0.48832244,2.149262,2.3201997,-0.0091148205,-0.015296493,0.039195687,0.028272562,164,6,231,2,0,5425.5747,173.06186,-2844.5542,52.113026,577705.2,668.78613,210.29074,195.98904,218.79901,218.79901,-11.76,1,520.7075,0,0,15.431189,15.431181,0,3,255,0,0,0,1,-127,127,0
True,27009531,15999.99,0,8253.986,8.742651,3.4659917,3.4709034,-27.121235,-0.04287994,44.311115,0.21706483,-0.37662533,-0.11616033,-1.4528139,-0.036556,-0.030482657,0.05911356,0.039038643,0.54286927,0.4178244,0.5078718,0.2083639,1.1808128,1.0890075,188.93765,175.5707,198.07242,192.2221,0,0,0,0,0,0,0,0,0.59999996,0.59999996,0.59999996,0.59999996,-0.66335934,0.035169464,1.8491361,1.8557823,0.8354516,0.21131116,2.1939971,2.1517122,-0.025415136,-0.027877653,0.035650544,0.020783633,164,6,231,2,0,5420.114,173.32445,-2847.1282,51.952267,526636.25,609.987,206.97641,193.3472,217.21248,217.21248,-11.76,1,524.56647,0,0,15.547371,15.547363,0,3,255,0,0,0,1,-127,127,0
True,27009656,15999.99,0,8612.998,5.957074,-1.8470616,3.4405494,-24.31805,0.22532123,45.97032,0.09582158,-0.54863554,0.02449195,-1.5053611,-0.02775039,-0.021403294,0.057274867,0.10135101,0.062203202,0.08909145,0,0.568169,1.0407367,0,203.70493,194.71796,197.3226,200.18071,0,0,0,0,0,0,0,0,0.59999996,0.59999996,0.59999996,0.59999996,0,0.7116681,1.5968107,0,0,0.9106522,1.9060266,0,-0.025640681,-0.02023402,-0.02149709,-0.018300276,164,6,231,2,0,5414.8735,173.56802,-2849.5205,52.006622,724972.7,806.6881,203.99689,191.01788,215.0502,215.0502,-11.76,1,528.2591,0,0,15.658234,15.658226,0,3,255,0,0,0,1,0,127,0
True,27009765,15999.99,0,9072.22,7.968987,-3.565096,2.8310573,-20.813486,-0.55392355,47.638195,-0.12526043,-0.4870933,0.014355761,-1.5611566,-0.035043545,-0.02516094,0.10547344,0.022674747,0.019237686,0.06951026,0.90959895,0,1.193749,1.0089256,197.35464,221.95631,213.01921,205.86967,0,0,0,0,0,0,0,0,0.59999996,0,0.59999996,0.59999996,1.469215,0,1.3744543,1.2977766,1.727994,0,1.8204837,1.6438231,-0.019728336,-0.029884953,-0.026605371,-0.020628335,164,6,231,2,0,5409.6416,173.77287,-2851.806,51.98948,478566.9,503.7896,201.72614,188.92607,212.51648,212.51648,-11.76,1,531.52435,0,0,15.768025,15.768019,0,3,255,0,0,0,1,62,127,0
True,27009875,15999.99,0,8581.93,14.84695,2.7007504,5.2842636,-16.177193,-0.29693827,49.428833,-0.14268887,-0.49102148,0.09790409,-1.6188279,-0.04267853,-0.017990042,0.13366584,0.07129793,0.22351146,0.36426827,0.5648625,0,0.83307874,0.7908021,182.00653,206.24312,198.30898,202.48515,0,0,0,0,0,0,0,0,0.59999996,0,0.59999996,0.59999996,1.1991632,0,1.0177039,1.0454905,1.3255421,0,1.3151963,1.3108846,-0.016270077,-0.023920523,-0.0023187324,0.01441621,164,6,231,2,0,5404.2456,173.98502,-2853.9792,52.009613,578117.25,643.59827,200.07356,187.2552,210.29932,210.29932,-11.76,1,535.2601,0,0,15.8799515,15.879943,0,3,255,0,0,0,1,127,127,0
True,27010000,15999.99,0,8348.677,12.694597,0.44919214,3.7807174,-11.257017,-0.3816177,50.869263,0.025165793,-0.5355231,0.095431335,-1.6844152,-0.04842381,-0.0079794945,0.16291259,0.037387412,0.20750919,0.21647784,0.44983014,0,0.63670903,0.56770843,179.99977,203.82126,195.5513,191.03746,0,0,0,0,0,0,0,0,0.59999996,0.59999996,0.59999996,0.59999996,0.9973686,0,0.7088961,0.698444,1.0941167,0,0.9528547,0.90006495,-0.012682484,-0.028080203,-0.004221283,-0.0031549782,164,6,231,2,0,5398.0527,174.26448,-2856.2117,52.101326,323668.25,370.50806,197.8652,185.2191,207.07265,207.07265,-11.139683,1,539.52,0,0,16.006514,16.006504,0,3,0,19,0,0,1,127,127,247
True,27010093,15999.99,0,4361.8813,17.918438,3.5591886,-169.37732,0.46564707,0.522585,1.6828275,0.15847693,-0.16005354,-0.15262684,-1.7080505,-0.032824565,-0.02407875,0.13821693,0.08534723,0.20972489,0.14444885,-1.4961071,-1.5951581,14.672997,0,0,0,107.70416,113.450745,0,0,0,0,0,0,0,0,0.59999996,0.59999996,0.59999996,0,0.18822412,0.32732785,-0.9018643,0,1.5079008,1.6283958,14.700687,0,-0.01571181,-0.022197146,-0.0039578527,-0.011718692,164,6,231,2,0,5396.6294,174.34714,-2856.5364,1.8225889,18915.613,41.45071,196.86649,184.71799,206.06091,206.06091,-11.76,1,540.47955,0,0,16.100065,16.100056,0,3,0,255,0,0,0,126,127,129
True,27010218,15999.99,0,352.1505,-0.2464881,-5.9665284,-38.977783,0.24241146,-0.3562944,-0.2875598,-0.1045836,-0.18864737,-0.0335771,-1.726072,-0.032008972,-0.02966152,0.02292575,0.01538533,0.072124496,0.05847859,-5.144897,-2.3391333,0,0,-36.36251,-15.367641,1.156448,1.7584851,0,0,0,0,0,0,0,0,0.59999996,0.59999996,0,0,-0.27585182,-0.10509034,0,0,5.1522865,2.3414927,0,0,-0.029854164,-0.03077912,-0.020317521,-0.021939918,164,6,231,2,0,5396.6216,174.35423,-2856.5012,0.518073,0,0,196.45506,184.85017,203.75558,203.75558,-11.76,1,540.481,0,0,16.213627,16.213617,0,3,0,255,0,0,0,126,127,129
True,27010328,15999.99,0,432.06015,-4.5898643,-0.44723973,-12.721296,-0.30846325,-0.36691013,-1.0188407,-0.015308146,-0.260443,-0.006790673,-1.7474158,-0.041763265,-0.02992877,0.08851034,0.19387954,0.07310735,0.15209588,-2.3534887,-0.1440413,-1.3393459,-0.33838093,-20.184965,-4.238917,-12.950739,-4.589566,0,0,0,0,0,0,0,0,0.59999996,0.59999996,0.59999996,0.59999996,-0.17121457,-0.31114525,-0.053806324,-0.05688724,2.3597083,0.34286916,1.3404263,0.34312946,-0.021809138,-0.008883879,-0.020200668,-0.010809515,164,6,231,2,0,5396.6826,174.30559,-2856.4949,1.1259702,29318.646,629.40967,196.82773,183.7973,201.50598,201.50598,-11.76,1,540.4397,0,0,16.317265,16.317255,0,3,0,255,0,0,0,127,127,129
True,27010437,15999.99,0,874.7093,-2.914968,2.5128472,-9.051938,-0.7386302,0.01569469,-2.100139,-0.00804835,-0.5358922,-0.006848242,-1.7980646,-0.040970333,-0.030279763,0.35008782,0.3534822,0.33329356,0.2787751,-0.16616313,-0.13703144,-5.0386987,-0.4600877,-10.291613,-7.9655914,-43.892067,-8.486506,0,0,0,0,0,0,0,0,0.59999996,0.59999996,0.59999996,0.59999996,0.016527722,-0.027793149,0.082506895,0.12980427,0.1669831,0.13982157,5.0393744,0.47804794,0.010277629,0.010694001,0.010733549,0.0042517036,164,6,231,2,0,5396.886,174.28236,-2856.523,2.2262986,79104.945,874.0572,195.21216,182.27055,201.10458,201.10458,-11.76,1,540.3101,0,0,16.437372,16.437365,0,4,0,173,0,0,0,121,127,170
True,27010562,15999.99,0,108.34875,2.725285,0.15167984,4.4899716,-0.5281254,0.033040524,-1.652654,-0.05893222,-0.44066134,0.024066987,-1.8652102,-0.04999994,-0.023868106,0.2644757,0.28338715,0.25491148,0.29588857,0.94246507,1.3678776,1.0930777,1.1663495,-0.17536877,4.6713395,1.870559,3.4090059,0,0,0,0,0,0,0,0,0.59999996,0.59999996,0.59999996,0.59999996,0.7668297,1.2293862,-0.054061376,-0.08311408,1.2150178,1.8391519,1.0944138,1.1693071,-0.00022410229,0.0020956956,0.0014144965,0.006286368,164,6,231,2,0,5397.17,174.27751,-2856.5386,1.7353019,10202.443,855.9089,193.05916,180.86371,200.61903,200.61903,-11.76,1,540.1278,0,0,16.564867,16.56486,0,4,235,0,0,0,1,17,127,0
True,27010671,15999.99,0,192.87108,2.777281,-0.3382387,7.942783,-0.25251424,-0.0110091735,-0.66365504,0.021915393,-0.23760442,0.01690731,-1.9023925,-0.052185528,-0.019685742,0.12682232,0.17186272,0.27593982,0.32155725,1.2560179,1.1247337,0.82957286,0.671429,6.543454,6.351543,3.635451,3.1170676,0,0,0,0,0,0,0,0,0.59999996,0.59999996,0.59999996,0.59999996,2.262348,1.3892026,-0.14395949,-0.07165809,2.5876243,1.787431,0.84197116,0.675242,-0.017109547,-0.011584604,0.0039146096,0.009338189,164,6,231,2,0,5397.303,174.27309,-2856.5408,0.7101568,18494.797,942.228,192.23267,181.29007,198.66351,198.66351,-11.76,1,540.04144,0,0,16.674953,16.674944,0,5,255,0,0,0,1,-127,127,0
True,27010781,15999.99,0,5599.3726,2.1373644,-0.023802996,8.765867,0.006111853,-0.016870892,0.22892748,0.022270469,-0.01014913,-0.0076459767,-1.9147214,-0.048719525,-0.018359937,0.18906844,0.22455236,0.269087,0.3030675,0.24175805,-0.008462761,0.09251501,0.03895916,0,0,0,0,0,0,0,0,0,0,0,0,0.59999996,0.59999996,0.59999996,0.59999996,0.3554784,0.17715296,-0.08665147,-0.07738002,0.4298975,0.17735499,0.12675765,0.08663419,-0.009474039,-0.005121354,0.0030998625,0.007139895,164,6,231,2,0,5397.334,174.26953,-2856.5408,0.22962965,509995.84,884.3324,191.09828,180.32343,196.64403,196.64403,-6.943072,1,540.0215,0,0,16.785625,16.785618,0,6,0,255,0,0,0,-127,127,129
True,27010906,15999.99,0,8702.369,-0.27646756,0.096966125,-0.80237776,-0.011738218,0.00021586043,-0.00068422896,0.020471852,0.02616517,0.005053089,-1.9108299,-0.045046404,-0.01800685,0.25511047,0.26738045,0.24635947,0.27708304,0.15074673,0.069412455,-0.50380975,0.033921488,0,0,0,0,0,0,0,0,0,0,0,0,0.59999996,0.59999996,0.59999996,0.59999996,-0.13654089,0.24706087,0.009209704,-0.06259702,0.20339122,0.2566265,0.5038939,0.07119729,-0.0013728999,0.00013221055,0.0003977269,0.004050534,164,6,231,2,0,5397.317,174.26947,-2856.544,0.011760124,238657.77,262.68326,189.29593,179.02751,194.49345,194.49345,-3.0923824,1,540.03284,0,0,16.91125,16.911242,0,6,47,255,0,0,1,-127,127,129
True,27011000,15999.99,0,2875.4543,2.9610205,-0.051020324,-6.835857,0.3202213,-0.0047774706,-0.7909695,0.028295653,0.1497355,0.028761685,-1.904314,-0.042392015,-0.015790774,0.2877562,0.2794849,0.23318177,0.24739797,-1.502129,-2.9271054,-11.918443,-13.863049,-11.394813,-22.685223,-85.952896,-100.26028,0,0,0,0,0,0,0,0,0.59999996,0.59999996,0.59999996,0.59999996,0.24463013,0.07957069,-0.19202888,-0.396421,1.5219184,2.928187,11.91999,13.868715,0.0026316345,0.0016170219,-0.0011690035,0.0005211979,164,6,231,2,0,5397.3447,174.26776,-2856.5212,0.8533447,3393.8118,11.125654,188.47017,178.77637,194.15051,194.15051,-11.76,1,540.0124,0,0,17.017593,17.017584,0,7,0,255,0,0,0,-127,127,129
True,27011109,15999.99,0,2804.6323,2.669981,0.052247167,-6.6903763,0.6458796,0.0013259072,-1.5015831,-0.009130465,0.33779743,0.00094326196,-1.8773426,-0.04094794,-0.015985675,0.35024098,0.3373338,0.19859496,0.21802473,-0.18017168,-0.18061517,-12.270204,-13.453248,-6.450762,-7.780216,-91.04577,-100.86204,0,0,0,0,0,0,0,0,0.59999996,0.59999996,0.59999996,0.59999996,0.14170447,-0.037367318,-0.5928636,-0.41696808,0.2292204,0.18444012,12.284518,13.459708,0.010296416,0.008713137,-0.0052811205,-0.0029710643,164,6,231,2,0,5397.4453,174.26155,-2856.4321,1.634599,252557.47,862.90576,187.30034,178.34943,195.56032,195.56032,-11.76,1,539.9375,0,0,17.12305,17.12304,0,7,0,255,0,0,0,-127,127,129
True,27011234,15999.99,0,3494.4783,2.455329,-0.07485156,-6.949275,1.023309,-0.0043235123,-2.3115492,-0.02395001,0.5294922,0.018557994,-1.8245367,-0.04278814,-0.017021986,0.41210836,0.40519792,0.13960105,0.21586078,-0.20616233,-0.24363333,-16.64698,-14.709014,-9.499013,-11.824168,-124.02091,-113.14725,0,0,0,0,0,0,0,0,0.59999996,0.59999996,0.59999996,0.59999996,0.09489312,-0.07034583,-0.6271942,-0.44217032,0.22695288,0.25358576,16.65879,14.715658,0.017885461,0.017037783,-0.012295058,-0.0032283403,164,6,231,2,0,5397.6396,174.25026,-2856.2715,2.5279317,363764.84,998.1126,185.83328,177.22914,197.14268,197.14268,-11.76,1,539.794,0,0,17.244045,17.244034,0,7,0,255,0,0,0,-127,127,129
True,27011343,15999.99,0,4358.1133,2.4429436,-0.2693138,-8.021665,1.4598238,-0.040962715,-3.0866265,0.05648444,0.7101453,-0.009269601,-1.7572329,-0.04026271,-0.018840676,0.37101126,0.34437624,0.17301458,0.24478169,-0.3046001,-0.48508963,-21.686533,-16.73434,-13.123951,-17.130001,-162.44801,-131.3546,0,0,0,0,0,0,0,0,0.59999996,0.59999996,0.59999996,0.59999996,0.05347904,-0.11038134,-0.7245747,-0.5066689,0.30925915,0.4974897,21.698633,16.742008,0.012844231,0.009577006,-0.008322436,0.0002101399,164,6,231,2,0,5397.897,174.2332,-2856.077,3.4146783,699929.94,1546.6406,184.59752,176.2933,198.74005,198.74005,-11.76,1,539.6061,0,0,17.35293,17.35292,0,8,0,255,0,0,0,-127,127,129
True,27011453,15999.99,0,5746.1885,2.4280992,0.04050672,-8.519844,2.0308254,-0.06371801,-3.878937,0.099457994,0.9115104,-0.04763399,-1.6657401,-0.028200433,-0.025383936,0.40361637,0.28594413,0.16842838,0.27544075,-0.14159565,-0.8794378,-32.957355,-18.351204,-15.235458,-23.954687,-242.09549,-145.66275,0,0,0,0,0,0,0,0,0.59999996,0.59999996,0.59999996,0.59999996,-0.07330377,-0.20719293,-0.8969275,-0.61235,0.1594452,0.9035152,32.96956,18.361418,0.01684378,0.0024093539,-0.008867703,0.0038552731,164,6,231,2,0,5398.259,174.20874,-2855.8276,4.3788652,755963.75,1262.5034,183.40228,175.42442,200.50249,200.50249,-11.76,1,539.34424,0,0,17.465137,17.465128,0,9,0,255,0,0,0,-127,127,129
True,27011562,15999.99,0,8831.156,-6.2997904,0.69663286,1.4658415,1.6706412,0.036031436,-3.441852,-0.030850291,0.8858743,-0.054350406,-1.5635926,-0.022045497,-0.035221055,0.44837493,0.2585702,0.12126174,0.336194,-0.018712861,0.8865063,-16.663229,0.079960056,-11.674194,-10.5309105,-119.51804,-11.939067,0,0,0,0,0,0,0,0,0.59999996,0.59999996,0.59999996,0.59999996,-1.1438576,-0.819769,-0.6707241,-0.4336566,1.1440107,1.2074414,16.676722,0.44096673,0.022334151,-0.00094851106,-0.014475467,0.011078391,164,6,231,2,0,5398.669,174.1909,-2855.5903,3.8260534,751861.9,813.78973,183.42697,175.42703,201.733,201.733,-11.76,1,539.05255,0,0,17.576717,17.576708,0,9,255,0,0,0,1,0,127,0
True,27011687,15999.99,0,3614.1938,-4.120251,-0.27564132,7.6207395,1.4649757,0.013938714,-2.3644278,-0.047704544,0.6695998,0.0050014704,-1.4796389,-0.024230963,-0.039085757,0.36779186,0.22260123,0.11907899,0.3711351,10.370362,13.554828,13.281944,13.236874,68.73679,87.32818,86.840454,85.975136,0,0,0,0,0,0,0,0,0.59999996,0.59999996,0.59999996,0.59999996,-3.0201962,-2.3049128,-1.0838413,-0.6892238,10.801204,13.749399,13.326094,13.254806,0.012449317,-0.0053606927,-0.01473498,0.015232623,164,6,231,2,0,5399.001,174.18034,-2855.4395,2.7815225,366418.12,968.21967,184.20416,176.41577,202.14279,202.14279,-11.76,1,538.8209,0,0,17.688221,17.68821,0,10,255,0,0,0,1,0,127,0
True,27011781,15999.99,0,3815.685,-1.9552317,-0.2648471,9.080658,1.4727747,-0.00896734,-1.3466086,-0.022157585,0.61098886,0.0150840795,-1.4175563,-0.025048913,-0.039008334,0.3063552,0.2392893,0.15989974,0.34950757,10.386568,14.972961,13.111543,13.014163,72.34622,101.17211,90.078865,87.63739,0,0,0,0,0,0,0,0,0.59999996,0.59999996,0.59999996,0.59999996,-4.5984178,-3.6496527,-2.2512047,-1.2040489,11.358972,15.411345,13.303401,13.069743,0.0049131066,-0.003313627,-0.009881694,0.0126612745,164,6,231,2,0,5399.197,174.1704,-2855.3186,1.9956203,396742.03,994.5053,186.06644,178.2917,202.96936,202.96936,-11.76,1,538.68085,0,0,17.785542,17.78553,0,11,255,0,0,0,1,127,127,0
True,27011890,15999.99,0,3694.0215,-0.73281825,-0.08217023,9.612968,1.4830296,-0.016766522,-0.09127024,-0.03433977,0.6308632,0.01948438,-1.3474263,-0.025628291,-0.038869336,0.28377187,0.30969852,0.20377243,0.28111514,10.966118,11.7947645,11.993062,12.279375,82.24247,86.23959,86.066605,85.714714,0,0,0,0,0,0,0,0,0.59999996,0.59999996,0.59999996,0.59999996,-2.9808648,-3.7257175,-1.7972796,-2.347557,11.364036,12.369213,12.126985,12.501762,0.0021428876,0.0053232163,-0.0046655573,0.0045299195,164,6,231,2,0,5399.3086,174.16006,-2855.1672,1.48593,277798.8,716.68036,188.04965,180.62018,204.13152,204.13152,-11.76,1,538.5919,0,0,17.900867,17.900856,0,12,255,0,0,0,1,127,127,0
True,27012015,15999.99,0,3117.858,0.5579598,-0.0142739415,9.68763,1.5834365,-0.019341726,1.1758703,-0.0017710347,0.76238996,0.03248507,-1.2660027,-0.025087215,-0.037977368,0.24959457,0.2844404,0.26874676,0.33331254,9.0896,9.09247,9.415991,9.933925,72.686134,70.82392,72.13655,72.14512,0,0,0,0,0,0,0,0,0.59999996,0.59999996,0.59999996,0.59999996,-1.4581786,-1.958046,-1.1626552,-1.811089,9.205819,9.300912,9.487499,10.097669,-0.002049517,0.002224896,0.0030594096,0.010735802,164,6,231,2,0,5399.2925,174.15288,-2854.9763,1.9723884,189225.11,576.75354,189.81743,182.72983,205.37004,205.37004,-11.76,1,538.5818,0,0,18.017572,18.017561,0,12,255,0,0,0,1,127,127,0
True,27012109,15999.99,0,3277.08,1.185091,-0.06320754,9.408014,1.6056432,-0.030860335,2.251665,0.038337238,0.88317937,0.029782698,-1.1835885,-0.019900426,-0.036031257,0.19604246,0.26890475,0.30315706,0.35784015,9.076246,8.396821,9.466148,10.069735,76.76837,69.54741,77.06285,77.033165,0,0,0,0,0,0,0,0,0.59999996,0.59999996,0.59999996,0.59999996,-0.82046884,-1.1214886,-0.5716043,-1.0544918,9.113255,8.471384,9.483391,10.124797,-0.00861856,0.00031919405,0.007150542,0.013651952,164,6,231,2,0,5399.1846,174.14818,-2854.7676,2.7656894,526403.8,1546.6406,191.07083,184.36208,206.32379,206.32379,-11.76,1,538.6294,0,0,18.117428,18.117416,0,12,255,0,0,0,1,120,127,0
True,27012234,15999.99,0,4535.638,0.871716,0.20554392,10.078089,1.471544,0.0027021393,3.580257,0.04223077,0.9285968,-0.0023045726,-1.0773355,-0.011289787,-0.03593794,0.21724448,0.29422286,0.31491342,0.33133686,13.479677,11.58109,12.993909,13.60659,110.30582,93.24327,106.39781,106.315575,0,0,0,0,0,0,0,0,0.59999996,0.59999996,0.59999996,0.59999996,-1.2644361,-1.8285191,-0.23970085,-0.36066848,13.538851,11.724552,12.9961195,13.611369,-0.0060177855,0.0034248754,0.008548282,0.010500912,164,6,231,2,0,5398.956,174.14478,-2854.4578,3.870877,729811.94,1546.6406,192.55615,186.3925,207.50987,207.50987,-11.76,1,538.7443,0,0,18.23331,18.233297,0,12,255,0,0,0,1,0,127,0
True,27012328,15999.99,0,5450.337,-0.3352933,0.24865499,9.82814,1.0916117,0.041565526,4.7163277,0.0024189549,0.86481476,-0.019288938,-0.9869434,-0.0051009385,-0.03773402,0.28754428,0.34298813,0.30980685,0.33317062,15.2885065,15.163134,15.782672,15.990277,124.57569,120.03524,128.44835,127.15614,0,0,0,0,0,0,0,0,0.59999996,0.59999996,0.59999996,0.59999996,-1.5296443,-1.9182138,-0.0036434561,-0.004227019,15.364838,15.283984,15.782672,15.990277,0.0026056357,0.009406734,0.007941149,0.0107189305,164,6,231,2,0,5398.664,174.14578,-2854.13,4.8411865,752305.44,1322.4392,194.08585,188.17914,208.53137,208.53137,-11.76,1,538.8987,0,0,18.333797,18.333788,0,12,255,0,0,0,1,-127,127,0
True,27012453,15999.99,0,6185.3657,-1.011457,-0.3092953,9.713295,0.55879855,-0.017460898,5.8938837,-0.10713474,0.7773828,-0.06493657,-0.89251,-0.008928186,-0.044203527,0.44586533,0.2960554,0.26183987,0.3729058,13.506099,20.954159,16.406572,17.437368,119.25509,162.9398,145.11873,142.47084,0,0,0,0,0,0,0,0,0.59999996,0.59999996,0.59999996,0.59999996,-1.2351303,-1.4016472,0.221728,0.26779157,13.562457,21.000986,16.408072,17.439425,0.022026308,0.003649667,0.0022382326,0.01544315,164,6,231,2,0,5398.226,174.14958,-2853.6904,5.9203396,754613.25,1168.5477,196.25577,189.95755,209.26888,209.26888,-11.76,1,539.1359,0,0,18.448566,18.448557,0,12,255,0,0,0,1,-127,127,0
True,27012562,15999.99,0,6793.831,-0.87690544,-0.75161505,9.337269,-0.014002085,-0.16944678,6.9463267,0.020351065,0.6838722,0.022061098,-0.80852807,-0.009408938,-0.047901426,0.37483922,0.17580377,0.273655,0.43023962,11.9185,24.403048,15.378979,17.853199,120.45324,191.05318,158.36807,156.6731,0,0,0,0,0,0,0,0,0.59999996,0.59999996,0.59999996,0.59999996,-1.2178125,-1.2076925,0.3827029,0.4436796,11.980556,24.432913,15.383739,17.858711,0.013313793,-0.0111011695,0.003642965,0.022259712,164,6,231,2,0,5397.6963,174.1409,-2853.1814,6.948407,752917.75,1059.2609,197.94873,191.64851,210.18044,210.18044,-11.76,1,539.42474,0,0,18.56305,18.563038,0,12,255,0,0,0,1,-127,127,0
True,27012671,15999.99,0,6984.0576,-2.0767417,0.52787554,10.168579,-0.71698713,-0.07506384,8.102684,-0.04441654,0.53755265,-0.1176964,-0.73848486,-0.008459931,-0.052753627,0.3838677,0.14153641,0.29625198,0.49084675,6.923136,24.29549,13.725186,14.793058,89.86614,230.27661,163.2498,160.65889,0,0,0,0,0,0,0,0,0.59999996,0.59999996,0.59999996,0.59999996,-1.1826411,-1.0066999,0.5550562,0.60420984,7.0234222,24.316338,13.736405,14.805392,0.014421284,-0.015304621,0.0063295774,0.029465452,164,6,231,2,0,5397.061,174.13957,-2852.5898,8.13469,753223.9,1031.2418,199.92635,193.56102,211.06583,211.06583,-11.76,1,539.7735,0,0,18.677519,18.67751,0,12,255,0,0,0,1,-127,127,0
True,27012796,15999.99,0,7360.486,-0.9649744,-0.26738098,8.942512,-1.2574327,-0.052478284,9.065832,0.1661141,0.3742537,-0.058814306,-0.6858759,0.0037855743,-0.07104665,0.25843623,0.08771907,0.4470397,0.5047386,7.0230384,22.313618,13.011681,13.773678,95.87162,242.15524,171.10788,169.91875,0,0,0,0,0,0,0,0,0.59999996,0.59999996,0.59999996,0.59999996,-1.5105492,-1.0909319,0.6157047,0.6681477,7.1836495,22.34027,13.026239,13.789874,-0.0009649433,-0.0219062,0.024257116,0.031117097,164,6,231,2,0,5396.3267,174.14384,-2851.9119,9.152771,754077.1,980.6328,201.04684,195.54735,212.24641,212.24641,-11.76,1,540.17725,0,0,18.792742,18.792734,0,12,255,0,0,0,1,-127,127,0
True,27012906,15999.99,0,7847.627,-0.7910986,-0.8495589,7.827022,-1.6850061,-0.09381312,9.834785,0.17014024,0.23692828,-0.013221189,-0.6534515,0.023000203,-0.06567254,0.068356164,0.087091826,0.3847828,0.2973489,10.410565,17.920612,12.479114,13.407091,138.86504,223.03766,180.80498,181.97844,0,0,0,0,0,0,0,0,0.59999996,0.59999996,0.59999996,0.59999996,-1.5214566,-1.030098,0.6410231,0.67672783,10.521155,17.950193,12.495566,13.424159,-0.024281379,-0.021983143,0.016855232,0.0064599887,164,6,231,2,0,5395.539,174.12334,-2851.1836,9.978529,751435.44,913.40125,201.92389,197.89462,213.4671,213.4671,-11.76,1,540.6098,0,0,18.905542,18.905537,0,12,255,0,0,0,1,-127,127,0
True,27013015,15999.99,0,6891.496,-1.5881805,-1.2854605,7.090643,-2.057466,-0.0029844642,10.650881,0.063020155,0.07517243,-0.13476448,-0.6370229,0.041962456,-0.07852239,0.11987088,0.074873835,0.30882964,0.15839669,8.915904,10.725833,10.310592,11.112122,131.83789,161.26591,162.32198,169.6227,0,0,0,0,0,0,0,0,0.59999996,0.59999996,0.59999996,0.59999996,-1.5300704,-0.96505606,0.68135375,0.68735623,9.046241,10.769161,10.33308,11.13336,-0.017962255,-0.02348188,0.007824969,-0.010060396,164,6,231,2,0,5394.696,174.10298,-2850.4019,10.847784,35143.367,48.501495,203.03117,200.06587,214.91457,214.91457,-11.76,1,541.0725,0,0,19.015299,19.015295,0,12,255,0,0,0,1,-127,127,0
True,27013125,15999.99,0,6041.3906,-3.2374573,1.0554678,8.389356,-2.2906475,0.044999957,11.621733,-0.18556309,-0.26135087,0.17023481,-0.6490567,0.026846701,-0.07172121,0.24124244,0.24482962,0.11003231,0.3050811,6.4667754,7.4085836,7.923021,8.0770645,114.66791,138.68864,143.93277,149.00688,0,0,0,0,0,0,0,0,0.59999996,0.59999996,0.59999996,0.59999996,-1.5495988,-0.9721991,0.54914355,0.5356777,6.649845,7.4721003,7.9420285,8.094808,-0.0030740425,-0.002634015,-0.015810562,0.0073792934,164,6,231,2,0,5393.765,174.08394,-2849.5645,11.84541,754072.7,1194.743,204.51692,201.52565,215.33324,215.33324,-11.76,1,541.5861,0,0,19.125412,19.125404,0,12,255,0,0,0,1,-127,127,0
True,27013234,15999.99,0,6991.229,-0.44006705,-2.4764922,6.2271004,-1.928617,-0.37822676,12.351249,-0.0057106614,-0.32651553,-0.11294407,-0.6793014,0.017037433,-0.0781637,0.07929147,0.09456464,0.22488289,0.12471722,9.976197,8.588365,8.64566,8.120443,161.69443,161.32724,161.4962,161.36584,0,0,0,0,0,0,0,0,0.59999996,0.59999996,0.59999996,0.59999996,-1.634773,-1.0481066,0.42702466,0.4103792,10.109253,8.652082,8.656199,8.130806,-0.022939984,-0.02106648,-0.0021556802,-0.014064636,164,6,231,2,0,5392.771,174.05388,-2848.6694,12.506637,753358.1,1030.5444,205.1338,202.51414,216.56009,216.56009,-11.76,1,542.1787,0,0,19.235264,19.235258,0,12,255,0,0,0,1,-127,127,0
True,27013343,15999.99,0,6807.1436,-1.7441964,1.9220395,7.344326,-1.5245657,0.12926525,13.317591,0.12709792,-0.56477386,0.11311224,-0.72754973,0.025262125,-0.078080185,0.2039499,0.18619144,0.20854501,0.36421347,8.103218,33.80775,37.982456,30.156519,144.12582,159.38092,164.09937,156.21568,0,0,0,0,0,0,0,0,0.59999996,0,0.59999996,0.59999996,-1.6902708,-3.7316854,0.7346525,0.6405575,8.27763,34.013077,37.98956,30.163322,-0.0076485835,-0.009826951,-0.0040981323,0.014409695,164,6,231,2,0,5391.7334,174.03265,-2847.7346,13.405193,0,0,206.5556,204.50117,218.49158,218.49158,-11.76,1,542.7473,0,0,19.342342,19.342333,0,12,255,0,0,0,1,-127,127,0
True,27013453,15999.99,0,5437.692,-2.570447,-1.3839388,8.115807,-0.8688917,-0.17295587,14.211884,-0.11327721,-0.810871,-0.06466173,-0.79826665,0.018676424,-0.08291722,0.17697108,0.21681862,0.08850922,0.116676964,24.340506,10.884245,21.354328,23.676628,113.6646,87.872856,127.724106,150.27599,0,0,0,0,0,0,0,0,0,0,0.59999996,0.59999996,-5.965739,-3.5365431,-0.07840253,-0.055396523,25.06093,11.444384,21.354471,23.676693,-0.0109579805,-0.0060700253,-0.0183695,-0.015020562,164,6,231,2,0,5390.6426,174.00099,-2846.7766,14.23947,0,0,214.23843,212.6623,225.82484,225.82484,-11.76,1,543.3474,0,0,19.448015,19.448004,0,12,253,0,0,0,1,-127,127,0
True,27013546,15999.99,0,3085.7976,-3.5649362,0.17239855,10.004585,0.16829014,-0.15785629,15.422438,-0.008348304,-1.0733069,0.103859015,-0.8988867,0.004879598,-0.086445086,0.14419703,0.27373967,0.29153156,0.3081653,0,1.4764016,8.498594,0.9585896,109.21918,52.242073,78.779724,53.511654,0,0,0,0,0,0,0,0,0,0,0.59999996,0,0,-4.3670015,-1.1096388,-0.93561476,0,4.6098223,8.570729,1.3395033,-0.014978252,0.00091227517,0.005768355,0.007745981,164,6,231,2,0,5389.436,173.97342,-2845.765,15.424163,0,0,219.39392,219.02214,233.0428,233.0428,-11.76,1,544.0167,0,0,19.5535,19.553488,0,12,255,0,0,0,1,-127,127,0
True,27013671,15999.99,0,2304.3953,-13.814344,0.6349076,2.2260504,0.11990547,-0.04256016,15.4972925,-0.016912028,-0.87358785,-0.08449615,-1.0005713,-0.002011818,-0.086793244,0.23974013,0.31655514,0.22924075,0.13343562,12.15016,0.14738797,0.17534061,0.04837131,77.45372,46.402405,46.625843,50.391552,0,0,0,0,0,0,0,0,0,0,0,0,-6.606527,-4.0082955,-0.8748138,-0.7388992,13.830133,4.0110044,0.8922127,0.7404808,-0.0032583252,0.0061642937,-0.0016375631,-0.0130280815,164,6,231,2,0,5388.1016,173.95856,-2844.7888,15.497816,0,0,222.26689,226.12141,233.6118,233.6118,-11.76,1,544.77313,0,0,19.659874,19.65986,0,12,255,0,0,0,1,-127,127,0
True,27013781,15999.99,0,2205.1658,-14.0079155,-0.55708855,-0.6281519,-0.16903305,-0.063280106,15.323009,-0.026636716,-0.7777718,0.032602306,-1.0853188,-0.008617514,-0.08817587,0.2492076,0.3108178,0.1382159,0.3282537,2.7941508,1.1632429,0,0.27745914,47.96392,50.043495,54.55036,49.384705,0,0,0,0,0,0,0,0,0,0,0,0,-5.8105655,-4.084642,0,-0.4812541,6.4474764,4.24705,0,0.55550796,-0.0020969845,0.0054605156,-0.012459742,0.010134343,164,6,231,2,0,5386.629,173.96605,-2843.942,15.32407,0,0,227.95973,232.47346,230.15483,230.15483,-11.76,1,545.6341,0,0,19.770275,19.770262,0,12,255,0,0,0,1,-101,127,0
True,27013890,15999.99,0,2327.944,-12.809422,-0.012173891,3.6502647,-0.37602568,-0.04662326,15.709358,-0.0008406192,-0.75224537,-0.013233841,-1.1705885,-0.017367743,-0.08818768,0.19360776,0.29706788,0.22473818,0.30356446,1.9206092,0.49114034,2.0093217,0.4285662,54.86426,52.5788,54.940014,52.63006,0,0,0,0,0,0,0,0,0,0,0,0,-1.3697957,-1.0427574,-0.3880032,-0.32722282,2.3590422,1.1526326,2.0464408,0.53920656,-0.008917216,0.0037738644,-0.0021728836,0.007198978,164,6,231,2,0,5385.028,173.98805,-2843.2253,15.713926,243177.38,996.02747,232.82445,236.73106,227.35623,227.35623,-5.879999,1,546.59283,0,0,19.883759,19.883747,0,12,255,0,0,0,1,0,112,0
True,27014000,15999.99,0,2418.4197,-5.9483194,-0.14751665,10.194787,0.16172552,-0.08627784,16.816223,-0.02105071,-0.58613443,0.023222454,-1.2380795,-0.02455263,-0.08546962,0.20776938,0.28777963,0.21682924,0.31023118,1.0587472,0.51043206,1.3116127,0.5390966,55.19922,55.737755,56.180305,55.93924,0,0,0,0,0,0,0,0,0,0,0,0,0.41760936,0.39109555,-0.56618977,-0.49965444,1.1381314,0.643037,1.4286003,0.7350372,-0.007180061,0.0026345067,-0.003113199,0.007991601,164,6,231,2,0,5383.535,174.01698,-2842.674,16.81722,218727.95,857.057,230.92932,233.51797,225.96594,225.96594,-5.879999,1,547.4998,0,0,19.981771,19.981762,0,12,255,0,0,0,1,0,93,0
True,27014109,15999.99,0,2641.9624,-6.1493764,-0.1564829,13.558568,0.30084324,-0.124100536,18.364746,-0.0002818387,-0.30571532,-0.0019126972,-1.2885193,-0.029900484,-0.083462134,0.20448458,0.26365602,0.2842265,0.35003278,1.2329633,0.37007946,1.0583397,0.5464214,62.249508,59.55225,61.440483,60.712475,0,0,0,0,0,0,0,0,0,0,0,0,0.068782195,0.067317426,-0.39068657,-0.3528675,1.2348803,0.37615216,1.1281484,0.6504551,-0.007582996,-0.00032464787,0.004899837,0.012723714,164,6,231,2,0,5381.6216,174.05766,-2842.0413,18.367628,368484.44,1331.3048,227.71893,229.72128,224.14154,224.14154,-14.7,1,548.6708,0,0,20.096317,20.096306,0,12,255,0,0,0,1,0,71,0
True,27014218,15999.99,0,2841.1746,-5.9343696,-0.18760066,13.867269,0.058921337,-0.15926075,19.981857,-0.0066167507,-0.19656932,-0.010955889,-1.3113339,-0.032260627,-0.083098635,0.19660585,0.256091,0.30833757,0.37083912,1.3422992,0.43906668,0.66049427,0.379692,68.55167,64.9031,65.260796,64.76766,0,0,0,0,0,0,0,0,0,0,0,0,-0.7975943,-0.7036285,-0.15954427,-0.14228815,1.5613853,0.82938087,0.67949027,0.4054774,-0.008549452,-0.0012526251,0.007766463,0.015197437,164,6,231,2,0,5379.5317,174.10742,-2841.4414,19.982578,396404.94,1334.8005,224.89783,226.20993,221.61813,221.61813,-14.7,1,549.9597,0,0,20.209578,20.209566,0,12,255,0,0,0,1,-127,50,0
True,27014328,15999.99,0,2968.5771,-7.376895,-0.12104395,10.934359,-0.15905094,-0.17113122,20.983242,0.008800989,-0.3690761,-0.0068943184,-1.3385204,-0.034475654,-0.08311128,0.1830111,0.2628414,0.31111413,0.37657672,1.5328287,0.4669286,0.5661024,0.27142885,72.09275,68.43544,67.554695,67.71541,0,0,0,0,0,0,0,0,0,0,0,0,-1.3962511,-1.1454344,-0.15035082,-0.13151935,2.0734224,1.2369487,0.585728,0.30161393,-0.010217071,-0.00042457506,0.008096576,0.015879598,164,6,231,2,0,5377.6304,174.15756,-2840.9712,20.984543,333203.38,1073.1897,224.51134,224.04562,219.49057,219.49057,-14.7,1,551.1408,0,0,20.30507,20.30506,0,12,255,0,0,0,1,-127,32,0
