IsRaceOn,TimestampMS,EngineMaxRpm,EngineIdleRpm,CurrentEngineRpm,AccelerationX,AccelerationY,AccelerationZ,VelocityX,VelocityY,VelocityZ,AngularVelocityX,AngularVelocityY,AngularVelocityZ,Yaw,Pitch,Roll,NormalizedSuspensionTravelFrontLeft,NormalizedSuspensionTravelFrontRight,NormalizedSuspensionTravelRearLeft,NormalizedSuspensionTravelRearRight,TireSlipRatioFrontLeft,TireSlipRatioFrontRight,TireSlipRatioRearLeft,TireSlipRatioRearRight,WheelRotationSpeedFrontLeft,WheelRotationSpeedFrontRight,WheelRotationSpeedRearLeft,WheelRotationSpeedRearRight,WheelOnRumbleStripFrontLeft,WheelOnRumbleStripFrontRight,WheelOnRumbleStripRearLeft,WheelOnRumbleStripRearRight,WheelInPuddleDepthFrontLeft,WheelInPuddleDepthFrontRight,WheelInPuddleDepthRearLeft,WheelInPuddleDepthRearRight,SurfaceRumbleFrontLeft,SurfaceRumbleFrontRight,SurfaceRumbleRearLeft,SurfaceRumbleRearRight,TireSlipAngleFrontLeft,TireSlipAngleFrontRight,TireSlipAngleRearLeft,TireSlipAngleRearRight,TireCombinedSlipFrontLeft,TireCombinedSlipFrontRight,TireCombinedSlipRearLeft,TireCombinedSlipRearRight,SuspensionTravelMetersFrontLeft,SuspensionTravelMetersFrontRight,SuspensionTravelMetersRearLeft,SuspensionTravelMetersRearRight,CarOrdinal,CarClass,CarPerformanceIndex,DrivetrainType,NumCylinders,PositionX,PositionY,PositionZ,Speed,Power,Torque,TireTempFl,TireTempFr,TireTempRl,TireTempRr,Boost,Fuel,Distance,BestLapTime,LastLapTime,CurrentLapTime,CurrentRaceTime,Lap,RacePosition,Accelerator,Brake,Clutch,Handbrake,Gear,Steer,NormalDrivingLine,NormalAiBrakeDifference
True,22129046,15999.99,0,0,-4.8428337E-05,0.0015572815,8.5126034E-05,5.1388997E-05,4.0023733E-05,-4.9551476E-05,-0.00017191653,2.2704694E-07,-0.00017138521,2.2726173,-0.054582547,-0.031087985,0.2629815,0.2649623,0.24304381,0.24519657,4.7748304E-05,4.690747E-05,0.015883261,0.01636894,-0.00015360035,-0.00015360035,-0.00015360035,-0.00015360035,0,0,0,0,0,0,0,0,0,0,0,0,-0.0066711768,-0.0064806296,-0.005106625,-0.0048597385,0.0066713477,0.0064807995,0.016683992,0.017075107,-0.0004073903,-0.00016441569,3.5203993E-06,0.00025946647,164,6,231,2,0,-8589.411,148.81477,-625.80994,8.184178E-05,0,0,121.45871,121.451675,122.06602,122.06602,0,1,0,0,0,0,0,0,8,0,0,0,0,1,0,45,0
True,22129156,15999.99,0,96.03128,0.32460642,-0.0022084713,3.8937287,0.0073347986,-0.0037620717,0.43732122,-0.023948494,0.00023266108,-0.011154761,2.272609,-0.055690784,-0.031785138,0.25511202,0.26123348,0.24796295,0.25477833,0.73737204,-0.042814784,1.2176484,-0.04115298,1.2852427,2.5378706,1.2855053,3.4813342,0,0,0,0,0,0,0,0,0,0,0,0,0.009168386,0.009221818,-0.020603305,-0.020527074,0.737429,0.043796662,1.2178227,0.04598835,-0.0013727099,-0.0006218143,0.0005883686,0.0013986677,164,6,231,2,0,-8589.4,148.8154,-625.8189,0.43739888,7513.9854,761.815,121.452965,121.44342,122.08888,122.08888,0,1,-70.21567,0,0,0.09858128,0.09858128,0,7,255,0,0,0,1,0,45,0
True,22129250,15999.99,0,301.86832,-0.19014263,-0.09559857,11.466606,0.005874753,-0.012598476,1.7044014,-0.03781062,-0.0030386827,-0.019166287,2.2724988,-0.05892432,-0.033385813,0.21737972,0.23521559,0.26551336,0.28679603,1.996189,0.37607795,1.0539299,0.5174638,8.831527,6.004911,7.0554986,6.4043097,0,0,0,0,0,0,0,0,0,0,0,0,0.019498095,0.020405442,-0.024911074,-0.022842208,1.9962842,0.37663114,1.0542244,0.51796776,-0.006001197,-0.0038133338,0.002674982,0.0052053332,164,6,231,2,0,-8589.319,148.82082,-625.88824,1.704458,47648.28,1546.6406,121.60875,121.58346,122.32301,122.32301,0,1,-70.12189,0,0,0.20263149,0.2026315,0,7,255,0,0,0,1,0,45,0
True,22129375,15999.99,0,487.9952,0.28383112,-0.17044505,12.873346,0.003453374,-0.040281534,3.037088,-0.0062889727,0.0009521608,-0.012433526,2.2723038,-0.06157057,-0.0342897,0.16260786,0.18878233,0.2792109,0.31107366,1.7865407,0.02034877,0.06567988,0.015999055,11.720507,10.486407,11.149157,11.571027,0,0,0,0,0,0,0,0,0,0,0,0,0.009602463,0.011591325,-0.003166091,-0.0007386436,1.7865666,0.023418609,0.06575615,0.016016096,-0.012719862,-0.009509135,0.004303515,0.008091763,164,6,231,2,0,-8589.131,148.83305,-626.04834,3.0373573,69886.78,1546.6406,123.315,121.71257,123.207855,123.207855,0,1,-69.904495,0,0,0.30550534,0.30550537,0,7,255,0,0,0,1,0,45,0
True,22129484,15999.99,0,675.00275,0.15049171,-0.032663435,12.691055,0.004454851,-0.045766074,4.5601053,-0.004935498,-0.006264172,-0.0049659857,2.2716694,-0.06220565,-0.035207033,0.15994076,0.19361788,0.29012376,0.33206448,1.2755482,0.39054948,1.117624,0.51861477,16.37235,14.850044,15.9583645,15.195201,0,0,0,0,0,0,0,0,0,0,0,0,0.011264067,0.013224737,-0.024997149,-0.020791212,1.2755979,0.39077333,1.1179036,0.51903135,-0.0130470265,-0.008915976,0.0056009777,0.010587417,164,6,231,2,0,-8588.798,148.855,-626.3295,4.560337,108423.42,1546.6406,126.0148,121.81732,123.99515,123.99515,0,1,-69.52132,0,0,0.41978619,0.41978619,0,7,255,0,0,0,1,0,45,0
True,22129593,15999.99,0,887.66516,0.0013995171,-0.030776642,14.075946,0.0044956207,-0.053987034,6.2062016,-0.0086777825,-0.0010216658,0.00063392473,2.271121,-0.06299685,-0.03513524,0.16277249,0.19337666,0.2961425,0.33725503,1.0337162,0.4486332,0.8215371,0.52147794,21.07318,19.983414,20.925592,20.04441,0,0,0,0,0,0,0,0,0,0,0,0,-0.007923964,-0.0054158415,-0.009749961,-0.0056783524,1.0337466,0.4486659,0.82159495,0.5215089,-0.012699669,-0.008945566,0.0063165575,0.011204537,164,6,231,2,0,-8588.323,148.88821,-626.72986,6.206438,142940.64,1546.6406,128.16484,121.97253,124.561295,124.561295,0,1,-68.975334,0,0,0.53502727,0.53502727,0,7,255,0,0,0,1,0,45,0
True,22129703,15999.99,0,1142.45,-0.19494963,-0.1636265,14.952587,0.0030136108,-0.077070184,7.8918552,-0.009499676,-0.007911709,0.006068023,2.2704604,-0.06425525,-0.03483588,0.15421697,0.1850155,0.30074027,0.3379597,1.9379674,0.4820185,0.73399407,0.54197526,28.669209,25.54152,26.165455,25.823286,0,0,0,0,0,0,0,0,0,0,0,0,0.0067349942,0.00896684,-0.019679444,-0.015096941,1.9379791,0.48210192,0.7342578,0.5421855,-0.013749141,-0.009971198,0.006863203,0.011288315,164,6,231,2,0,-8587.713,148.93172,-627.24445,7.892232,183959.73,1546.6406,130.11357,122.13413,124.830696,124.830696,0,1,-68.27332,0,0,0.6480285,0.64802855,0,7,255,0,0,0,1,0,45,0
True,22129812,15999.99,0,1363.9353,3.1878452,-0.06866498,11.987345,0.28518724,-0.08999232,9.312233,0.008437346,0.22269763,0.031570014,2.2788486,-0.06470591,-0.03336634,0.16557765,0.16960354,0.3092937,0.3295307,0.86713696,1.8631421,0.40366206,1.2784222,31.801083,33.510284,29.297232,32.450935,0,0,0,0,0,0,0,0,0,0,0,0,1.0538476,1.2827917,-0.018520946,-0.015596957,1.3647422,2.2620463,0.4040867,1.2785174,-0.012355572,-0.011861727,0.007880136,0.010286171,164,6,231,2,0,-8586.985,148.98438,-627.8744,9.317035,220145.73,1546.6406,131.12305,124.18288,125.03092,125.03092,0,1,-67.42709,0,0,0.75881964,0.7588197,0,7,255,0,0,0,1,102,45,0
True,22129937,15999.99,0,1869.8003,2.6654568,-0.16007799,13.562092,0.26980162,-0.109598145,10.814958,-0.010494251,0.44521785,-0.0025547743,2.3202968,-0.06365821,-0.034149893,0.17946686,0.16311353,0.30871218,0.31333053,1.129642,5.045158,2.851843,3.1905406,38.601284,47.119015,44.104843,42.607704,0,0,0,0,0,0,0,0,0,0,0,0,-0.6084232,-0.66855574,0.2535159,0.26220268,1.2830704,5.0892615,2.863089,3.2012966,-0.010651832,-0.012657832,0.0078110024,0.008360092,164,6,231,2,0,-8586.173,149.04399,-628.6499,10.818877,301549.62,1546.6406,132.40659,131.37433,126.897446,126.897446,0,1,-66.44125,0,0,0.87045217,0.8704522,0,7,255,0,0,0,1,0,44,0
True,22130031,15999.99,0,2078.5437,0.812027,-0.12806436,15.353203,-0.03141594,-0.10894239,12.316086,-0.0046244427,0.30330768,-0.00088885846,2.3560312,-0.06308532,-0.036290478,0.16536994,0.15740679,0.31133637,0.31035432,1.7803574,3.5352027,2.7026062,2.7749085,45.181866,49.330437,48.334064,48.47964,0,0,0,0,0,0,0,0,0,0,0,0,-0.32873696,-0.34535405,0.32609987,0.3438455,1.810453,3.5520315,2.722209,2.796131,-0.012381047,-0.013357861,0.008122999,0.008006241,164,6,231,2,0,-8585.367,149.10602,-629.4425,12.3166065,334022.5,1546.6406,134.92307,138.275,131.57109,131.57109,0,1,-65.4502,0,0,0.96795195,0.96795195,0,7,255,0,0,0,1,0,42,0
True,22130156,15999.99,0,1902.5299,2.6368318,0.05009994,13.610134,-0.115753174,-0.11530864,13.799782,0.020112941,0.14093713,0.042309955,2.384889,-0.06141949,-0.036813457,0.15735346,0.1788987,0.31012377,0.30802536,1.4953861,0.24404182,0.1367592,0.048700918,46.496616,42.646587,43.27454,43.916134,0,0,0,0,0,0,0,0,0,0,0,0,-0.06412862,-0.06391089,0.20698999,0.23304385,1.4967605,0.25227168,0.24808857,0.23807818,-0.013364403,-0.010721525,0.007978827,0.007729348,164,6,231,2,0,-8584.319,149.18518,-630.50055,13.800748,54321.906,271.34912,140.90814,145.71121,139.49243,139.49243,0,1,-64.14593,0,0,1.0820005,1.0820005,0,7,255,0,0,0,1,0,40,0
True,22130265,15999.99,0,2223.7927,-0.47640848,-0.06913629,13.537985,-0.19557571,-0.1365418,15.464075,-0.011260798,-0.10054473,-0.023666894,2.388154,-0.06152926,-0.03704465,0.18229502,0.19859561,0.29881766,0.29115856,1.6611271,0.7593311,0.6130375,0.46620765,54.40292,51.381805,50.63683,50.417717,0,0,0,0,0,0,0,0,0,0,0,0,-1.4807265,-1.2611132,0.048370335,0.048172932,2.225285,1.4720701,0.61494285,0.4686899,-0.010304909,-0.0083053745,0.006634619,0.005724009,164,6,231,2,0,-8583.138,149.27597,-631.74506,15.465913,341052.16,1470.8699,141.16351,144.65778,138.89366,138.89366,0,1,-62.645973,0,0,1.1991452,1.1991452,0,7,255,0,0,0,1,-81,37,0
True,22130375,15999.99,0,2393.768,-1.9638758,0.0025090575,13.271677,-0.17580032,-0.15614711,16.795025,-0.019604871,-0.23977695,0.017839955,2.3664026,-0.06365036,-0.036788687,0.18157308,0.2058146,0.3049539,0.32614663,0.82961357,0.7181584,0.6900996,0.51143,55.135834,56.11635,54.93842,55.2562,0,0,0,0,0,0,0,0,0,0,0,0,0.32565588,0.32458615,-0.076116145,-0.07069893,0.89124095,0.7881039,0.6942846,0.5162935,-0.010393467,-0.007419847,0.0073641688,0.009883828,164,6,231,2,0,-8581.984,149.36482,-632.9108,16.796669,387086.72,1546.6406,142.86356,144.44965,138.45364,138.45364,0,1,-61.20962,0,0,1.3011502,1.3011502,0,7,255,0,0,0,1,0,34,0
True,22130468,15999.99,0,2588.1255,-0.66100454,0.0676658,14.931641,0.014253616,-0.18339789,18.385956,-0.017433329,-0.05200701,0.0068803406,2.3532557,-0.066208206,-0.034810994,0.178878,0.19560203,0.33031526,0.34103978,0.6021101,0.48873135,0.51646495,0.46931705,59.939133,59.64468,59.746876,59.774063,0,0,0,0,0,0,0,0,0,0,0,0,0.03191822,0.034497745,-0.047487505,-0.041127246,0.60295546,0.48994738,0.5186435,0.47111562,-0.010724066,-0.008672588,0.0103794485,0.011654511,164,6,231,2,0,-8580.702,149.46536,-634.1901,18.386875,418296.03,1546.6406,142.17519,143.5553,138.06969,138.06969,0,1,-59.622154,0,0,1.4041113,1.4041113,0,7,255,0,0,0,1,0,31,0
True,22130593,15999.99,0,2852.2507,-2.626123,-0.0047269017,14.183912,-0.132514,-0.20214286,20.102879,0.0075553707,-0.15157545,-0.010877269,2.346238,-0.06739944,-0.03431787,0.15928431,0.18483923,0.33191052,0.34414697,1.4063412,0.55987227,0.5217074,0.36925754,69.30057,65.72999,65.016624,64.9479,0,0,0,0,0,0,0,0,0,0,0,0,-1.0029982,-0.8779153,-0.029599262,-0.022400478,1.7273682,1.0412456,0.5225464,0.36993635,-0.013127552,-0.009992819,0.0105691105,0.012023933,164,6,231,2,0,-8579.067,149.59627,-635.802,20.10433,384000.5,1287.584,141.68427,142.60168,137.63463,137.63463,0,1,-57.608913,0,0,1.5232898,1.5232898,0,7,255,0,0,0,1,-127,28,0
True,22130687,15999.99,0,3034.0815,-2.514236,-0.15544643,14.878424,0.017158508,-0.19325197,21.505812,-0.00024316832,-0.13550232,0.016626434,2.3256664,-0.06699128,-0.032553513,0.16204737,0.20600083,0.31586626,0.3315104,0.6100089,0.4566763,0.59403175,0.498473,69.93998,69.74315,70.14039,70.248695,0,0,0,0,0,0,0,0,0,0,0,0,0.08339013,0.084337726,-0.09106975,-0.08549742,0.61568236,0.46439862,0.60097206,0.505752,-0.012788618,-0.0073970035,0.008661572,0.010521539,164,6,231,2,0,-8577.526,149.71916,-637.2628,21.506687,490664.94,1546.6406,142.04202,141.93971,137.32733,137.32733,0,1,-55.744335,0,0,1.625671,1.625671,0,7,255,0,0,0,1,0,26,0
True,22130812,15999.99,0,3270.251,-0.83159304,0.02035883,14.80633,0.043787956,-0.22742137,23.28003,-0.020269763,-0.021030333,0.01330498,2.3183937,-0.06878937,-0.030647142,0.19588085,0.22542508,0.31134677,0.3426454,0.53236675,0.4747714,0.49938864,0.45904303,75.56176,75.33925,75.63041,75.49974,0,0,0,0,0,0,0,0,0,0,0,0,-0.010270759,-0.0069768536,-0.033581823,-0.028392438,0.5324658,0.47482267,0.5005165,0.45992026,-0.008638386,-0.0050143003,0.008124236,0.011845414,164,6,231,2,0,-8575.622,149.87169,-639.04376,23.281181,528865.2,1546.6406,141.36908,141.10553,137.0264,137.0264,0,1,-53.45228,0,0,1.7422054,1.7422055,0,7,255,0,0,0,1,0,24,0
True,22130921,15999.99,0,3469.4456,-2.9554148,0.07399596,13.409449,-0.12729931,-0.23883682,24.713781,0.008795308,-0.1709191,-0.010596912,2.31121,-0.06987258,-0.030083682,0.19696441,0.22820497,0.34174463,0.37021714,0.9976302,0.42651024,0.454174,0.32580593,82.679245,79.905556,79.4984,79.48938,0,0,0,0,0,0,0,0,0,0,0,0,-0.7907772,-0.6997221,-0.036455568,-0.027227165,1.2730258,0.81946445,0.45563477,0.3269416,-0.008505467,-0.004673302,0.011738319,0.01512349,164,6,231,2,0,-8573.787,150.02086,-640.732,24.715261,450227.28,1240.6895,140.87892,140.47401,136.76234,136.76234,0,1,-51.26081,0,0,1.8460628,1.8460629,0,7,255,0,0,0,1,-127,22,0
True,22131031,15999.99,0,3667.779,-1.6903629,-0.21748273,13.574942,0.07390118,-0.23047534,26.286549,0.009748934,-0.063548334,0.009026901,2.29445,-0.06878282,-0.028061975,0.19497384,0.22163254,0.342416,0.3645528,0.4268592,0.37147912,0.4608795,0.39975625,84.42816,84.375374,84.91885,84.82092,0,0,0,0,0,0,0,0,0,0,0,0,0.0032345015,0.006474462,-0.063358776,-0.05486068,0.42687145,0.37153554,0.4652142,0.4035031,-0.008749645,-0.0054795183,0.011818133,0.01445004,164,6,231,2,0,-8571.561,150.2009,-642.7219,26.28766,535941.06,1396.9441,140.41705,139.79819,136.50435,136.50435,0,1,-48.634888,0,0,1.963379,1.9633793,0,7,255,0,0,0,1,0,20,0
True,22131140,15999.99,0,3854.5237,-0.5804076,0.02409333,12.924345,0.044534683,-0.24344224,27.693562,-0.01423057,-0.0098170005,0.0020782119,2.291372,-0.06917804,-0.027226618,0.19781938,0.21131054,0.33231288,0.3526651,0.357167,0.37280747,0.41023794,0.38279635,88.621544,88.79209,89.25321,89.12047,0,0,0,0,0,0,0,0,0,0,0,0,-0.013432858,-0.010846045,-0.023674471,-0.017094912,0.35741952,0.3729652,0.41092047,0.38317788,-0.008400593,-0.006745681,0.010616954,0.013036676,164,6,231,2,0,-8569.467,150.36877,-644.5723,27.694666,569075.3,1411.5411,139.91498,139.21094,136.29562,136.29562,0,1,-46.177444,0,0,2.0670424,2.0670426,0,7,255,0,0,0,1,0,19,0
True,22131250,15999.99,0,4060.1357,-0.54443026,0.2932795,13.930664,0.022140503,-0.260822,29.185648,-0.019712772,0.000473132,-0.0069700014,2.291105,-0.07124872,-0.027583085,0.2005484,0.1990334,0.3294601,0.34244537,0.3770725,0.36736098,0.38350174,0.37806806,93.59383,93.49749,93.90126,93.87174,0,0,0,0,0,0,0,0,0,0,0,0,-0.00884229,-0.0061754137,-0.0089827515,-0.0034939123,0.37717617,0.3674129,0.3836069,0.37808418,-0.008065835,-0.0082516745,0.010277778,0.011821631,164,6,231,2,0,-8567.152,150.55801,-646.6071,29.18682,604393.94,1423.2592,139.42746,138.65468,136.10075,136.10075,0,1,-43.466797,0,0,2.175533,2.1755333,0,7,255,0,0,0,1,0,18,0
True,22131359,15999.99,0,4267.502,-0.5867944,0.1196678,14.228922,0.01286602,-0.276285,30.662174,-0.0018521147,0.003640002,0.011196151,2.2913718,-0.07245034,-0.027440201,0.20579262,0.22299096,0.33035475,0.33576113,0.4440703,0.34151778,0.3758163,0.39039716,98.818954,98.00853,98.58832,98.677216,0,0,0,0,0,0,0,0,0,0,0,0,-0.009075594,-0.005655765,-0.0060264086,-0.0009978497,0.44416305,0.3415646,0.3758646,0.39039844,-0.007422544,-0.005312886,0.010384142,0.011026923,164,6,231,2,0,-8564.709,150.76314,-648.75287,30.66342,625739.4,1401.7772,139.00313,138.14195,135.93631,135.93631,0,1,-40.606224,0,0,2.284327,2.284327,0,7,255,0,0,0,1,0,17,0
True,22131484,15999.99,0,4493.129,-0.20512486,-0.12319103,13.746661,0.0061483383,-0.28095597,32.280983,0.0008327728,0.0028529016,0.014797911,2.2918,-0.07207398,-0.025409931,0.21644978,0.23387744,0.34671918,0.35609633,0.3491301,0.39561114,0.4016839,0.3903848,103.25443,103.63655,103.99164,103.889015,0,0,0,0,0,0,0,0,0,0,0,0,-0.0062603354,-0.0030995205,-0.0053698393,0.0016250669,0.3491862,0.3956233,0.40171978,0.39038816,-0.006115269,-0.0039774813,0.01232975,0.013444629,164,6,231,2,0,-8561.866,151.00343,-651.2503,32.282207,661674.5,1407.7112,138.58337,137.63614,135.79233,135.79233,0,1,-37.277424,0,0,2.4047358,2.4047358,0,7,255,0,0,0,1,0,16,0
True,22131578,15999.99,0,4685.334,0.5980768,-0.043972194,12.982273,0.011087418,-0.295538,33.676373,0.0036932696,0.0010050226,-0.002496169,2.291976,-0.072230116,-0.02493159,0.22360651,0.23381518,0.35223526,0.36309204,0.38833806,0.39662698,0.3783427,0.37762487,108.06147,108.10272,108.27638,108.26816,0,0,0,0,0,0,0,0,0,0,0,0,-0.0053221276,-0.0018578081,-0.0060760085,0.0014223232,0.3883745,0.39663133,0.37839147,0.37762755,-0.005237378,-0.003985118,0.012985572,0.014276363,164,6,231,2,0,-8559.307,151.21996,-653.50104,33.67767,684116.75,1395.658,138.24683,137.25793,135.6989,135.6989,0,1,-34.278385,0,0,2.5082507,2.5082505,0,7,255,0,0,0,1,0,14,0
True,22131687,15999.99,0,4874.692,0.040757656,-0.3998444,13.200083,0.01341629,-0.29202652,35.065357,0.012884339,0.0021680398,0.0012621665,2.2921312,-0.07077786,-0.025211973,0.24054348,0.24660623,0.35550928,0.366438,0.365819,0.3390996,0.38857615,0.3906323,112.27911,112.031876,112.801544,112.81343,0,0,0,0,0,0,0,0,0,0,0,0,-0.006767506,-0.003251826,-0.0066936943,0.0011032498,0.3658816,0.33911517,0.38863382,0.39063388,-0.00315978,-0.0024160855,0.013374828,0.0146741755,164,6,231,2,0,-8556.571,151.44965,-655.90656,35.066574,695866.94,1364.3826,137.95027,136.9018,135.62476,135.62476,0,1,-31.074095,0,0,2.6143684,2.6143682,0,7,255,0,0,0,1,0,13,0
True,22131796,15999.99,0,5058.246,0.37157393,0.31590506,12.953232,0.011089325,-0.3025766,36.508224,-0.030982217,0.0019559828,0.002821655,2.292405,-0.07189908,-0.024853434,0.2670142,0.27305105,0.37386233,0.37907776,0.2888118,0.30626863,0.3511141,0.34282914,116.234985,116.39601,117.12859,117.05014,0,0,0,0,0,0,0,0,0,0,0,0,-0.0055425456,-0.0026710278,-0.0071056113,0.0023099573,0.28886497,0.3062803,0.35118598,0.34283692,8.728728E-05,0.0008278042,0.015556876,0.01617695,164,6,231,2,0,-8553.656,151.69337,-658.4715,36.50948,743573.4,1405.0868,137.66554,136.56049,135.57352,135.57352,0,1,-27.658575,0,0,2.7230384,2.723038,0,7,255,0,0,0,1,0,12,0
True,22131906,15999.99,0,5275.3013,0.5245619,0.31475005,12.351244,0.0139427185,-0.30920333,38.049545,0.019241132,0.0014651724,0.002941762,2.2926226,-0.07351473,-0.024957402,0.26226684,0.27611527,0.39792365,0.39993504,0.4070328,0.32272086,0.3301783,0.3418847,122.222664,121.362076,121.80041,121.90192,0,0,0,0,0,0,0,0,0,0,0,0,-0.0067654112,-0.0026152567,-0.009944206,0.003804725,0.407089,0.32273147,0.330328,0.34190586,-0.0004950538,0.0012036823,0.018417586,0.018656727,164,6,231,2,0,-8550.313,151.98311,-661.4149,38.050804,719700.75,1303.8502,137.38435,136.22942,135.5325,135.5325,0,1,-23.740099,0,0,2.842681,2.842681,0,7,255,0,0,0,1,0,10,0
True,22132015,15999.99,0,5442.6753,-0.36512375,-0.74149925,12.620932,0.007701874,-0.29688984,39.266106,0.01922063,0.0033306282,0.025266603,2.2928433,-0.07080667,-0.02332365,0.2041689,0.23694476,0.35660613,0.37632826,0.3196595,0.3081965,0.36357713,0.361809,125.22259,125.118385,125.997,125.963264,0,0,0,0,0,0,0,0,0,0,0,0,-0.006742828,-0.003785596,-0.0063988417,0.0019652853,0.3197306,0.30821976,0.36363342,0.36181432,-0.0076217204,-0.0036012232,0.013505235,0.015850052,164,6,231,2,0,-8547.371,152.23563,-664.0056,39.267223,726810.75,1276.095,137.19232,135.97346,135.5159,135.5159,0,1,-20.291214,0,0,2.9442475,2.9442472,0,7,255,0,0,0,1,0,9,0
True,22132140,15999.99,0,5623.969,0.7120156,-0.12377298,11.392109,0.008880615,-0.31920558,40.69742,-0.0061389674,0.0009645395,0.0018024177,2.2930734,-0.07070341,-0.02148981,0.20568526,0.21063197,0.3119142,0.32957807,0.28139168,0.30493918,0.31519714,0.311234,129.42665,129.6557,130.08784,130.0474,0,0,0,0,0,0,0,0,0,0,0,0,-0.003928172,-0.0014436105,-0.0032382102,0.0002928399,0.2814191,0.3049426,0.31521377,0.31123415,-0.007435713,-0.006828919,0.008191701,0.010291804,164,6,231,2,0,-8543.828,152.53265,-667.12726,40.698673,752798.94,1279.1445,136.97195,135.71272,135.51596,135.51596,0,1,-16.138361,0,0,3.062547,3.062547,0,7,255,0,0,0,1,0,7,0
True,22132250,15999.99,0,5797.5835,-0.31772947,-0.43635207,12.126629,0.012571335,-0.32844436,41.923775,0.019435557,0.001557234,0.004695979,2.2931705,-0.069991805,-0.02148761,0.2244607,0.22851908,0.33089587,0.3341348,0.33940935,0.2953487,0.31700984,0.32246527,133.89783,133.42659,133.9928,134.04095,0,0,0,0,0,0,0,0,0,0,0,0,-0.0057118596,-0.0024516394,-0.0049427724,-0.0003995313,0.33945742,0.29535887,0.31704837,0.3224655,-0.005132597,-0.0046347715,0.010448482,0.010833561,164,6,231,2,0,-8540.573,152.80495,-669.99554,41.925064,748825.56,1234.2144,136.80295,135.50668,135.52734,135.52734,0,1,-12.322328,0,0,3.1677089,3.167709,0,7,255,0,0,0,1,0,5,0
True,22132343,15999.99,0,5948.913,0.30183125,-0.4623363,11.150097,0.008125305,-0.3290118,43.134003,-0.0014980882,0.0017902061,0.011053907,2.29334,-0.06856185,-0.020518478,0.20921035,0.21819702,0.3239092,0.32653028,0.26611787,0.26078564,0.29822156,0.29918632,136.97945,136.91167,137.62595,137.62636,0,0,0,0,0,0,0,0,0,0,0,0,-0.00459649,-0.0021253212,-0.004001108,1.3308386E-05,0.26615757,0.2607943,0.2982484,0.29918632,-0.0070033036,-0.005900942,0.009617813,0.009929445,164,6,231,2,0,-8537.1875,153.08232,-672.9803,43.135254,752690.4,1208.9073,136.65654,135.32204,135.5543,135.5543,0,1,-8.352564,0,0,3.273994,3.2739942,0,7,255,0,0,0,1,0,3,0
True,22132453,15999.99,0,6115.932,-0.030203342,-0.6740091,11.051701,0.0047340393,-0.33073586,44.287865,0.033762455,0.002002421,0.016488673,2.2935238,-0.06719259,-0.019187361,0.20472346,0.2326196,0.32413486,0.32757518,0.32068837,0.2887284,0.30217543,0.30823112,141.22295,140.83968,141.33376,141.38579,0,0,0,0,0,0,0,0,0,0,0,0,-0.004566381,-0.001340842,-0.003375625,0.0004841066,0.32072088,0.28873152,0.3021943,0.3082315,-0.007553693,-0.0041317753,0.009644646,0.010053672,164,6,231,2,0,-8533.72,153.36281,-676.03784,44.289104,752822,1176.236,136.52557,135.15895,135.5874,135.5874,0,1,-4.2865095,0,0,3.379904,3.379904,0,7,255,0,0,0,1,0,2,0
True,22132578,15999.99,0,6254.641,0.056106567,-0.7165233,10.787809,0.00069618225,-0.33531892,45.45088,-0.0044489903,0.0017067734,0.020519095,2.293736,-0.06519164,-0.016941763,0.19144368,0.21975067,0.29199937,0.31815264,0.23596993,0.24663913,0.27371225,0.272189,143.97,144.08977,144.68718,144.6608,0,0,0,0,0,0,0,0,0,0,0,0,-0.0030948694,-0.0009272883,-0.0012702843,0.00068411056,0.23599023,0.24664088,0.2737152,0.27218986,-0.009182677,-0.0057103597,0.00582397,0.008933403,164,6,231,2,0,-8530.08,153.64677,-679.24854,45.45211,752661.8,1149.7931,136.4157,135.01562,135.63843,135.63843,0,1,-0.018598631,0,0,3.4882314,3.4882314,0,7,255,0,0,0,1,0,0,0
True,22132671,15999.99,0,6412.226,-0.16469145,-0.9837599,10.23317,-0.0055294037,-0.330217,46.466812,0.04789865,-0.011148136,-0.0059655253,2.2936258,-0.06306857,-0.016246473,0.23546794,0.2322405,0.3145203,0.33226728,0.29435766,0.2879955,0.30758268,0.3001261,147.78206,147.7505,148.28738,148.23431,0,0,0,0,0,0,0,0,0,0,0,0,-0.064811796,-0.0609952,-0.0026546293,0.0008975203,0.30140835,0.2943838,0.30759412,0.30012745,-0.0037823804,-0.004178278,0.008501548,0.010611527,164,6,231,2,0,-8526.653,153.90857,-682.27106,46.467987,752263.06,1121.0518,136.32437,134.90356,135.68732,135.68732,0,1,3.9972086,0,0,3.5877697,3.5877697,0,7,255,0,0,0,1,-53,254,0
True,22132796,15999.99,0,6565.675,-4.4891815,-0.26997468,10.5543585,0.19356728,-0.3407808,47.80586,-0.014415373,-0.17576672,0.007903725,2.2773986,-0.06178397,-0.017622733,0.23532252,0.27922168,0.32105336,0.33943513,0.28549752,0.19718182,0.26052126,0.21042776,151.60863,151.40738,151.58937,151.80591,0,0,0,0,0,0,0,0,0,0,0,0,0.012302897,0.014443207,-0.084313825,-0.07814995,0.28576246,0.19771008,0.27382502,0.22447106,-0.003800217,0.0015847348,0.009278275,0.011463735,164,6,231,2,0,-8521.925,154.25061,-686.394,47.80746,752685.4,1095.3846,136.28397,134.83098,135.78125,135.78125,0,1,9.513014,0,0,3.7210114,3.7210116,0,7,255,0,0,0,1,0,252,0
True,22132906,15999.99,0,6753.1543,-3.2135732,-2.108564,9.380357,0.29198647,-0.30806285,48.82409,0.061456703,-0.038306043,0.020813216,2.2677324,-0.0565251,-0.015152521,0.17862692,0.22745302,0.2918047,0.33390632,0.31592047,0.26222694,0.37833852,0.33667246,155.41687,154.98997,156.5056,156.23532,0,0,0,0,0,0,0,0,0,0,0,0,-0.05543149,-0.051696774,-0.07407435,-0.06942649,0.32074663,0.26727423,0.38552177,0.3437563,-0.010754863,-0.0047655404,0.0058008283,0.010806397,164,6,231,2,0,-8517.913,154.53056,-689.81635,48.82593,736375.25,1041.6427,136.24698,134.74486,135.87117,135.87117,0,1,14.149507,0,0,3.830273,3.830273,0,7,255,0,0,0,1,0,251,0
True,22133015,15999.99,0,6848.787,-2.6161149,-1.2797638,9.913364,0.13485336,-0.33665466,49.88163,0.008435277,-0.0010836876,0.0070378995,2.265786,-0.05404364,-0.013956577,0.21622422,0.26305628,0.30723733,0.34362313,0.25571668,0.20552008,0.24337544,0.24098301,158.21323,157.58044,158.31885,158.31485,0,0,0,0,0,0,0,0,0,0,0,0,-0.030636542,-0.027221343,-0.028510105,-0.024996754,0.25754535,0.20731498,0.24503964,0.24227597,-0.0061429366,-0.00039821863,0.007635653,0.011961654,164,6,231,2,0,-8513.815,154.7887,-693.267,49.882946,752649,1049.9575,136.20984,134.68376,135.96729,135.96729,0,1,18.855637,0,0,3.9389055,3.9389055,0,7,255,0,0,0,1,0,251,0
True,22133125,15999.99,0,6988.528,-0.8737912,-1.0434804,9.283523,0.0224514,-0.32860762,50.914436,0.012897046,0.0062023364,0.032692213,2.2663443,-0.051757146,-0.011339237,0.2138895,0.25671163,0.28976876,0.32706735,0.20955604,0.21302179,0.25201648,0.24828987,160.87575,160.90468,161.70268,161.63847,0,0,0,0,0,0,0,0,0,0,0,0,-0.009651194,-0.0072903903,-0.0050348057,-0.0029353492,0.20977817,0.21314651,0.25206676,0.24830721,-0.0064293295,-0.0011764914,0.00555877,0.009993296,164,6,231,2,0,-8509.524,155.04794,-696.85583,50.9155,752545.44,1028.7388,136.1783,134.62807,136.06061,136.06061,0,1,23.772926,0,0,4.0499907,4.04999,0,7,255,0,0,0,1,0,252,0
True,22133234,15999.99,0,7124.496,-0.34623337,-1.2150964,9.069565,-0.002275467,-0.33080637,51.776558,0.06351317,0.002662835,0.020131757,2.266737,-0.049673986,-0.009038127,0.23165502,0.26729575,0.3504599,0.37548715,0.32604295,0.2936307,0.24275097,0.25028253,165.09436,164.63324,164.32487,164.39499,0,0,0,0,0,0,0,0,0,0,0,0,-0.0034288703,0.00029881482,-0.002820572,0.004043309,0.32606098,0.29363084,0.24276736,0.2503152,-0.004250098,0.00012182444,0.012774501,0.015750054,164,6,231,2,0,-8505.724,155.26903,-700.0307,51.777615,752819.06,1009.68726,136.15712,134.59259,136.14594,136.14594,0,1,28.125887,0,0,4.1465106,4.14651,0,7,255,0,0,0,1,0,252,0
True,22133343,15999.99,0,7257.7974,-0.5652895,-3.013473,9.720034,-0.0046215057,-0.31888062,52.788284,0.0207643,0.0006133817,0.012695413,2.2668657,-0.041873015,-0.0067974725,0.21420376,0.23873876,0.27473813,0.29845226,0.20633964,0.21817076,0.28917798,0.28892556,166.73082,166.88614,168.05875,168.04462,0,0,0,0,0,0,0,0,0,0,0,0,-0.0009857945,0.0011508027,5.625917E-05,0.00088685995,0.206342,0.2181738,0.28917798,0.28892693,-0.00639078,-0.0033811592,0.003771741,0.006591171,164,6,231,2,0,-8501.146,155.50247,-703.8533,52.789246,752308.6,989.8866,136.16702,134.5826,136.26295,136.26295,0,1,33.36634,0,0,4.2606473,4.260646,0,7,255,0,0,0,1,0,252,0
True,22133468,15999.99,0,7401.7505,0.0029044151,-2.3068056,8.663094,0.0027675629,-0.31922817,53.78254,0.06324919,-4.2572967E-05,0.0032261815,2.2668464,-0.037772764,-0.006522716,0.18339877,0.19261126,0.31234333,0.32134038,0.26317564,0.23866296,0.2857777,0.2891989,170.56847,170.25703,171.2022,171.2476,0,0,0,0,0,0,0,0,0,0,0,0,-0.0019338375,0.0005694414,-0.0019713205,0.0010783394,0.26318276,0.23866364,0.28578448,0.28920093,-0.010169517,-0.009039454,0.008242719,0.009312402,164,6,231,2,0,-8496.455,155.71207,-707.7733,53.783485,752620,971.4222,136.17117,134.57364,136.37784,136.37784,0,1,38.733646,0,0,4.375409,4.375408,0,7,255,0,0,0,1,0,253,0
True,22133578,15999.99,0,7503.933,-0.2960248,-1.3291252,9.051006,-0.0016784668,-0.3432706,54.774338,0.032623384,0.0004820373,0.0043857303,2.266898,-0.035287958,-0.005106027,0.25630322,0.27673516,0.30500773,0.32676724,0.20453763,0.23223639,0.21579985,0.21264519,172.97966,173.29924,173.4,173.37274,0,0,0,0,0,0,0,0,0,0,0,0,-0.0015295763,0.0015380445,-0.0003910454,0.0018493367,0.20454335,0.23224148,0.21580021,0.21265323,-0.0012265891,0.0012797192,0.0073705725,0.009957615,164,6,231,2,0,-8491.704,155.89796,-711.74274,54.77541,752626,958.20807,136.18947,134.57846,136.49568,136.49568,0,1,44.172153,0,0,4.4894776,4.4894767,0,7,255,0,0,0,1,0,253,0
True,22133671,15999.99,0,7634.262,-0.19447279,-2.0268683,8.6855755,0.00068855286,-0.34055418,55.66192,0.033563785,0.0005617395,0.009581813,2.2669194,-0.030843915,-0.0049262433,0.23672652,0.2533337,0.31033286,0.3220453,0.2476112,0.23500913,0.22403784,0.22403477,176.3828,176.21928,176.3149,176.3135,0,0,0,0,0,0,0,0,0,0,0,0,-0.002317537,0.0006872452,-0.00147872,0.0011050343,0.24762204,0.23501013,0.22404273,0.2240375,-0.0036279932,-0.0015908517,0.008003693,0.00939621,164,6,231,2,0,-8487.182,156.0556,-715.5218,55.662964,752572,941.8399,136.21024,134.59341,136.60666,136.60666,0,1,49.34897,0,0,4.596232,4.5962305,0,7,255,0,0,0,1,0,253,0
True,22133796,15999.99,0,7791.7085,0.18936396,-4.1831923,7.93857,-0.0023670197,-0.3139053,56.604454,0.010390724,0.00059975963,0.017431341,2.2669384,-0.020642139,-0.0033851154,0.21626282,0.23309162,0.25662827,0.27583718,0.17806879,0.18096545,0.33901945,0.3309514,178.38744,178.43817,180.8279,180.72166,0,0,0,0,0,0,0,0,0,0,0,0,-0.0012884032,7.075528E-05,-0.00089461106,-5.6656183E-05,0.17807345,0.18096547,0.3390206,0.3309514,-0.006138202,-0.004073873,0.0016186126,0.0039024092,164,6,231,2,0,-8481.989,156.18915,-719.86127,56.605328,752009.94,921.2963,136.26895,134.64212,136.74358,136.74358,0,1,55.28752,0,0,4.716837,4.7168355,0,7,255,0,0,0,1,0,253,0
True,22133906,15999.99,0,7916.1553,-0.47575307,-1.832071,8.338011,-0.0026569366,-0.32294345,57.441605,0.10860805,0.00019480067,0.010410652,2.2669787,-0.019231426,-0.0021041413,0.22392204,0.2187418,0.34030783,0.34080935,0.32793957,0.33031654,0.2743848,0.2732808,183.05475,183.09938,182.70052,182.66068,0,0,0,0,0,0,0,0,0,0,0,0,-0.0019684753,0.0016510917,-0.0026102709,0.0026346068,0.32794547,0.3303207,0.2743972,0.2732935,-0.0051986724,-0.005834114,0.011567492,0.011627119,164,6,231,2,0,-8477.391,156.28058,-723.7036,57.44251,752929.2,909.00946,136.30502,134.67404,136.86797,136.86797,0,1,60.550377,0,0,4.8218637,4.821862,0,7,255,0,0,0,1,0,253,0
True,22134000,15999.99,0,8004.631,0.35211563,-4.167815,7.6469073,-0.0029354095,-0.33888263,58.272984,0.041469052,3.461096E-05,0.010103505,2.2669718,-0.0105756475,-0.0007171184,0.20912221,0.21799162,0.27430466,0.27626267,0.23558031,0.2380817,0.26277876,0.26565978,184.43913,184.46814,185.06151,185.10745,0,0,0,0,0,0,0,0,0,0,0,0,-0.0012841332,0.001217014,-0.00019882557,0.00018974733,0.23558381,0.23808481,0.26277882,0.26565984,-0.0070141144,-0.005926136,0.0037202053,0.0039529987,164,6,231,2,0,-8472.773,156.33224,-727.5624,58.273964,752229.9,897.4031,136.36378,134.72807,136.99039,136.99039,0,1,65.83469,0,0,4.925882,4.92588,0,7,255,0,0,0,1,0,253,0
True,22134125,15999.99,0,8161.0454,-0.5012984,-4.7063537,8.427303,-0.0031261444,-0.32832217,59.20124,0.07386228,0.0004483335,0.008790344,2.266965,-0.0014063896,0.00032857712,0.20354493,0.2160589,0.2962396,0.29469728,0.23728564,0.23482028,0.334567,0.3380982,187.35199,187.32834,189.07623,189.1025,0,0,0,0,0,0,0,0,0,0,0,0,-0.0012823929,0.0012252635,-0.00025224747,0.0004736155,0.2372891,0.23482348,0.3345671,0.33809853,-0.0076982602,-0.006163217,0.006328106,0.006144736,164,6,231,2,0,-8467.371,156.33693,-732.0767,59.20215,752282.2,880.2027,136.42526,134.78831,137.12675,137.12675,0,1,72.01683,0,0,5.045716,5.045714,0,6,255,0,0,0,1,0,253,0
True,22134234,15999.99,0,8273.356,0.26027083,-3.188104,7.2311745,-0.00018119812,-0.37303045,60.017124,0.108133376,-0.000524436,-0.01294785,2.2669263,0.0029375376,0.00013560928,0.18854891,0.18194744,0.27844197,0.28031325,0.4274469,0.43474206,0.21882185,0.22178707,192.96696,193.04138,189.99777,190.0475,0,0,0,0,0,0,0,0,0,0,0,0,-0.0010386892,0.0028596825,0.0004712577,0.0006006645,0.42744815,0.43475148,0.21882236,0.22178787,-0.009537768,-0.010347545,0.0042120963,0.004434578,164,6,231,2,0,-8462.511,156.29607,-736.13873,60.01828,753216.6,870.4946,136.47502,134.83777,137.24974,137.24974,0,1,77.571236,0,0,5.151916,5.151914,0,6,255,0,0,0,1,0,253,0
True,22134343,15999.99,0,8513.888,0.11582446,-8.509856,4.697083,0.013900757,-0.32089454,60.49897,0.11808844,-0.0021140394,0.00351312,2.266673,0.02097265,-0.00041782382,0.07967449,0.07167978,0.17991382,0.17100672,0.45062223,0.40592545,0.6721673,0.6395549,194.70969,194.1593,197.85432,197.76233,0,0,0,0,0,0,0,0,0,0,0,0,-0.0032575682,-0.0011090037,-0.0057306536,0.00022275993,0.450634,0.40592697,0.67219174,0.639555,-0.022893,-0.023873683,-0.0075021684,-0.008561157,164,6,231,2,0,-8457.393,156.17827,-740.4158,60.499817,512509.2,574.4296,136.61914,134.96085,137.40161,137.40161,0,1,83.42904,0,0,5.262629,5.2626276,0,6,255,0,0,0,1,0,253,0
True,22134453,15999.99,0,8243.618,0.042595148,-6.909778,5.4824023,0.014011383,-0.4001844,61.182087,0.10547005,-0.0008405363,0.0041720867,2.2664957,0.03177075,0.00019728483,0.06559067,0.07060782,0.14539039,0.14519964,-0.09848964,-0.09965968,0.13763161,0.14199565,187.75354,187.74167,191.78763,191.82706,0,0,0,0,0,0,0,0,0,0,0,0,-0.003649192,-0.0014640336,-0.0083892755,0.0026886973,0.09855723,0.09967043,0.13788706,0.1420211,-0.024620611,-0.024005176,-0.011606749,-0.011629427,164,6,231,2,0,-8452.261,155.95976,-744.7032,61.183395,751443.6,869.6554,136.69714,135.03563,137.55563,137.55563,0,1,89.30382,0,0,5.372471,5.3724694,0,6,255,80,0,0,1,0,253,216
True,22134578,15999.99,0,8422.296,-0.25213763,-7.8869643,1.3711106,0.004003525,-0.2528323,61.146328,0.1102501,-0.00019422872,0.0079697,2.2665303,0.049938012,0.0013099372,0.04531402,0.04806363,0.120758735,0.12553406,0.19643976,0.2082921,0.35336766,0.34910306,192.8596,193.01938,195.44722,195.26797,0,0,0,0,0,0,0,0,0,0,0,0,-0.0017115313,-0.0005319575,-0.009149007,0.006289717,0.19644721,0.20829278,0.35348606,0.34915972,-0.027107876,-0.026770592,-0.014535271,-0.01396752,164,6,231,2,0,-8446.631,155.61975,-749.40564,61.146847,614249.8,696.82983,136.70068,135.04033,137.57315,137.57315,0,1,95.74242,0,0,5.4926705,5.4926686,0,6,213,0,0,0,1,0,253,0
True,22134671,15999.99,0,8485.539,0.10954857,-5.093284,5.808468,-0.002626419,-0.3833623,61.817383,0.052777708,0.0006773054,0.01485068,2.2665615,0.054443832,0.0021939443,0.09350308,0.10233096,0.15174738,0.15635051,0.2975113,0.29355803,0.21795118,0.21737519,196.59866,196.5699,195.64761,195.62614,0,0,0,0,0,0,0,0,0,0,0,0,-0.0016414212,0.0005287033,-0.005274337,0.0045643267,0.29751584,0.2935585,0.21801499,0.2174231,-0.021196697,-0.020113813,-0.010850951,-0.010303672,164,6,231,2,0,-8442.343,155.29707,-752.9867,61.818573,752662.4,847.4228,136.74747,135.09102,137.67085,137.67085,0,1,100.65627,0,0,5.583682,5.5836797,0,6,255,0,0,0,1,0,253,0
True,22134781,15999.99,0,8625.316,-0.15898299,-5.749438,7.5215626,-0.011606216,-0.43110132,62.567013,0.08399515,0.0022731314,-0.02032806,2.26675,0.063148,0.002378023,0.06214575,0.052414823,0.15334186,0.16003604,0.28141117,0.36762154,0.29374516,0.28769517,198.68956,199.9877,199.1448,199.0976,0,0,0,0,0,0,0,0,0,0,0,0,0.0014891609,0.0037115742,-0.0014993905,0.007473779,0.2814151,0.3676403,0.29374897,0.28779224,-0.025043188,-0.026236845,-0.0106613785,-0.009865489,164,6,231,2,0,-8437.632,154.895,-756.9202,62.5685,752268.25,832.9832,136.81458,135.1672,137.78568,137.78568,0,1,106.05676,0,0,5.682571,5.682568,0,6,255,0,0,0,1,0,253,0
True,22134890,15999.99,0,8706.627,-0.33025336,-5.7021146,8.428218,-0.005212784,-0.4764241,63.378494,0.066166386,-0.0002581689,-0.0010689795,2.2668374,0.07210357,0.00034388894,0.0835538,0.08261671,0.17967807,0.160594,0.28692907,0.23978838,0.2513488,0.26113883,201.37065,200.65271,201.06058,201.15894,0,0,0,0,0,0,0,0,0,0,0,0,-0.00012111013,0.002130694,-0.002017445,0.005272404,0.2869291,0.23979786,0.25135687,0.26119205,-0.02241714,-0.022532089,-0.0075301975,-0.009799153,164,6,231,2,0,-8432.67,154.40804,-761.06464,63.380283,752255.2,825.1621,136.89394,135.2556,137.9127,137.9127,0,1,111.742165,0,0,5.785524,5.785521,0,6,255,0,0,0,1,0,253,0
True,22135000,15999.99,0,8817.389,-0.3793087,-5.537655,8.396137,0.006006241,-0.43666363,64.34924,0.041961722,-0.0020094367,0.004443258,2.2666018,0.083872505,0.0019432879,0.08203593,0.07951844,0.21371393,0.20685518,0.17390625,0.19236396,0.25172517,0.25431052,202.60553,202.90627,204.08075,204.13496,0,0,0,0,0,0,0,0,0,0,0,0,-0.0012789752,-0.00023260749,-0.0027079214,-0.00033899635,0.17391095,0.19236411,0.2517397,0.25431073,-0.022603331,-0.022912143,-0.003483586,-0.004299041,164,6,231,2,0,-8426.572,153.7268,-766.159,64.35073,752264.75,814.5549,136.99426,135.34985,138.06256,138.06256,0,1,118.744194,0,0,5.910422,5.9104195,0,6,255,0,0,0,1,0,253,0
True,22135125,15999.99,0,8935.991,-0.33920598,-3.1322174,7.9570527,0.009548187,-0.41715908,65.23989,0.082116984,-0.000921112,0.0020133555,2.2664735,0.08874001,0.0008980671,0.19243664,0.17694004,0.2650594,0.24341711,0.25093162,0.21774666,0.21609391,0.21280344,206.63797,206.15033,206.37329,206.34798,0,0,0,0,0,0,0,0,0,0,0,0,-0.002968746,-3.279466E-05,-0.0021499777,-0.0009391741,0.25094917,0.21774666,0.21610461,0.21280551,-0.009060875,-0.010961788,0.0026210137,4.7903508E-05,164,6,231,2,0,-8420.798,153.0287,-770.9819,65.24123,752800.75,804.93506,137.06218,135.42368,138.19827,138.19827,0,1,125.37419,0,0,6.0269823,6.02698,0,6,255,0,0,0,1,0,253,0
True,22135218,15999.99,0,9042.739,-0.0717659,-4.3086147,7.8502064,0.008255005,-0.40034032,66.116325,0.03632357,-0.00014786038,-0.014716869,2.2664375,0.097150765,0.00012621284,0.1560345,0.13831751,0.22485499,0.20268413,0.15668602,0.15161559,0.232994,0.23241869,207.87474,207.8002,209.37889,209.37836,0,0,0,0,0,0,0,0,0,0,0,0,-0.0013044684,0.000119360695,-0.0016410024,0.00074166385,0.15669146,0.15161563,0.23299979,0.23241988,-0.013526194,-0.015699474,-0.0021589957,-0.004794948,164,6,231,2,0,-8415.072,152.28346,-775.7636,66.11753,752350.8,794.5643,137.13396,135.50171,138.32054,138.32054,0,1,131.95683,0,0,6.1411247,6.141122,0,6,255,0,0,0,1,0,254,0
True,22135343,15999.99,0,9156.727,0.12568784,-3.01247,7.2703543,0.0065345764,-0.40027642,66.939514,0.07285525,4.9811322E-05,-0.013364645,2.266454,0.10118776,-0.0012733528,0.12698951,0.1218311,0.24218266,0.2244142,0.19554618,0.19717063,0.21347553,0.21123469,211.09828,211.0916,211.68236,211.66382,0,0,0,0,0,0,0,0,0,0,0,0,-0.0013741323,0.0006055786,-0.0010011648,0.00053973077,0.19555101,0.19717155,0.21347788,0.21123537,-0.017089037,-0.017721802,-9.886548E-05,-0.002211403,164,6,231,2,0,-8409.466,151.5153,-780.44525,66.940704,752607.4,785.1753,137.19829,135.57224,138.44302,138.44302,0,1,138.40565,0,0,6.251482,6.2514787,0,6,255,0,0,0,1,0,254,0
True,22135437,15999.99,0,9221.473,-0.45135546,-1.4881299,7.2904224,-0.020362854,-0.41146874,67.777756,-0.008682931,-0.039649233,-0.024679553,2.2657473,0.1038743,-0.0026456555,0.20621371,0.20070395,0.22817409,0.23174562,0.13085218,0.111312516,0.15056537,0.14033304,212.62494,212.45718,213.19556,213.19432,0,0,0,0,0,0,0,0,0,0,0,0,-0.12759998,-0.121814996,-0.0034416313,-0.001794506,0.18276775,0.16501324,0.1506047,0.14034452,-0.007370889,-0.008046754,-0.0017643794,-0.0013397522,164,6,231,2,0,-8403.836,150.70973,-785.1449,67.779,752439.44,779.38403,137.27072,135.65256,138.56354,138.56354,0,1,144.882,0,0,6.360995,6.360991,0,6,255,0,0,0,1,-70,255,0
True,22135546,15999.99,0,9338.65,-4.168708,-0.88557196,7.3193226,0.45483017,-0.352561,68.55443,0.020794297,-0.13998593,-0.0059261327,2.2506254,0.10556537,-0.006257612,0.19555429,0.21427354,0.27001515,0.28905427,0.14194056,0.12107543,0.1851429,0.1459883,214.96046,215.2729,215.9737,215.96976,0,0,0,0,0,0,0,0,0,0,0,0,-0.037841547,-0.035416678,-0.089397624,-0.08552038,0.14689828,0.12614912,0.20559628,0.16919315,-0.008678444,-0.0063822195,0.003210213,0.005473826,164,6,231,2,0,-8398.134,149.89241,-789.8544,68.55684,752457.6,769.6279,137.37321,135.78148,138.68819,138.68819,0,1,151.41457,0,0,6.4701347,6.4701304,0,6,255,0,0,0,1,0,1,0
True,22135656,15999.99,0,9434.977,-4.7719474,-0.43762577,7.0205956,0.4141655,-0.3450303,69.32991,0.008779872,-0.016935866,-0.006928199,2.2430615,0.10628913,-0.009555411,0.21206078,0.2348785,0.2719251,0.29059392,0.14699996,0.10797071,0.15617377,0.14043702,217.75923,217.20026,218.18668,218.05632,0,0,0,0,0,0,0,0,0,0,0,0,-0.05969116,-0.05542754,-0.061715692,-0.059615634,0.15865692,0.12136675,0.16792579,0.15256664,-0.0066536516,-0.0038546845,0.0034372918,0.0056568757,164,6,231,2,0,-8392.383,149.06534,-794.52515,69.33201,752477.1,761.7979,137.4431,135.87119,138.81558,138.81558,0,1,157.95872,0,0,6.578241,6.5782375,0,6,255,0,0,0,1,0,4,0
True,22135765,15999.99,0,9531.053,-2.611464,0.0086171925,6.8328643,0.11065292,-0.33269,70.091286,0.013120928,0.012551589,0.028393678,2.243338,0.10636939,-0.007877023,0.21685903,0.257541,0.2732223,0.306522,0.12819938,0.11782523,0.1381038,0.13603868,219.89157,219.6606,220.3358,220.26097,0,0,0,0,0,0,0,0,0,0,0,0,-0.021215983,-0.019336449,-0.014546113,-0.0138088325,0.12994306,0.11940135,0.13886774,0.13673773,-0.006065067,-0.0010747574,0.0035915151,0.0075506084,164,6,231,2,0,-8386.57,148.23294,-799.18475,70.092155,752471.44,754.0844,137.51273,135.95808,138.93713,138.93713,0,1,164.53767,0,0,6.685759,6.6857557,0,6,255,0,0,0,1,0,8,0
True,22135875,15999.99,0,9617.369,-0.7204354,1.6129407,7.0541778,-0.011909485,-0.33688092,70.838104,-0.036183473,0.006679716,0.018271744,2.2444522,0.104247145,-0.0045262394,0.2498863,0.28549415,0.27652884,0.30757964,0.097642735,0.104652785,0.1141434,0.114357516,221.74246,221.82932,222.29417,222.27176,0,0,0,0,0,0,0,0,0,0,0,0,-0.0009714364,0.00019076359,0.0020204152,0.0023549607,0.09764757,0.104652956,0.11416128,0.11438176,-0.0020137317,0.0023541562,0.0039846413,0.007676348,164,6,231,2,0,-8380.72,147.40121,-803.85376,70.83891,752460.25,747.33295,137.59395,136.04651,139.06342,139.06342,-3.6132307,1,171.14763,0,0,6.792615,6.7926106,0,6,255,0,0,0,1,0,12,0
True,22135984,15999.99,0,9712.76,0.21399307,1.7901211,6.7160077,-0.011375427,-0.3028512,71.564285,-0.06189728,0.0008619984,-0.0077692736,2.2448087,0.102318086,-0.0043309727,0.29967946,0.28644592,0.32969373,0.33852735,0.08314843,0.08406266,0.11576524,0.118399166,223.7627,223.76875,224.58871,224.62451,0,0,0,0,0,0,0,0,0,0,0,0,0.0014653961,0.0017852683,0.00040830384,0.0039862,0.08316134,0.08408161,0.11576596,0.11846625,0.004094217,0.002470903,0.010305554,0.011355802,164,6,231,2,0,-8374.816,146.58157,-808.56635,71.564926,752372.9,739.868,137.67543,136.13147,139.19435,139.19435,-7.354138,1,177.81616,0,0,6.8993254,6.89932,0,6,255,0,0,0,1,0,17,0
True,22136093,15999.99,0,9826.999,0.17531633,0.4579267,6.441791,-0.005302429,-0.27370238,72.27259,-0.010648068,4.2942018E-05,0.01761115,2.2448337,0.101275705,-0.0031543875,0.29313114,0.3051599,0.3270145,0.3311234,0.096159086,0.10060835,0.15169549,0.14902985,226.16785,226.24113,227.36992,227.33574,0,0,0,0,0,0,0,0,0,0,0,0,-0.00045032214,0.0005336935,-0.0015386897,0.0017503737,0.09616014,0.100609764,0.1517033,0.14904013,0.0032909587,0.004766483,0.009987015,0.010475531,164,6,231,2,0,-8368.743,145.76248,-813.4163,72.27311,752358.2,731.1634,137.74998,136.21716,139.33243,139.33243,-11.257057,1,184.67299,0,0,7.007974,7.007969,0,6,255,0,0,0,1,0,22,0
True,22136203,15999.99,0,9904.984,3.2511184,3.1399841,6.333794,0.008384705,-0.2677667,72.986496,-0.03896696,0.13757548,0.01988797,2.2492352,0.09598829,-0.0012368154,0.3479673,0.32613167,0.37198898,0.3627002,0.07580008,0.10804292,0.09984755,0.12815201,228.32379,228.25484,229.05434,228.94653,0,0,0,0,0,0,0,0,0,0,0,0,0.2295257,0.25046465,0.014790184,0.021916829,0.24171822,0.27277428,0.100937024,0.13001265,0.0100175105,0.007339012,0.015334144,0.014229778,164,6,231,2,0,-8362.504,144.94029,-818.4123,72.98699,752434.6,725.5888,137.87134,136.33116,139.48283,139.48283,-14.7,1,191.7245,0,0,7.118587,7.118582,0,6,255,0,0,0,1,60,27,0
True,22136312,15999.99,0,10003.385,7.7734566,4.244181,5.828151,-0.691967,-0.24035645,73.64347,0.02166168,0.1414801,0.024104469,2.272187,0.08947147,0.0036150932,0.39103204,0.36442417,0.4205839,0.38052496,0.103437044,0.15820687,0.095105015,0.12722144,230.88481,231.21323,231.05132,230.96754,0,0,0,0,0,0,0,0,0,0,0,0,0.064259365,0.07133103,0.09460059,0.11143815,0.12177228,0.17354402,0.13414259,0.16912645,0.015300106,0.0120362155,0.02111172,0.01634901,164,6,231,2,0,-8356.264,144.16502,-823.5196,73.64712,752560.25,718.6571,138.05447,136.48546,139.67395,139.67395,-14.7,1,198.83408,0,0,7.229062,7.2290564,0,6,255,0,0,0,1,0,30,0
True,22136437,15999.99,0,10077.724,7.5543156,4.619174,6.3161545,-0.4543991,-0.30186725,74.38815,-0.12767695,0.019818425,-0.008022524,2.2809162,0.084354155,0.0062657306,0.40964404,0.335075,0.42061794,0.35729113,0.06046192,0.074503005,0.080090605,0.08920284,232.26706,232.41946,232.94414,232.96541,0,0,0,0,0,0,0,0,0,0,0,0,0.051902723,0.05510704,0.047156174,0.058464203,0.07968398,0.092668675,0.09294197,0.10665463,0.017583173,0.008436058,0.021115765,0.013586678,164,6,231,2,0,-8349.374,143.3277,-829.29694,74.39016,752401.7,713.0924,138.20279,136.60785,139.86143,139.86143,-14.7,1,206.76215,0,0,7.3510528,7.3510466,0,6,255,0,0,0,1,0,33,0
True,22136546,15999.99,0,10175.861,3.2825985,3.3464494,5.7955256,-0.08869171,-0.24229813,75.017334,-0.06348778,-0.009548157,-0.0016061943,2.2802944,0.07968584,0.0049878596,0.3444736,0.3062675,0.37827945,0.32015076,0.07399813,0.078788474,0.112899095,0.1125546,234.35117,234.477,235.31418,235.3399,0,0,0,0,0,0,0,0,0,0,0,0,0.012907086,0.013205505,0.006009075,0.010883012,0.07511535,0.07988748,0.1130589,0.113079526,0.009588949,0.004902348,0.016082034,0.009170968,164,6,231,2,0,-8343.181,142.63458,-834.5872,75.01778,752350.3,706.139,138.30841,136.71088,140.04178,140.04178,0,1,213.93869,0,0,7.46048,7.4604745,0,6,255,0,0,0,1,0,34,0
True,22136671,15999.99,0,10271.446,1.043263,0.7821886,5.352132,0.013084412,-0.24704218,75.63487,-0.02788088,-0.005185254,-0.033618458,2.2794209,0.07809269,0.0027531565,0.30997887,0.27721918,0.36337954,0.33725008,0.08687066,0.08373928,0.13377348,0.13506697,236.50348,236.47182,237.58643,237.62753,0,0,0,0,0,0,0,0,0,0,0,0,0.00033112775,0.000614671,-0.004359516,0.00093310897,0.08687129,0.08374154,0.1338445,0.13507019,0.005357608,0.0013390929,0.01431055,0.011203945,164,6,231,2,0,-8336.957,141.96562,-839.92236,75.63528,752305.56,699.45605,138.3952,136.79974,140.18417,140.18417,-0.4798298,1,221.16084,0,0,7.5696554,7.5696497,0,6,255,0,0,0,1,0,35,0
True,22136765,15999.99,0,10330.018,-0.21591496,4.1542587,5.807383,0.0134010315,-0.26951742,76.19034,-0.02905818,0.00030898105,-0.013675325,2.2791939,0.07164895,0.0005558915,0.36428016,0.35256448,0.39810085,0.38087898,0.086097844,0.08889057,0.09911567,0.09805366,238.22707,238.27768,238.74231,238.73126,0,0,0,0,0,0,0,0,0,0,0,0,-0.0020277584,-0.00059244473,-0.0063735764,0.0023167434,0.086121716,0.08889254,0.09932038,0.09808102,0.01201855,0.01058143,0.018438652,0.016391098,164,6,231,2,0,-8331.293,141.38013,-844.77765,76.19082,752263.9,695.58685,138.49278,136.90714,140.32773,140.32773,-1.7369795,1,227.73192,0,0,7.66821,7.6682043,0,6,255,0,0,0,1,0,35,0
True,22136875,15999.99,0,10421.143,0.5511844,-0.28466302,6.085102,0.017787933,-0.2750423,76.81503,-0.06468053,0.05207566,0.009510843,2.2803962,0.073096015,-0.0010767841,0.29880866,0.29065785,0.30540234,0.29040775,0.073695086,0.07760173,0.11396806,0.122754164,240.07321,239.91524,241.05945,241.01535,0,0,0,0,0,0,0,0,0,0,0,0,0.085105404,0.086075544,0.004148548,0.0046382025,0.1125784,0.11589231,0.11404354,0.12284176,0.003987398,0.0029875673,0.007417485,0.00563474,164,6,231,2,0,-8324.704,140.71854,-850.4268,76.81553,752182.94,689.24615,138.57417,136.9961,140.46002,140.46002,-3.6409807,1,235.37227,0,0,7.7819915,7.7819867,0,6,255,0,0,0,1,22,37,0
True,22136984,15999.99,0,10519.056,5.4675927,0.6428164,4.9939523,-0.57699585,-0.2510326,77.38644,-0.008087151,0.17732318,0.027190834,2.2965558,0.07052885,0.004148316,0.3405352,0.33065334,0.39007685,0.37910953,0.07506947,0.09789924,0.12960117,0.17617379,242.19785,241.74864,243.45544,243.44713,0,0,0,0,0,0,0,0,0,0,0,0,0.03593143,0.038633484,0.08950672,0.103813455,0.083225556,0.10524642,0.15750529,0.20448579,0.009105843,0.00789367,0.017484661,0.016180724,164,6,231,2,0,-8318.304,140.08981,-855.97345,77.38899,752353.3,683.0521,138.71738,137.12468,140.62512,140.62512,0,1,242.8294,0,0,7.8921304,7.8921256,0,6,255,0,0,0,1,0,37,0
True,22137093,15999.99,0,10600.045,6.049818,0.10373917,5.435535,-0.50569916,-0.24844241,77.97352,0.028782371,0.011345021,-0.0027539479,2.305454,0.069394216,0.006066177,0.31235546,0.269771,0.36302373,0.3204873,0.10161395,0.10914881,0.13849762,0.15544517,244.07013,244.1425,245.0765,245.28284,0,0,0,0,0,0,0,0,0,0,0,0,0.06253339,0.06462906,0.06155694,0.06915392,0.119313955,0.12684785,0.15156136,0.17013367,0.0056491345,0.00042545423,0.014268242,0.009210974,164,6,231,2,0,-8311.807,139.46089,-861.71515,77.975555,752446.44,677.9767,138.82904,137.21895,140.80592,140.80592,0,1,250.46165,0,0,8.004018,8.004014,0,6,255,0,0,0,1,0,36,0
True,22137218,15999.99,0,10654.847,3.6956491,2.6715791,5.058026,-0.11248398,-0.28217292,78.58414,-0.025796574,-0.011174155,-0.022332009,2.3053544,0.06495369,0.0063625127,0.28895047,0.25868756,0.33417258,0.31575924,0.08063445,0.091986865,0.1009793,0.10221495,245.5718,245.83086,246.24358,246.2907,0,0,0,0,0,0,0,0,0,0,0,0,0.01642915,0.01781756,0.010801619,0.013412601,0.08229114,0.09369658,0.10155538,0.10309119,0.0027781278,-0.0009341128,0.010838058,0.008648843,164,6,231,2,0,-8305.185,138.82887,-867.6552,78.58472,752438.5,674.52576,138.94742,137.32988,140.96753,140.96753,0,1,258.29208,0,0,8.117926,8.117922,0,6,255,0,0,0,1,0,34,0
True,22137312,15999.99,0,10760.441,1.1259445,-1.5295908,4.812626,0.050201416,-0.32258654,79.17521,6.640982E-05,-0.008418292,-0.014599881,2.3040378,0.06686739,0.0038778295,0.18963844,0.1776101,0.2439734,0.22931027,0.10053175,0.09892538,0.1447967,0.14437042,247.79715,247.79651,248.8828,248.8999,0,0,0,0,0,0,0,0,0,0,0,0,-0.0052702785,-0.0047160424,-0.007528865,-0.006354822,0.1006698,0.09903773,0.1449923,0.14451021,-0.009404119,-0.010879593,0.00011404231,-0.0016292967,164,6,231,2,0,-8298.436,138.19847,-873.74036,79.17587,752295.75,667.6516,139.02066,137.41003,141.10052,141.10052,0,1,266.47235,0,0,8.233405,8.233402,0,6,255,0,0,0,1,0,32,0
True,22137421,15999.99,0,10816.922,-0.23349023,0.6108705,5.625661,0.06922531,-0.3781848,79.75517,-0.02184312,-0.0010135011,-0.02250879,2.3035908,0.064975135,0.0021696067,0.24304155,0.22641794,0.275984,0.26815996,0.08406119,0.08295105,0.110943265,0.11059259,249.30988,249.2869,250.09492,250.08333,0,0,0,0,0,0,0,0,0,0,0,0,-0.008544979,-0.0076769404,-0.008054275,-0.007740687,0.08449438,0.08330553,0.111235246,0.11086316,-0.0028533526,-0.0048925094,0.003919862,0.0029896423,164,6,231,2,0,-8292.014,137.58772,-879.5313,79.756096,752352.6,664.2793,139.10822,137.50433,141.23312,141.23312,0,1,276.14352,0,0,8.342478,8.342475,0,6,255,0,0,0,1,0,29,0
True,22137531,15999.99,0,10918.143,0.17954445,-0.7627318,4.7936373,0.06891632,-0.3236494,80.29753,0.049281925,0.0099005755,0.0057365634,2.3036244,0.06607201,0.0005646832,0.31883684,0.28827837,0.3350291,0.30999804,0.13306944,0.11882651,0.13888973,0.14479078,251.93079,251.63567,252.30292,252.39139,0,0,0,0,0,0,0,0,0,0,0,0,0.14985988,0.15147793,-0.008483048,-0.005922097,0.20041321,0.19252352,0.13914855,0.14491184,0.0064441822,0.002695687,0.010939889,0.007963881,164,6,231,2,0,-8285.615,136.99174,-885.2985,80.29821,752442.3,658.27423,139.18103,137.58759,141.36577,141.36577,-0.46552277,1,283.72424,0,0,8.450357,8.450353,0,6,255,0,0,0,1,17,27,0
True,22137656,15999.99,0,10970.651,8.516523,2.4035687,4.8323298,-0.15682983,-0.26101828,80.83464,-0.0015176646,0.2687156,0.034933567,2.3189342,0.06355835,0.005386369,0.4179505,0.3736249,0.44035015,0.40050444,0.08704254,0.17798957,0.07894548,0.12477933,253.17375,253.71428,253.44771,253.18721,0,0,0,0,0,0,0,0,0,0,0,0,0.4762576,0.55223453,0.039088726,0.058070548,0.48414636,0.5802097,0.08809266,0.1376302,0.0186021,0.013164833,0.023461781,0.01872442,164,6,231,2,0,-8279.172,136.38884,-891.1706,80.83521,752491.94,655.19855,139.40979,137.76825,141.5177,141.5177,0,1,291.39407,0,0,8.558793,8.558788,0,6,255,0,0,0,1,127,24,0
True,22137765,15999.99,0,11079.229,15.8337965,-0.19162828,4.4486012,-1.9464493,-0.19686937,81.25816,0.016088665,0.4923915,0.07250025,2.362802,0.06484627,0.014150169,0.37259844,0.30902815,0.41147932,0.33642507,0.10021975,0.3020536,0.097388655,0.20542225,255.25659,256.94012,255.81401,255.67714,0,0,0,0,0,0,0,0,0,0,0,0,0.5561814,0.6704042,0.26037058,0.30715096,0.56513864,0.7353082,0.2779881,0.3695132,0.013038922,0.0052409843,0.020029258,0.0111058615,164,6,231,2,0,-8272.732,135.79256,-897.2472,81.28171,752509.06,648.7808,139.81062,138.0764,141.71887,141.71887,0,1,299.18155,0,0,8.668266,8.668262,0,6,255,0,0,0,1,5,19,0
True,22137859,15999.99,0,11120.942,21.964973,0.4925943,5.503276,-2.934185,-0.20929253,81.71809,-0.02883475,0.2522739,0.063947,2.4050496,0.063528724,0.023168294,0.34734988,0.23550358,0.37161988,0.2635513,0.06756139,0.1851018,0.09983281,0.18819322,255.81232,256.9607,256.8898,257.2585,0,0,0,0,0,0,0,0,0,0,0,0,0.27660003,0.33679497,0.32458565,0.397803,0.28473166,0.38430917,0.33959156,0.44007263,0.009941775,-0.0037780069,0.01529026,0.0024417043,164,6,231,2,0,-8266.367,135.18274,-903.5745,81.77101,752342.7,646.10614,140.1044,138.2561,142.08713,142.08713,0,1,307.06516,0,0,8.778598,8.778594,0,6,255,0,0,0,1,0,9,0
True,22137984,15999.99,0,11195.542,18.779892,-0.8674351,4.76974,-1.5691757,-0.25632918,82.29503,0.016278245,-0.016804472,0.017359776,2.4175296,0.06296389,0.025737973,0.27052495,0.16840068,0.3529177,0.19011323,0.091549955,0.1270774,0.13873734,0.17700948,257.3644,258.103,258.6942,259.30603,0,0,0,0,0,0,0,0,0,0,0,0,0.18702647,0.19834322,0.174615,0.19925806,0.20823134,0.23556039,0.22302118,0.26652604,0.0005179383,-0.012009278,0.013066713,-0.0062895343,164,6,231,2,0,-8259.484,134.51973,-910.88074,82.31038,752336.8,641.7518,140.37262,138.40775,142.48303,142.48303,0,1,315.86157,0,0,8.901224,8.901219,0,6,255,0,0,0,1,0,248,0
True,22138093,15999.99,0,11230.489,3.5547016,0.8353715,4.191034,-0.50253296,-0.36321974,82.81816,-0.075042814,-0.22491086,-0.16129988,2.40643,0.06066201,0.016632091,0.29446262,0.20355704,0.2994242,0.19432633,0.0870497,0.058656305,0.13303107,0.0945014,258.38593,258.86722,259.6609,259.86075,0,0,0,0,0,0,0,0,0,0,0,0,-0.30530816,-0.27434134,0.033310097,0.033226684,0.31747556,0.28054187,0.137138,0.10017248,0.0034542866,-0.007696774,0.0067067333,-0.005788628,164,6,231,2,0,-8253.656,133.94676,-917.2689,82.82048,752352.5,639.81696,140.51285,138.53246,142.65523,142.65523,0,1,323.42776,0,0,9.006173,9.006166,0,6,255,0,0,0,1,-127,231,0
True,22138203,15999.99,0,11277.104,-14.551171,7.0157294,3.7149467,0.71492004,-0.27168393,83.190384,-0.076606005,-0.47823405,-0.123523936,2.3694484,0.051267598,-0.0013866671,0.41884008,0.444997,0.4431281,0.45173422,0.122523166,0.056043737,0.14023003,0.05965057,259.4852,260.37607,260.4688,260.95984,0,0,0,0,0,0,0,0,0,0,0,0,-0.5614206,-0.4683377,-0.15037563,-0.10926145,0.57463473,0.47167903,0.20561442,0.12448396,0.01871122,0.021919794,0.023792058,0.024815261,164,6,231,2,0,-8247.775,133.43192,-923.5634,83.19389,752374.44,637.1851,140.81747,138.97617,142.81879,142.81879,0,1,330.9942,0,0,9.110115,9.110109,0,6,255,0,0,0,1,-15,218,0
True,22138296,15999.99,0,11332.005,-20.289104,6.982608,4.688062,2.180355,-0.11358786,83.54413,-0.053082794,-0.3029564,-0.055925258,2.3258083,0.04319878,-0.011132427,0.42397666,0.50789917,0.46235028,0.5466582,0.09685976,0.052296784,0.1478246,0.0765743,260.7219,261.28812,262.07935,262.0945,0,0,0,0,0,0,0,0,0,0,0,0,-0.20372857,-0.1765407,-0.30467734,-0.22758117,0.22558178,0.1841238,0.33864495,0.24011834,0.019341305,0.029635772,0.026077434,0.03610102,164,6,231,2,0,-8241.721,133.0087,-929.7241,83.572655,752359.7,634.0807,140.99826,139.28088,143.05272,143.05272,0,1,338.57474,0,0,9.2138195,9.213814,0,6,255,0,0,0,1,0,208,0
True,22138421,15999.99,0,11379.482,-19.379562,6.0798073,4.0396953,1.262783,-0.13099205,84.002266,-0.062274165,-0.02749503,0.024757352,2.3072796,0.03379822,-0.01636133,0.3500712,0.48886028,0.37289056,0.51024264,0.080194674,0.05455205,0.10546906,0.08244016,262.438,262.0826,263.20087,262.99414,0,0,0,0,0,0,0,0,0,0,0,0,-0.14308283,-0.12905143,-0.15027836,-0.11452121,0.16402403,0.14010781,0.18359551,0.14110808,0.010275587,0.027300343,0.015441336,0.03177148,164,6,231,2,0,-8234.458,132.60558,-936.6944,84.01186,752326.1,631.3872,141.1614,139.58923,143.30188,143.30188,-0.9371271,1,347.45062,0,0,9.334058,9.334052,0,6,255,0,0,0,1,0,204,0
True,22138515,15999.99,0,11448.244,-8.772079,2.501539,3.6758091,0.3079338,-0.17465949,84.405495,0.0068349782,0.036409095,0.051916555,2.3089662,0.030051105,-0.011415089,0.30800387,0.4155241,0.33534625,0.45922437,0.082589746,0.077168375,0.12046502,0.11675992,263.83936,263.5595,264.84048,264.69147,0,0,0,0,0,0,0,0,0,0,0,0,-0.044255827,-0.042649742,-0.0348708,-0.019996086,0.09369975,0.08817005,0.1254105,0.11845979,0.0051153414,0.01830446,0.010977596,0.025705785,164,6,231,2,0,-8227.995,132.31642,-942.6578,84.406235,752382.9,627.6423,141.26006,139.73706,143.45459,143.45459,-4.809862,1,355.1764,0,0,9.438532,9.438528,0,6,255,0,0,0,1,0,204,0
True,22138640,15999.99,0,11486.073,-1.8643727,6.755756,3.9632673,-0.010082245,-0.21811938,84.855545,-0.031174703,0.009064629,0.044549532,2.311428,0.020547023,-0.005879942,0.4013458,0.447344,0.4257231,0.46842995,0.07268891,0.06930445,0.078485176,0.080632076,265.0014,264.89178,265.43872,265.43668,0,0,0,0,0,0,0,0,0,0,0,0,-0.0024584376,-0.0011879522,-0.006538833,0.01253356,0.07273047,0.06931464,0.07875709,0.08160038,0.016565256,0.022207692,0.021722734,0.02680026,164,6,231,2,0,-8220.828,132.04153,-949.2121,84.85581,752399,625.63495,141.3962,139.88928,143.63423,143.63423,-10.0565815,1,363.73047,0,0,9.553324,9.553321,0,6,255,0,0,0,1,0,206,0
True,22138750,15999.99,0,11537.458,-0.23451841,3.8376677,4.066607,-0.015270233,-0.22864008,85.2509,-0.1073093,0.0004773176,0.023536611,2.3117943,0.01718207,-0.0026829173,0.3672134,0.39240232,0.35096276,0.37077683,0.055074103,0.05383039,0.08114066,0.08149177,265.9304,265.90436,266.73743,266.74487,0,0,0,0,0,0,0,0,0,0,0,0,0.0012441932,0.0003920206,-0.0010222951,0.0037500237,0.055088155,0.053831816,0.0811471,0.081578,0.012378361,0.015468195,0.012834284,0.015190031,164,6,231,2,0,-8214.388,131.84831,-955.10034,85.251205,752287.94,622.6895,141.49109,139.98917,143.76654,143.76654,-14.7,1,371.39417,0,0,9.655946,9.655943,0,6,255,0,0,0,1,0,208,0
True,22138859,15999.99,0,11621.892,0.11458206,1.0817312,3.6324348,0.0018959045,-0.21332008,85.644646,-0.038113985,-0.0018712213,0.0101777045,2.3116744,0.014532872,6.685965E-06,0.3260468,0.34522152,0.35658324,0.37635207,0.07023531,0.07128334,0.13118155,0.13419917,267.4614,267.48523,268.8756,268.93274,0,0,0,0,0,0,0,0,0,0,0,0,-0.00016152667,-0.00017943655,-0.003723032,0.0030319435,0.0702355,0.071283564,0.13123438,0.13423342,0.0073285997,0.009680696,0.01350252,0.015852883,164,6,231,2,0,-8207.606,131.69284,-961.3027,85.64491,752178.56,617.95074,141.57973,140.08493,143.9208,143.9208,-14.7,1,379.46405,0,0,9.763506,9.763504,0,6,255,0,0,0,1,0,210,0
True,22138968,15999.99,0,11669.103,-0.30690157,2.5548277,4.160102,0.0077323914,-0.23125139,86.07744,-0.00328976,-0.0003944696,0.014484751,2.3115451,0.009766696,0.0002734437,0.34356716,0.34605658,0.37707213,0.3661625,0.0773426,0.07581966,0.11106695,0.10997608,268.86862,268.85352,269.842,269.82523,0,0,0,0,0,0,0,0,0,0,0,0,-0.0017911033,-0.00080815493,-0.0050189267,0.0017981718,0.077363335,0.07582397,0.11118029,0.10999078,0.009477761,0.00978313,0.01593849,0.014641419,164,6,231,2,0,-8200.641,131.56042,-967.67444,86.07774,752400.94,615.8047,141.67863,140.19522,144.07707,144.07707,-14.7,1,387.76797,0,0,9.873451,9.87345,0,6,255,0,0,0,1,0,213,0
True,22139093,15999.99,0,11720.7,0.31531036,4.4559855,3.496292,0.0039138794,-0.2257621,86.55835,-0.036656573,-0.00010451757,-0.015913766,2.311514,0.0035480524,0.0004745345,0.38766137,0.3735252,0.3926737,0.39612994,0.06465091,0.067593604,0.09129756,0.09103226,270.1352,270.193,270.9668,270.96323,0,0,0,0,0,0,0,0,0,0,0,0,-0.00025715743,0.00044355422,-0.004808034,0.005218836,0.06465142,0.06759506,0.09142407,0.09118173,0.01488664,0.013152607,0.017793402,0.018204324,164,6,231,2,0,-8192.88,131.45993,-974.77234,86.55864,752361.06,613.0614,141.80038,140.32143,144.2432,144.2432,-14.7,1,397.0014,0,0,9.995289,9.995286,0,6,255,0,0,0,1,0,217,0
True,22139203,15999.99,0,11807.795,-0.062723756,0.68829924,3.6281157,0.0027542114,-0.22582328,86.94658,0.03620785,-0.0003943292,0.020839814,2.311481,0.0024217528,0.00079898984,0.2860756,0.2890962,0.33471277,0.3448792,0.10041598,0.09811176,0.13592997,0.13498399,272.02988,272.00467,273.06934,273.0547,0,0,0,0,0,0,0,0,0,0,0,0,-0.0015756002,-0.00040140867,-0.0029789358,0.0013271236,0.10042835,0.09811258,0.1359626,0.13499051,0.002425477,0.0027960055,0.010902282,0.012110993,164,6,231,2,0,-8186.0454,131.41763,-981.02216,86.94686,752415,608.5772,141.87117,140.40697,144.37854,144.37854,-14.7,1,405.14102,0,0,10.102033,10.10203,0,6,255,0,0,0,1,0,221,0
True,22139281,15999.99,0,11821.358,-0.3905803,1.9319457,4.285808,-0.00044250488,-0.29746008,87.311676,-0.042087726,-0.0003843474,0.0006419495,2.311431,-0.00023713804,0.0018634908,0.3031655,0.316119,0.30511087,0.32251254,0.06739355,0.07050077,0.08721766,0.08663738,272.54297,272.60846,273.2464,273.2389,0,0,0,0,0,0,0,0,0,0,0,0,-0.000192036,0.0004782799,-0.00028957144,0.0010257207,0.06739382,0.070502385,0.087218136,0.08664345,0.0045218356,0.006110791,0.0073828325,0.009451766,164,6,231,2,0,-8180.1753,131.37987,-986.389,87.31218,752337.7,607.8049,141.94916,140.48972,144.47849,144.47849,-14.7,1,412.1228,0,0,10.193307,10.193305,0,6,255,0,0,0,1,0,225,0
True,22139406,15999.99,0,11697.643,0.13771725,2.4482906,2.2966692,-0.0005531311,-0.26672247,87.559265,0.002950849,-0.00044374078,0.02917855,2.311371,-0.0028597144,0.0025650843,0.3372441,0.35785803,0.36595652,0.38249025,-0.13456337,-0.13219313,0.008058552,0.008005794,267.68628,267.73212,271.47128,271.47302,0,0,0,0,0,0,0,0,0,0,0,0,-0.0015117632,-0.00012591944,-0.0037808819,0.002912045,0.13457187,0.1321932,0.008901423,0.008518964,0.008702133,0.0112307705,0.014616933,0.016582672,164,6,231,2,0,-8173.2944,131.36469,-992.6798,87.55967,751400.1,612.8851,142.02904,140.5835,144.61496,144.61496,-14.7,1,420.31082,0,0,10.299862,10.299858,0,6,255,104,0,0,1,0,229,204
True,22139515,15999.99,0,11193.784,0.027561188,0.665596,-21.103306,-0.0034866333,0.24219468,84.92508,0.019817788,-0.0007517756,0.029259639,2.3113067,0.0030956191,0.0053136908,0.37124196,0.41551206,0.2848604,0.29145774,-0.25799197,-0.23770738,-0.12777372,-0.13267285,255.9421,256.33105,259.84244,259.76035,0,0,0,0,0,0,0,0,0,0,0,0,0.000582937,-0.0013746262,0.0003124138,-0.001407555,0.25799263,0.23771136,0.12777409,0.13268031,0.012872528,0.01830298,0.0049752034,0.005759578,164,6,231,2,0,-8166.342,131.35739,-999.0348,84.92542,748506.56,638.1697,142.24591,140.8115,144.70015,144.70015,-14.7,1,428.57864,0,0,10.408964,10.408961,0,6,254,255,0,0,1,0,234,129
True,22139640,15999.99,0,11283.658,-0.19985199,0.28420904,-10.406557,-0.005088806,0.39063781,83.29886,-0.036039017,-0.0018659593,0.006483446,2.3111458,0.0030001637,0.01024764,0.40874612,0.4365276,0.2994246,0.33822203,0.053238887,0.06041949,0.10482937,0.104687475,259.63986,259.7875,261.06573,261.06396,0,0,0,0,0,0,0,0,0,0,0,0,0.0016128641,-0.00020917815,0.0006476441,0.0011114585,0.053263314,0.06041985,0.10483137,0.10469337,0.01747303,0.020880885,0.006706778,0.011319507,164,6,231,2,0,-8158.758,131.3758,-1005.9641,83.299774,752693.1,637.27905,142.42686,140.99861,144.78247,144.78247,-14.7,1,437.59546,0,0,10.531669,10.531664,0,6,255,0,0,0,1,0,239,0
True,22139750,15999.99,0,11350.67,-0.2590531,1.1060665,1.7650177,-0.004207611,-0.056639373,83.730576,-0.03519102,-0.0012665794,0.026292555,2.3108845,-0.0038257774,0.01229606,0.37024122,0.39914215,0.35320038,0.3712177,0.078035735,0.088086955,0.1045125,0.10106914,261.58444,261.791,262.40646,262.35727,0,0,0,0,0,0,0,0,0,0,0,0,-0.00030558178,-1.8290408E-05,-0.002753705,0.002253808,0.07803634,0.088086955,0.10454877,0.10109426,0.0127497725,0.016294945,0.013100319,0.015242446,164,6,231,2,0,-8152.051,131.39641,-1012.0902,83.73059,752355.6,633.03516,142.49435,141.0786,144.90059,144.90059,-14.7,1,445.57,0,0,10.640431,10.640428,0,6,255,0,0,0,1,0,244,0
True,22139859,15999.99,0,11431.607,0.030125499,-1.6133747,3.1579514,-0.0036315918,-0.19834363,84.13983,0.017995914,-0.0018648233,0.015411185,2.3107116,-0.0038259954,0.013719663,0.30378664,0.3173179,0.3375045,0.35141847,0.09218756,0.09963172,0.14511774,0.1428663,263.14157,263.2902,264.44965,264.4213,0,0,0,0,0,0,0,0,0,0,0,0,-0.00027483163,0.00070075865,-0.0024345224,0.00226399,0.09218797,0.09963418,0.14513816,0.14288424,0.004598029,0.006257858,0.011234194,0.012888461,164,6,231,2,0,-8145.2656,131.42444,-1018.2855,84.14006,752315.8,628.4525,142.55211,141.14185,145.01448,145.01448,-14.7,1,453.6344,0,0,10.749891,10.749888,0,6,255,0,0,0,1,0,249,0
True,22139953,15999.99,0,11458.716,-0.05746782,1.1602747,3.5608163,-0.0074424744,-0.28993553,84.55851,-0.046127286,0.00023976006,-0.0006286297,2.3105083,-0.006438988,0.015747279,0.35706902,0.39095977,0.36267594,0.36601913,0.05807556,0.10435551,0.0989954,0.09189665,263.78128,264.86566,264.8802,264.72214,0,0,0,0,0,0,0,0,0,0,0,0,0.00037278116,0.0029697418,-0.0026488372,0.0033838453,0.058076754,0.10439776,0.09903084,0.09195893,0.011133984,0.01529124,0.014226891,0.014624376,164,6,231,2,0,-8138.483,131.4409,-1024.4763,84.559006,752432.9,627.2112,142.62941,141.23674,145.13565,145.13565,-14.7,1,461.6947,0,0,10.858747,10.858744,0,6,255,0,0,0,1,0,254,0
True,22140078,15999.99,0,11520.051,-0.16239011,0.19458671,3.6737795,-0.0011558533,-0.24343944,84.98702,-0.004039732,-0.0014711837,0.013036625,2.310245,-0.0068560997,0.018127203,0.35517356,0.36629814,0.3772998,0.38063163,0.08218037,0.08985346,0.10315974,0.10057681,265.58566,265.75345,266.26932,266.24213,0,0,0,0,0,0,0,0,0,0,0,0,-0.00074583234,0.00076734845,-0.004035043,0.0031914087,0.082183756,0.08985673,0.10323863,0.10062743,0.010901477,0.012266088,0.015965559,0.016361691,164,6,231,2,0,-8131.0293,131.48267,-1031.276,84.98737,752319.4,623.69666,142.71548,141.30774,145.2649,145.2649,-14.7,1,470.54944,0,0,10.977753,10.977751,0,6,255,0,0,0,1,0,4,0
True,22140171,15999.99,0,11603.968,-0.14445639,-4.9101906,3.7988434,0.0060272217,-0.2701332,85.34464,0.0057680965,-0.00043829516,0.017511135,2.310187,-0.00043718886,0.019632876,0.4369678,0.4321398,0.40265563,0.3974138,0.089481845,0.091746114,0.16147159,0.16258943,266.8744,266.9242,268.57852,268.5751,0,0,0,0,0,0,0,0,0,0,0,0,-0.0018208347,8.5877145E-05,-0.00706403,0.005285478,0.089500375,0.09174615,0.16162603,0.16267532,0.02093488,0.020342648,0.018980186,0.018356964,164,6,231,2,0,-8124.57,131.48956,-1037.1681,85.34507,751980.94,618.62195,142.75732,141.35349,145.3514,145.3514,-14.7,1,478.22272,0,0,11.080437,11.080435,0,6,255,0,0,0,1,0,9,0
True,22140281,15999.99,0,11604.027,-0.14883113,3.787288,4.0171742,0.006702423,-0.16006649,85.740944,-0.031317685,0.0039883675,-0.013902878,2.310257,-0.005674834,0.0201289,0.6042084,0.5732105,0.6153176,0.5899849,0.0622014,0.06280091,0.08202912,0.083030835,267.5411,267.53397,268.2324,268.23508,0,0,0,0,0,0,0,0,0,0,0,0,-0.0015542278,0.00074274995,-0.036988776,0.033705235,0.062220816,0.062805295,0.08998303,0.08961117,0.04144968,0.037647277,0.044264115,0.04125224,164,6,231,2,0,-8118.1113,131.49197,-1043.0599,85.74109,752331.44,619.1859,142.86836,141.46487,145.49922,145.49922,-14.7,1,485.89517,0,0,11.182611,11.1826105,0,6,255,0,0,0,1,0,13,0
True,22140406,15999.99,0,11733.887,-0.07073367,-2.0984015,3.391921,-0.023101807,-0.082365036,86.113686,0.055869147,0.0035573803,-0.006385535,2.3108819,-0.003211717,0.019616816,0.38026696,0.3649621,0.44043186,0.42610487,0.12359212,0.13127623,0.18407835,0.18597783,269.92563,270.05438,271.51334,271.5435,0,0,0,0,0,0,0,0,0,0,0,0,0.0019400481,0.003416913,-0.007592306,0.015130323,0.123607345,0.1313207,0.18423484,0.18659228,0.013979595,0.012102202,0.023471497,0.021768123,164,6,231,2,0,-8110.6255,131.54115,-1049.8906,86.11372,752416.94,612.42645,142.93326,141.53828,145.63324,145.63324,0,1,494.79044,0,0,11.300534,11.300533,0,6,255,0,0,0,1,0,19,0
True,22140515,15999.99,0,11761.407,0.09610987,-1.3502135,3.609355,-0.015556335,-0.2550034,86.54062,0.07477398,0.002507074,1.2591481E-06,2.3112547,-0.003775335,0.019827137,0.28980824,0.28117004,0.33690867,0.32600552,0.12960143,0.15163659,0.12755199,0.12766515,271.3573,271.811,271.65445,271.63672,0,0,0,0,0,0,0,0,0,0,0,0,0.00037844403,0.0025397954,0.00012580836,0.0035440656,0.12960199,0.15165785,0.12755205,0.12771432,0.0028833486,0.0018237308,0.011163354,0.00986705,164,6,231,2,0,-8103.0913,131.5587,-1056.7717,86.54099,752549.94,611.1802,143.00493,141.61761,145.75726,145.75726,0,1,503.74634,0,0,11.418697,11.418697,0,6,255,0,0,0,1,0,24,0
True,22140625,15999.99,0,11772.065,0.20624721,-0.0724915,3.5375056,-0.01644516,-0.35692984,86.91356,-0.022326224,-0.00027895623,-0.012663759,2.311399,-0.003734389,0.018257516,0.32024544,0.2939864,0.32010308,0.29782885,0.09564321,0.08542514,0.081442684,0.082914606,271.94238,271.7107,271.8823,271.90515,0,0,0,0,0,0,0,0,0,0,0,0,0.0015515249,0.0032537808,0.0012275229,0.0017721683,0.09565579,0.08548708,0.08145193,0.08293354,0.0066169724,0.0033958703,0.0091652945,0.0065170527,164,6,231,2,0,-8096.5938,131.5501,-1062.7095,86.9143,752414.75,610.4611,143.07617,141.6931,145.84955,145.84955,0,1,511.47455,0,0,11.520182,11.520182,0,6,255,0,0,0,1,0,28,0
True,22140734,15999.99,0,11825.413,-0.090782404,-1.9100755,3.8642,-0.0073547363,-0.33488977,87.319374,-0.03487388,-0.0017844206,-0.017703108,2.3113368,0.00082473265,0.017083654,0.26841983,0.26455238,0.28128514,0.28832993,0.08029853,0.07478848,0.08990098,0.08478191,272.83383,272.73975,273.28983,273.25555,0,0,0,0,0,0,0,0,0,0,0,0,0.0014155633,0.0020895316,0.0013909962,0.00064953684,0.080311,0.074817665,0.089911744,0.084784396,0.0002597086,-0.00021469593,0.004550133,0.005387705,164,6,231,2,0,-8089.0806,131.51566,-1069.577,87.320015,752245.9,607.4661,143.16534,141.78342,145.95654,145.95654,0,1,520.4093,0,0,11.637053,11.637052,0,6,255,0,0,0,1,0,33,0
True,22140843,15999.99,0,11940.135,0.03150618,-2.5315526,2.8219266,-0.007946014,-0.33669358,87.578835,0.12236063,-0.00087581715,0.033097208,2.3112445,0.0029959355,0.017962925,0.22507125,0.25343853,0.3083644,0.32698518,0.20013976,0.22328313,0.14998734,0.15150072,276.1478,276.678,275.37158,275.41638,0,0,0,0,0,0,0,0,0,0,0,0,-0.0016336195,0.0013704426,-0.0011540304,0.001168006,0.20014642,0.22328733,0.14999178,0.15150522,-0.0050577037,-0.001577992,0.0077696517,0.009983525,164,6,231,2,0,-8083.315,131.47867,-1074.8466,87.579475,752764.5,602.3858,143.19556,141.83356,146.09254,146.09254,0,1,527.2654,0,0,11.726358,11.726358,0,6,255,0,0,0,1,0,36,0
True,22140968,15999.99,0,11983.263,-0.23705864,-4.9849787,3.6161876,-0.020298004,-0.36802036,88.0531,0.06625793,-0.00065855536,0.00879648,2.3113277,0.010522779,0.019636307,0.18913227,0.20623632,0.25344527,0.272534,0.12507729,0.118854836,0.16572572,0.16554923,276.01715,275.9011,277.18054,277.16776,0,0,0,0,0,0,0,0,0,0,0,0,0.0014087885,0.002967097,0.0015313275,0.0020419199,0.12508523,0.118891865,0.1657328,0.16556183,-0.0094662085,-0.0073681176,0.0012401752,0.0035096854,164,6,231,2,0,-8075.151,131.3555,-1082.3071,88.05387,752399.75,599.6548,143.24416,141.89088,146.18176,146.18176,0,1,536.97784,0,0,11.852292,11.852292,0,6,255,0,0,0,1,0,41,0
True,22141062,15999.99,0,10692.685,-0.34366894,-6.9152236,-6.761904,-0.03169632,-0.22066295,87.31533,0.16717461,0.0025850616,0.023562558,2.3115017,0.019428274,0.021119744,0.1726419,0.20566319,0.21211666,0.23338531,-1.9464705,-1.7594907,-0.45291153,-0.45201802,222.21959,226.17049,259.2085,259.28122,0,0,0,0,0,0,0,0,0,0,0,0,0.0015310206,0.0035550743,0.002309683,0.0040086634,1.9464711,1.7594943,0.45291743,0.45203578,-0.0114890225,-0.0074384212,-0.0036734901,-0.0011448041,164,6,231,2,0,-8069.1597,131.21146,-1087.7816,87.315605,474793.47,421.87354,143.36441,141.99867,146.2233,146.2233,0,1,544.1035,0,0,11.944671,11.944672,0,5,174,255,0,0,1,0,44,129
True,22141187,15999.99,0,11138.207,-0.016503334,-2.8495364,-24.91423,-0.08493042,0.60361266,83.84462,0.120836906,0.0007660425,0.00036650896,2.3126297,0.03415441,0.023361027,0.34492946,0.37200084,0.19838706,0.20120604,-0.22009355,-0.2000167,-0.051024374,-0.058291227,254.45901,255.0079,258.62292,258.54208,0,0,0,0,0,0,0,0,0,0,0,0,0.010999003,0.00983022,0.010096995,0.011462925,0.22036822,0.20025812,0.052013807,0.059407625,0.00964487,0.01296562,-0.005305838,-0.004970681,164,6,231,2,0,-8061.2344,130.93744,-1095.0247,83.846825,752105.25,644.6811,146.4637,144.21442,146.47705,146.47705,0,1,553.5391,0,0,12.070271,12.070273,0,5,255,117,0,0,1,0,48,198
True,22141296,15999.99,0,11432.241,0.47300473,-4.263719,-1.1662371,-0.076725006,-0.030164793,84.09035,-0.028432243,-0.00017322917,0.015593464,2.312777,0.034004875,0.02607952,0.23671204,0.27039942,0.17663202,0.2084151,0.13254525,0.16995288,0.121974364,0.119264506,263.8455,264.64597,263.92624,263.87592,0,0,0,0,0,0,0,0,0,0,0,0,0.008967186,0.009619895,0.005579734,0.008936979,0.13284823,0.17022492,0.12210192,0.11959888,-0.0036297701,0.00050253794,-0.007892352,-0.0041135773,164,6,231,2,0,-8054.286,130.63844,-1101.3802,84.090385,752439.9,628.66425,146.34238,144.16008,146.50812,146.50812,0,1,561.8103,0,0,12.182606,12.182609,0,5,255,0,0,0,1,0,51,0
True,22141406,15999.99,0,11471.79,-0.27377343,-3.225496,3.846972,-0.04352188,-0.35201925,84.58338,-0.008049837,-0.015514477,0.018088873,2.3123047,0.034555953,0.026356963,0.18571949,0.20917639,0.23743288,0.2609425,0.09033019,0.08101555,0.11703058,0.11548997,264.43637,264.31506,265.22238,265.25397,0,0,0,0,0,0,0,0,0,0,0,0,-0.043659475,-0.04213726,0.0017752443,0.0025783726,0.10032793,0.091318496,0.11704405,0.11551874,-0.009884842,-0.0070074685,-0.0006635785,0.0021315403,164,6,231,2,0,-8047.4717,130.29651,-1107.6176,84.58413,711230.5,592.0542,146.24152,144.1189,146.59326,146.59326,0,1,569.93176,0,0,12.292209,12.2922125,0,5,243,0,0,0,1,-23,54,0
True,22141515,15999.99,0,11462.894,-7.8263855,0.062461074,2.4349232,0.26324844,-0.35630393,84.87863,-0.033795867,-0.25841805,-0.055637475,2.298011,0.033947535,0.025526911,0.2073249,0.2821981,0.2092251,0.2588196,0.06831146,0.036591247,0.092761196,0.048043653,263.99606,264.54288,264.87207,265.08603,0,0,0,0,0,0,0,0,0,0,0,0,-0.4510565,-0.39270136,-0.06548397,-0.058201954,0.4562,0.3944024,0.11354642,0.0754696,-0.0072345845,0.0019498393,-0.004017275,0.0018791445,164,6,231,2,0,-8040.619,129.94023,-1113.8397,84.87978,417017.47,347.4005,146.23442,144.20856,146.67639,146.67639,0,1,578.06445,0,0,12.40148,12.401484,0,5,157,0,0,0,1,-127,59,0
True,22141625,15999.99,0,11419.805,-22.994432,7.3767643,0.56039715,1.260189,-0.042099863,84.822586,-0.10333371,-0.5248722,-0.0792105,2.2546358,0.027799612,0.016087092,0.40737402,0.5774263,0.32428125,0.49535918,0.053124193,0.014554429,0.06190434,0.003846476,262.54416,264.16635,263.47604,264.40417,0,0,0,0,0,0,0,0,0,0,0,0,-0.6474585,-0.5195742,-0.1975737,-0.14946823,0.6496343,0.519778,0.20704472,0.14951771,0.017304718,0.038164414,0.009662047,0.030001946,164,6,231,2,0,-8033.6074,129.62686,-1119.937,84.83195,218851.39,182.9859,146.48468,144.70235,146.78796,146.78796,0,1,586.22235,0,0,12.511012,12.511016,0,5,99,0,0,0,1,-127,64,0
True,22141734,15999.99,0,11376.806,-27.678879,4.137136,-0.79790115,3.9479523,0.20057231,84.42354,0.0006406121,-0.66627306,-0.013032061,2.1853487,0.02527342,0.011097571,0.36135623,0.55750346,0.33842802,0.5474968,0.119724505,0.024031663,0.099517114,0.0026960534,261.69043,262.8523,262.5416,263.45096,0,0,0,0,0,0,0,0,0,0,0,0,-1.0897299,-0.8996454,-0.5720483,-0.43284044,1.096287,0.8999663,0.58064014,0.43284884,0.011659883,0.03572055,0.011343997,0.036200725,164,6,231,2,0,-8026.3306,129.40399,-1125.813,84.51602,126878.8,106.48975,146.78954,145.3184,146.9896,146.9896,-7.0423245,1,594.6994,0,0,12.621504,12.621507,0,5,72,0,0,0,1,-127,69,0
True,22141843,15999.99,0,11316.364,-28.46613,0.57386065,-0.7008648,6.733635,0.23147851,83.84311,0.020974696,-0.575582,-0.0023500482,2.1148312,0.026336124,0.009016267,0.2741558,0.5106201,0.24038698,0.4662078,0.17805672,0.045995,0.123024546,0.020300616,260.69247,260.80988,261.42728,261.90793,0,0,0,0,0,0,0,0,0,0,0,0,-1.5039846,-1.2162606,-0.90795094,-0.7346991,1.514488,1.21713,0.9162478,0.73497945,0.0009633191,0.029969543,-0.00031235814,0.026536062,164,6,231,2,0,-8018.8623,129.1944,-1131.4003,84.113396,103403.77,87.24077,147.70717,146.6128,147.28746,147.28746,-14.7,1,602.8917,0,0,12.73216,12.732162,0,4,65,0,0,0,1,-127,74,0
True,22141953,15999.99,0,11224.943,-30.054203,0.7268447,-0.8407612,8.485294,0.26905024,83.185356,0.020825721,-0.47385424,-0.0027325815,2.055547,0.026652904,0.0067386287,0.25986904,0.48805475,0.22431481,0.457778,0.20053975,0.052546866,0.115395755,0.023030246,258.8897,258.31244,259.43558,259.719,0,0,0,0,0,0,0,0,0,0,0,0,-1.7951299,-1.4259796,-1.1214432,-0.8967018,1.8062966,1.4269475,1.1273646,0.8969976,-0.0007891841,0.027201533,-0.0022232197,0.025533825,164,6,231,2,0,-8011.4116,128.98654,-1136.5555,83.61743,83662.66,71.16257,149.78963,149.54962,147.71738,147.71738,-14.7,1,611.36383,0,0,12.840224,12.840227,0,4,59,0,0,0,1,-127,73,0
True,22142062,15999.99,0,11144.948,-30.243185,0.8934968,-0.89554214,9.2902565,0.27638388,82.54969,-0.0073186946,-0.4085722,0.038418587,2.0074186,0.02642774,0.007394071,0.20632485,0.43603703,0.18640818,0.40200374,0.18619888,0.054609355,0.13112383,0.03276299,256.7056,256.12375,257.9401,257.8862,0,0,0,0,0,0,0,0,0,0,0,0,-1.8371931,-1.4577914,-1.2505147,-0.96395755,1.8466047,1.4588139,1.2573705,0.9645142,-0.0073572583,0.020820707,-0.0067300387,0.018902678,164,6,231,2,0,-8003.955,128.7866,-1141.3088,83.07127,97928.45,83.89282,152.48996,153.50421,148.53691,148.53691,0,1,619.12897,0,0,12.946357,12.94636,0,4,63,0,0,0,1,-127,67,0
True,22142171,15999.99,0,11053.258,-16.622082,-0.8900161,-25.32426,10.21698,0.30000693,80.153435,0.045035742,-0.24838352,0.0028730482,1.9707333,0.027607175,0.0070642317,0.24129686,0.47722337,0.18863547,0.4412175,0.517091,0.26203072,0.3117201,0.19065905,256.92767,253.76039,255.49739,254.96143,0,0,0,0,0,0,0,0,0,0,0,0,-2.1132705,-1.7682738,-1.3509681,-1.1490525,2.1756139,1.7875829,1.3864647,1.1647629,-0.0030673668,0.025872886,-0.00646523,0.023564905,164,6,231,2,0,-7996.3794,128.59169,-1145.7863,80.802536,157552.14,136.01607,155.39578,157.35535,149.5433,149.5433,0,1,627.2415,0,0,13.053319,13.053322,0,4,85,0,0,0,1,-127,58,0
True,22142296,15999.99,0,10921.022,-18.41455,0.49637628,-10.63626,10.506336,0.19899844,78.616295,-0.025715195,-0.1887394,0.017301,1.9400986,0.025731858,0.0046236413,0.23186818,0.4906721,0.23276915,0.50981617,0.496018,0.18170594,0.38806647,0.24820676,254.47617,249.6536,252.6992,251.89546,0,0,0,0,0,0,0,0,0,0,0,0,-1.3916374,-1.1535156,-1.3809357,-1.1013522,1.4773926,1.1677394,1.4344264,1.1289744,-0.00422395,0.027522594,-0.0012180619,0.031720772,164,6,231,2,0,-7987.837,128.3661,-1150.6163,79.315475,521443.94,455.8675,157.83618,160.37839,151.48694,151.48694,0,1,635.7993,0,0,13.176061,13.1760645,0,4,213,0,0,0,1,0,37,0
True,22142406,15999.99,0,10912.403,-8.217098,-0.92946386,-9.739534,10.687468,-0.021349914,77.37291,-0.028561927,-0.093355715,0.027583975,1.9278744,0.025005898,0.008167099,0.14488101,0.36624283,0.166434,0.3993617,0.6912025,0.3313423,0.6078864,0.46939203,253.90756,248.0158,253.0644,252.11008,0,0,0,0,0,0,0,0,0,0,0,0,-1.6976271,-1.4314944,-1.4677926,-1.263464,1.8329481,1.4693413,1.5886916,1.3478391,-0.014894353,0.0122593045,-0.009104818,0.018588558,164,6,231,2,0,-7980.2583,128.17204,-1154.7424,78.107544,486808.88,425.7229,159.26129,161.92455,153.40372,153.40372,0,1,643.37805,0,0,13.28589,13.285893,0,4,255,0,0,0,1,-93,16,0
True,22142515,15999.99,0,10778.856,-15.407981,0.82059485,-1.8501558,9.2311,-0.1451703,77.27643,0.035040468,0.05002121,0.037445486,1.9216429,0.022326853,0.010940218,0.15019673,0.3671787,0.21380082,0.47180793,0.56004083,0.29682133,0.4505818,0.3351,251.36847,246.53778,249.5498,248.29285,0,0,0,0,0,0,0,0,0,0,0,0,-1.2971699,-1.1848979,-1.24773,-1.0311629,1.4129032,1.2215097,1.326595,1.0842458,-0.014242293,0.012374103,-0.0034732558,0.027201876,164,6,231,2,0,-7972.734,127.97534,-1158.6677,77.825966,617948.7,547.52234,161.06224,164.23946,155.099,155.099,0,1,650.7563,0,0,13.394841,13.394845,0,4,255,0,0,0,1,0,251,0
True,22142609,15999.99,0,10772.569,-10.540463,-2.2637088,-0.57022524,7.6781616,-0.19428377,77.363556,0.0007857941,0.11266345,-0.052481003,1.9309086,0.02500542,0.010248651,0.18964949,0.34587637,0.2037033,0.3847171,0.48619345,0.20598048,0.464549,0.374922,250.36084,244.72307,250.06905,248.85248,0,0,0,0,0,0,0,0,0,0,0,0,-1.0937994,-0.9245194,-1.0330176,-0.89247495,1.1969883,0.9471875,1.1326655,0.96802795,-0.009402763,0.009761024,-0.0046737753,0.016847428,164,6,231,2,0,-7966.268,127.79791,-1161.9193,77.74388,618077.6,547.6569,161.3775,164.45856,155.70277,155.70277,0,1,657.06134,0,0,13.487974,13.487979,0,4,255,0,0,0,1,-24,233,0
True,22142718,15999.99,0,10684.304,-15.127278,2.2653828,0.6269312,4.77203,-0.24303135,77.580185,0.0024125045,0.2098779,-0.030652057,1.9443501,0.018897973,0.0036341874,0.24229261,0.3961923,0.3034853,0.4789107,0.5362258,0.21862178,0.26011318,0.21236488,250.97148,244.36604,246.88344,245.61911,0,0,0,0,0,0,0,0,0,0,0,0,-1.2498891,-1.0420139,-0.59805566,-0.500041,1.3600591,1.0647011,0.65217286,0.5432677,-0.002945222,0.0159331,0.0071895644,0.028046347,164,6,231,2,0,-7958.443,127.595665,-1165.6798,77.72719,716484.7,640.38983,161.47359,164.53224,155.81195,155.81195,-5.5534716,1,664.609,0,0,13.599753,13.599758,0,4,255,0,0,0,1,-127,214,0
True,22142843,15999.99,0,10677.969,-16.26237,-1.5383,4.0056787,1.9539566,-0.21193515,77.98767,0.02403406,0.09375592,0.0017621061,1.9641231,0.02085163,0.0044530206,0.17628403,0.33061042,0.23724146,0.410629,0.29132614,0.1637592,0.20643525,0.170146,248.0074,245.18822,247.04216,246.16805,0,0,0,0,0,0,0,0,0,0,0,0,-0.8453509,-0.7395089,-0.16764322,-0.14182763,0.89414155,0.75742364,0.26593187,0.22150563,-0.011042258,0.0078884065,-0.0006863363,0.019928161,164,6,231,2,0,-7950.591,127.398994,-1169.2191,78.01243,752200.75,672.5925,161.5054,164.50142,155.71436,155.71436,-10.193465,1,672.1343,0,0,13.710353,13.710358,0,4,255,0,0,0,1,-127,198,0
True,22142953,15999.99,0,10646.608,-16.340294,3.2468412,3.788217,0.394516,-0.35611922,78.439865,-0.03062113,-0.18025097,0.014139503,1.9587451,0.014929768,0.0023624734,0.2705452,0.4341291,0.2980406,0.45543525,0.18390803,0.090655856,0.121230334,0.078517884,246.3702,245.4642,245.83212,245.8823,0,0,0,0,0,0,0,0,0,0,0,0,-0.68725705,-0.58303744,-0.07337019,-0.05443382,0.71143824,0.59004337,0.14170384,0.09554108,0.00052042305,0.020586666,0.006542228,0.025255285,164,6,231,2,0,-7942.573,127.20365,-1172.6675,78.441666,752375.2,674.9308,161.21028,164.29591,155.56412,155.56412,-14.573458,1,679.77203,0,0,13.821956,13.82196,0,4,255,0,0,0,1,-127,185,0
True,22143046,15999.99,0,10754.388,-15.38912,0.6155238,3.8963828,1.1358395,-0.2197809,78.76189,0.07240136,-0.38854754,0.001961302,1.9296769,0.016092153,0.002565747,0.25843197,0.39072445,0.310497,0.46130845,0.33188918,0.15439413,0.21447258,0.11577315,249.55264,248.06622,248.16005,248.09651,0,0,0,0,0,0,0,0,0,0,0,0,-0.82917875,-0.72972786,-0.20477882,-0.17116842,0.8931337,0.7458823,0.29653475,0.20664474,-0.00096546486,0.0152623765,0.008023206,0.025953569,164,6,231,2,0,-7935.439,127.06355,-1175.5363,78.77038,752680.56,668.61584,160.92856,164.0439,155.4492,155.4492,-14.7,1,686.57495,0,0,13.919784,13.919789,0,3,255,0,0,0,1,-127,178,0
True,22143171,15999.99,0,10794.474,-24.897137,1.7266085,4.215977,3.0698586,-0.19819616,79.06406,-0.022452056,-0.5819236,-0.06902272,1.868549,0.014968994,-0.004409603,0.24009648,0.3874883,0.22736767,0.38900393,0.370538,0.11464499,0.2260886,0.087465525,250.6236,248.54643,249.11588,249.15466,0,0,0,0,0,0,0,0,0,0,0,0,-1.1007051,-0.8606288,-0.46550232,-0.36938828,1.1614001,0.8682312,0.5175021,0.3796023,-0.0032146126,0.01486541,-0.0018602572,0.017357096,164,6,231,2,0,-7926.713,126.88213,-1178.7876,79.12388,752254.8,665.6586,160.73035,163.97162,155.3952,155.3952,0,1,694.7515,0,0,14.037736,14.037741,0,3,255,0,0,0,1,-127,175,0
True,22143281,15999.99,0,10892.137,-26.695597,0.09327814,4.214296,4.954113,-0.11005366,79.20145,0.005304915,-0.51942986,-0.023583753,1.8049518,0.01543193,-0.008949418,0.21679115,0.40422428,0.2483198,0.4314233,0.4271519,0.13657165,0.34611624,0.1599004,252.75838,249.7218,252.0999,251.33105,0,0,0,0,0,0,0,0,0,0,0,0,-0.95640177,-0.78186,-0.7289056,-0.5781,1.0474555,0.79369825,0.8069076,0.5998064,-0.006073393,0.01691835,0.00063079596,0.022400446,164,6,231,2,0,-7917.902,126.721596,-1181.6702,79.356316,740107,648.8525,161.19919,164.45325,155.48596,155.48596,0,1,702.90405,0,0,14.154756,14.154761,0,3,255,0,0,0,1,3,179,0
True,22143390,15999.99,0,10909.264,-32.342037,1.3379133,4.7654333,4.7240324,-0.1003494,79.492065,0.025039207,-0.26009503,-0.010684937,1.7606665,0.012235538,-0.015027596,0.17470036,0.39204505,0.20538652,0.44317204,0.43414342,0.0998908,0.28597605,0.14404593,254.74524,249.65395,252.32803,251.28392,0,0,0,0,0,0,0,0,0,0,0,0,-0.61730605,-0.49837637,-0.66405535,-0.5124205,0.75468355,0.50828844,0.7230158,0.5322819,-0.0112365205,0.015424371,-0.0044736527,0.023797281,164,6,231,2,0,-7909.3145,126.58203,-1184.0676,79.63238,752502.56,658.8659,160.97845,164.38199,155.64865,155.64865,0,1,710.715,0,0,14.266908,14.266913,0,3,255,0,0,0,1,0,190,0
True,22143500,15999.99,0,10739.691,11.807423,0.530846,-9.167724,8.963531,-0.05759859,77.318184,-0.01897489,0.07364729,0.0661339,1.7553347,0.012045482,-0.0091427835,0.17408794,0.34438834,0.1810986,0.35690793,0.22062796,0.18489921,0.41235256,0.37870428,246.2656,245.46825,249.48257,248.91083,0,0,0,0,0,0,0,0,0,0,0,0,0.33460072,0.4605144,-1.1347692,-1.0562735,0.40079215,0.49624714,1.2073673,1.1221099,-0.011311645,0.0095784925,-0.0073613077,0.013541117,164,6,231,2,0,-7901.15,126.46535,-1186.5989,77.83604,738826.6,656.8186,160.76558,164.21886,156.31888,156.31888,0,1,718.21515,0,0,14.376578,14.376584,0,3,255,0,0,0,1,127,196,0
True,22143609,15999.99,0,10660.344,3.5416222,2.817363,-2.1529474,7.4065933,-0.38912785,77.456024,0.027657611,0.37266445,-0.008049345,1.7802705,0.004353133,-0.0026708676,0.20969777,0.29507843,0.28591815,0.3695132,0.28973803,0.23277023,0.21658753,0.22498286,248.25842,245.31165,246.35515,245.39812,0,0,0,0,0,0,0,0,0,0,0,0,0.41659743,0.5151746,-0.8526438,-0.7642067,0.5074461,0.5653202,0.8797225,0.79663616,-0.0069435127,0.0035298243,0.005100962,0.015039798,164,6,231,2,0,-7893.0845,126.36971,-1189.1448,77.81031,752599.9,674.3967,160.47241,163.95981,157.1797,157.1797,0,1,725.6439,0,0,14.485295,14.485301,0,3,255,0,0,0,1,80,202,0
True,22143718,15999.99,0,10600.478,-8.169,1.8051857,1.0237665,2.8256607,-0.36848253,77.85255,-0.113434196,0.41858768,-0.09632853,1.8267835,0.004000142,-0.00855025,0.19815873,0.3265572,0.19009215,0.31287602,0.16658609,0.0778006,0.13274224,0.13155168,246.27826,242.73306,245.61362,244.34459,0,0,0,0,0,0,0,0,0,0,0,0,-0.4222941,-0.34830484,-0.2738222,-0.22215866,0.4539639,0.3568882,0.304301,0.25818658,-0.008358967,0.0073912106,-0.0062920414,0.008306053,164,6,231,2,0,-7884.9907,126.277855,-1191.6494,77.90468,751946.25,677.14746,160.23376,163.81052,157.27899,157.27899,0,1,733.0774,0,0,14.594128,14.594133,0,3,255,0,0,0,1,0,208,0
True,22143828,15999.99,0,10585.189,2.8932085,-0.4746116,1.4738381,-0.44875336,-0.37322158,78.08734,-0.01279691,0.3104175,0.08831602,1.8713329,0.0041718725,-0.0054686447,0.17283107,0.26966405,0.24488316,0.35138205,0.06472404,0.07266327,0.09333275,0.14989911,244.42148,243.08647,245.02554,244.65765,0,0,0,0,0,0,0,0,0,0,0,0,0.0052013723,0.005712646,0.10615306,0.11522367,0.064932704,0.07288748,0.14134878,0.18906675,-0.011465818,0.00041233376,0.00022220612,0.012884136,164,6,231,2,0,-7876.8022,126.212425,-1194.1025,78.08952,474029.06,427.47818,159.90767,163.50919,157.19583,157.19583,0,1,740.5766,0,0,14.703736,14.703742,0,1,118,0,0,0,1,0,216,0
True,22143937,15999.99,0,9796.88,8.771082,2.145075,-19.267506,-0.9194145,0.13457912,75.912125,0.10479312,0.061394032,0.048059788,1.8907208,0.006485619,0.0061201365,0.37042034,0.37877417,0.33430994,0.3380114,-0.3903038,-0.6442488,-0.28466064,-0.3468207,225.80133,220.39185,228.61423,227.30963,0,0,0,0,0,0,0,0,0,0,0,0,0.098693445,0.1042437,0.12742124,0.13694386,0.40258843,0.65262794,0.31187794,0.3728783,0.012771744,0.0137964785,0.010854386,0.0112944655,164,6,231,2,0,-7868.5537,126.15635,-1196.6665,75.91781,104828.64,102.03035,159.69315,163.24077,157.18832,157.18832,0,1,748.1542,0,0,14.815452,14.815457,0,1,62,255,0,0,1,0,223,129
True,22144046,15999.99,0,9824.152,7.868336,2.4697664,-20.94743,-0.53663254,0.49505833,73.24097,-0.04332906,0.026640836,0.018975444,1.896344,0.008354103,0.009430067,0.44877732,0.4127157,0.31007457,0.27289566,-0.004485695,-0.0060666776,-0.009449143,-0.012345867,227.04033,226.88354,226.92923,226.75455,0,0,0,0,0,0,0,0,0,0,0,0,0.064611636,0.064337194,0.072037354,0.074752584,0.06476716,0.06462259,0.07265443,0.07576522,0.022383511,0.017959964,0.007972978,0.0035526827,164,6,231,2,0,-7860.745,126.12438,-1199.1919,73.244606,-92822.75,-90.22131,159.58185,163.09576,157.17078,157.17078,-2.1571722,1,755.3573,0,0,14.925999,14.926003,0,1,3,0,0,0,1,0,228,0
True,22144171,15999.99,0,9807.516,3.4575012,0.63586813,-4.8233824,-0.1122303,0.16212428,72.89439,0.008200148,-0.014328197,-0.020711614,1.8963361,0.002415439,0.00835776,0.39596653,0.3507569,0.33142835,0.29204598,0.019724585,0.018792696,0.026628772,0.026203066,226.35257,226.40408,226.54034,226.59076,0,0,0,0,0,0,0,0,0,0,0,0,0.019748969,0.019287068,0.012895159,0.013476041,0.027912023,0.026928728,0.029586764,0.029465308,0.015905403,0.010359701,0.0105117895,0.005829513,164,6,231,2,0,-7852.103,126.12125,-1202.0737,72.894646,130675.04,127.238914,159.25551,162.69783,157.0734,157.0734,-5.586999,1,763.3541,0,0,15.050717,15.050724,0,1,106,0,0,0,1,0,231,0
True,22144265,15999.99,0,9882.378,0.86189216,3.392579,0.58743054,0.0068569183,-0.08073361,73.02907,-0.06601496,-0.00499486,-0.033984885,1.8952898,-0.0053988257,0.0057335636,0.44018853,0.4031902,0.39426574,0.3626976,0.07561723,0.075672746,0.073374584,0.07277796,228.10603,228.1259,228.28464,228.29475,0,0,0,0,0,0,0,0,0,0,0,0,0.0010634669,0.0018564273,-0.0043277056,0.0017964976,0.07562471,0.075695515,0.0735021,0.07280012,0.021329954,0.016791504,0.017982684,0.014229473,164,6,231,2,0,-7844.7505,126.13029,-1204.5465,73.029106,574533.06,555.2783,159.00586,162.40639,157.00377,157.00377,-8.403006,1,770.16394,0,0,15.157093,15.157099,0,1,202,0,0,0,1,0,234,0
True,22144375,15999.99,0,9961.936,0.2018531,-0.5303664,3.290652,0.013618469,-0.1895316,73.44205,-0.035445128,-0.0008661413,-0.022666246,1.8950614,-0.005217162,0.00284665,0.3695538,0.33882383,0.37779567,0.35119945,0.08098967,0.082708195,0.11724226,0.11646183,229.51297,229.54509,230.3584,230.35464,0,0,0,0,0,0,0,0,0,0,0,0,-0.0011950425,-0.00041575776,-0.004761515,0.0014102726,0.08099848,0.08270924,0.11733891,0.11647037,0.012665451,0.008895915,0.016024515,0.012862422,164,6,231,2,0,-7837.694,126.15739,-1206.9205,73.4423,654835.7,627.7112,158.77022,162.13666,156.97043,156.97043,0,1,776.6999,0,0,15.258765,15.25877,0,1,226,0,0,0,1,0,236,0
True,22144484,15999.99,0,10018.683,-0.05903554,3.1362755,4.496588,0.0040073395,-0.2256257,73.89615,-0.070752606,0.0012780976,-0.014979681,1.8950922,-0.010747043,0.0009187567,0.3888189,0.3688399,0.4012194,0.38314563,0.0759993,0.07598625,0.10063164,0.10059673,230.91747,230.91159,231.62868,231.62445,0,0,0,0,0,0,0,0,0,0,0,0,-0.0005255599,3.067465E-05,-0.005378471,0.0038648283,0.076001115,0.07598626,0.100775264,0.10067095,0.015028629,0.012577876,0.018809427,0.01666059,164,6,231,2,0,-7830.6104,126.19337,-1209.3025,73.89649,749027.4,714.0687,158.58609,161.91982,156.96616,156.96616,0,1,783.2607,0,0,15.360207,15.36021,0,1,254,0,0,0,1,0,239,0
True,22144593,15999.99,0,10116.497,0.056850195,0.51504743,4.5947566,-0.0070724487,-0.21371788,74.39372,0.0210725,0.0012232182,0.011338081,1.8952415,-0.011769014,0.0006745233,0.37135234,0.37852997,0.40970492,0.40712127,0.10829252,0.10787222,0.14933436,0.14966516,232.96982,232.9656,233.99356,234.00005,0,0,0,0,0,0,0,0,0,0,0,0,-0.00066758884,0.001194295,-0.0066495626,0.0076155295,0.10829458,0.107878834,0.14948232,0.14985879,0.01288607,0.013766523,0.019818291,0.019511111,164,6,231,2,0,-7823.3584,126.2651,-1211.7407,74.394035,752383.8,710.28784,158.39584,161.70172,156.97586,156.97586,0,1,789.97754,0,0,15.46339,15.463396,0,1,255,0,0,0,1,0,241,0
True,22144703,15999.99,0,10177.991,0.09287751,2.281496,5.0123367,0.0021705627,-0.24021128,74.98459,0.0077380077,-0.00026171363,-0.0011155992,1.8952492,-0.01561108,-0.00018086281,0.36170915,0.3402605,0.40721563,0.3939698,0.11974247,0.099938326,0.1090572,0.11092336,235.03673,234.68733,235.14822,235.1729,0,0,0,0,0,0,0,0,0,0,0,0,-0.0012092853,0.00065854826,-0.006562677,0.0049271053,0.11974857,0.0999405,0.10925449,0.11103273,0.011703175,0.009072147,0.019522335,0.017947506,164,6,231,2,0,-7814.9453,126.356964,-1214.5701,74.98497,752476.5,706.1758,158.21812,161.48492,156.9896,156.9896,0,1,797.7704,0,0,15.582213,15.582219,0,1,255,0,0,0,1,0,244,0
True,22144828,15999.99,0,10228.099,0.07895291,1.2836984,4.2331305,-0.00076293945,-0.256316,75.51786,-0.04740891,8.665233E-05,-0.0006806683,1.8952565,-0.016433565,0.0005046054,0.35996038,0.35936686,0.3661083,0.3597885,0.0700463,0.068777874,0.093321905,0.09335602,235.7851,235.76306,236.4504,236.4503,0,0,0,0,0,0,0,0,0,0,0,0,-0.00033369142,0.00052338623,-0.002875262,0.002871631,0.070047095,0.06877986,0.09336619,0.09340017,0.011488657,0.011415854,0.014634974,0.013883602,164,6,231,2,0,-7806.654,126.46146,-1217.3589,75.518295,651216.44,608.0573,158.05182,161.28346,156.99313,156.99313,0,1,805.4517,0,0,15.698457,15.6984625,0,1,225,0,0,0,1,0,246,0
True,22144937,15999.99,0,10267.747,0.13455778,2.8452296,3.149945,0.0009059906,-0.19860575,75.861786,0.00015416561,-0.00031474765,0.0026334748,1.895264,-0.020840755,0.00022355374,0.39575976,0.37990233,0.4242221,0.4225979,0.081905425,0.06417528,0.08502617,0.08738778,237.00484,236.65509,237.26514,237.31525,0,0,0,0,0,0,0,0,0,0,0,0,-0.00097207207,0.00050746626,-0.008101583,0.0079800375,0.08191119,0.06417728,0.08541127,0.08775138,0.01588004,0.013934866,0.021544278,0.021351166,164,6,231,2,0,-7798.447,126.60063,-1220.1193,75.86204,570270.8,530.4276,157.91318,161.10977,157.01419,157.01419,0,1,813.05505,0,0,15.812852,15.812858,0,1,201,0,0,0,1,0,248,0
True,22145046,15999.99,0,10288.82,4.264367,1.066852,2.7818093,-0.07253075,-0.2040653,76.115105,-0.0039014323,0.179598,0.019174911,1.9024471,-0.021523474,0.0029005317,0.398295,0.37384126,0.3836546,0.3782174,0.047473412,0.096728094,0.057208102,0.086362384,237.42174,237.49065,237.81664,237.5861,0,0,0,0,0,0,0,0,0,0,0,0,0.29730028,0.3413456,0.028815636,0.037685268,0.30106676,0.35478607,0.0640555,0.09422654,0.016191024,0.013191376,0.0167211,0.016074661,164,6,231,2,0,-7791.177,126.74132,-1222.5813,76.11541,438622.72,407.10858,157.83313,160.9812,157.01437,157.01437,0,1,819.7958,0,0,15.913859,15.913866,0,1,162,0,0,0,1,127,249,0
True,22145156,15999.99,0,10219.126,17.00142,3.179872,-0.80159664,-0.9404087,-0.09406501,76.002426,-0.022642357,0.46573547,0.056206882,1.9407969,-0.02468132,0.0068251444,0.4716712,0.39171466,0.4648414,0.38466704,0.010794272,0.057645507,0.0004873532,0.039498273,236.52391,235.1952,236.74055,235.42911,0,0,0,0,0,0,0,0,0,0,0,0,0.5756721,0.7011187,0.147559,0.18645073,0.5757733,0.70348454,0.1475598,0.19058853,0.025191821,0.015383843,0.02637361,0.016841471,164,6,231,2,0,-7782.747,126.92449,-1225.5901,76.0083,71940.16,67.21539,158.04218,161.04251,157.06775,157.06775,0,1,827.6565,0,0,16.031504,16.031507,0,1,50,0,0,0,1,127,248,0
True,22145250,15999.99,0,10116.382,22.641224,0.8843354,-2.5694923,-2.8853436,0.06676549,75.504196,-0.040986694,0.66609067,0.08035542,1.9973606,-0.02360959,0.010958093,0.48086423,0.35029566,0.4350598,0.3140555,-0.0032778636,-0.0025109386,-0.008909276,-0.0057011135,234.748,231.49059,235.47334,232.34805,0,0,0,0,0,0,0,0,0,0,0,0,0.7449169,0.92160964,0.3905993,0.5019108,0.74492407,0.9216131,0.3907009,0.50194323,0.026319496,0.010303121,0.022832796,0.008446284,164,6,231,2,0,-7775.55,127.10552,-1228.3972,75.55934,-95864.53,-90.472755,158.37439,161.17496,157.22266,157.22266,0,1,834.4356,0,0,16.133444,16.133448,0,1,3,0,0,0,1,127,242,0
True,22145375,15999.99,0,9995.271,26.662159,0.1368255,-3.0759277,-5.2010727,0.2069481,74.72601,0.029557832,0.60739374,0.025000554,2.0714824,-0.024831135,0.0151426215,0.5033642,0.32654962,0.47168672,0.29503253,-0.0044216397,-0.010566107,-0.015530875,-0.015126293,231.58939,228.45808,232.7267,229.82372,0,0,0,0,0,0,0,0,0,0,0,0,1.0873144,1.3245833,0.69343233,0.8589397,1.0873233,1.3246255,0.69360626,0.85907286,0.02907949,0.0073902793,0.027187467,0.0061845966,164,6,231,2,0,-7767.686,127.332306,-1231.8296,74.90708,-104695.64,-100,159.15564,161.637,157.6615,157.6615,0,1,841.94775,0,0,16.247555,16.247559,0,1,0,0,0,0,1,127,229,0
True,22145468,15999.99,0,9896.552,28.33186,0.3886698,-3.0971317,-6.8294144,0.24975085,74.01402,0.0066330787,0.6094323,0.025227377,2.1277082,-0.02597138,0.017746879,0.57474506,0.36685517,0.47488058,0.27206033,-0.00292423,-0.006730845,-0.017276688,-0.012478918,229.11604,226.00722,230.50424,227.68352,0,0,0,0,0,0,0,0,0,0,0,0,1.302714,1.5918732,0.9059352,1.1304821,1.3027172,1.5918874,0.9061,1.130551,0.037835516,0.012334418,0.027567193,0.0034533702,164,6,231,2,0,-7761.7056,127.51251,-1234.7078,74.32885,-103670.35,-100,160.82704,162.8469,158.14316,158.14316,0,1,847.8106,0,0,16.336548,16.336554,0,1,0,0,0,0,1,127,216,0
True,22145578,15999.99,0,9765.497,28.704096,0.64962935,-2.81207,-8.53483,0.3689896,73.043884,-0.04977746,0.6478476,0.0115285665,2.194994,-0.027317096,0.018139252,0.56582695,0.3319275,0.49831232,0.27124158,-0.0024803127,0.00025971347,-0.015521521,-0.012310903,225.93442,222.74538,227.69662,224.64883,0,0,0,0,0,0,0,0,0,0,0,0,1.4192824,1.7902559,1.0309937,1.340254,1.4192846,1.7902559,1.0311105,1.3403105,0.036741562,0.008049969,0.030353054,0.0033560283,164,6,231,2,0,-7754.5063,127.74791,-1238.519,73.54175,-102297.07,-100,164.13985,165.27887,159.05034,159.05034,0,1,854.9206,0,0,16.446783,16.446789,0,1,0,0,0,0,1,127,194,0
True,22145703,15999.99,0,9677.037,23.036865,-2.5486643,-2.4539738,-10.329355,0.3713959,72.00328,0.035795897,0.5021291,-0.046967547,2.260753,-0.024706,0.0123125175,0.48189938,0.26354206,0.45153174,0.22981618,0.0014163527,0.005549613,-0.021022886,0.054828554,224.44153,222.17175,224.01709,223.15042,0,0,0,0,0,0,0,0,0,0,0,0,1.1992048,1.4005754,1.3941171,1.6864974,1.1992056,1.4005864,1.3942755,1.6873884,0.026446477,-0.0003386289,0.024791189,-0.0015691482,164,6,231,2,0,-7746.751,128.02046,-1243.064,72.741356,33646.69,33.208633,167.07172,167.31514,161.48254,161.48254,0,1,862.71893,0,0,16.569809,16.569813,0,1,46,0,0,0,1,0,172,0
True,22145812,15999.99,0,9861.763,26.420078,-0.6806934,0.13026714,-11.364252,0.318388,71.36217,-0.011806696,0.48991886,0.015113478,2.3141627,-0.025604347,0.011675235,0.48802817,0.28164,0.43839884,0.22216193,0.10907239,0.38100848,0.20773475,0.3921903,226.1717,228.51956,227.75183,228.19368,0,0,0,0,0,0,0,0,0,0,0,0,0.99945605,1.2682983,1.398868,1.7082493,1.00539,1.3242915,1.4142084,1.7526919,0.02719827,0.0018813796,0.023229785,-0.0024791807,164,6,231,2,0,-7740.3994,128.22852,-1247.1031,72.26206,475688.38,460.83475,168.92572,168.64444,164.77603,164.77603,0,1,870.0867,0,0,16.673727,16.673733,0,1,223,0,0,0,1,-19,159,0
True,22145921,15999.99,0,10042.234,10.944953,-1.3403652,2.263164,-13.159275,-0.119829535,71.15798,-0.0048866197,0.21053396,-0.18175662,2.3564315,-0.027790263,0.0002617584,0.4037999,0.14175397,0.4110134,0.24416389,0.13142386,0,0.48613033,0.5325653,227.51268,235.64162,232.14864,232.06387,0,0,0,0,0,0,0,0,0,0.120000005,0,0,-0.2995964,0,1.7621106,1.761866,0.32715476,0,1.8279377,1.840597,0.016866293,-0.015277935,0.019973863,0.00013668835,164,6,231,2,0,-7733.219,128.46205,-1251.9788,72.36462,742978.44,707.1067,168.7692,168.40778,169.28679,169.28679,0,1,877.7121,0,0,16.793835,16.793844,0,1,255,0,0,0,1,-127,150,0
True,22146031,15999.99,0,10002.774,9.307307,-1.1451737,4.2210627,-12.798672,-0.27084616,71.47333,0.031362697,-0.041089144,-0.051339585,2.3650105,-0.027046917,-0.011390777,0.37056634,0.090878904,0.43043113,0.35533142,0.13337095,0.15630956,0.5440082,0.43245736,227.89136,228.95903,232.8825,231.931,0,0,0,0,0,0,0,0,0,0.120000005,0,0,-0.29644334,-0.093742974,1.652363,1.6464227,0.3250638,0.18226472,1.7396115,1.7022712,0.012789652,-0.021518596,0.022282481,0.013353687,164,6,231,2,0,-7727.0425,128.65671,-1256.2971,72.61072,712928.2,680.5904,168.41597,167.99834,173.56555,173.56555,0,1,885.31116,0,0,16.897831,16.897839,0,1,255,0,0,0,1,-127,152,0
True,22146156,15999.99,0,10011.388,22.391619,3.2474875,4.6344233,-8.935188,0.007312894,72.26772,-0.035897195,-0.27752265,0.16189611,2.3442903,-0.029810712,-0.006259841,0.44095412,0.42784694,0.41682535,0.3846658,0.23302259,0.440843,0.2706334,0.34443766,228.80226,233.55878,230.46431,231.98192,0,0,0,0,0,0,0,0,0,0,0,0,1.1795337,1.3810669,0.96271884,1.2183537,1.2023308,1.4497201,1.0000349,1.2661055,0.021423869,0.019816056,0.02066486,0.016841326,164,6,231,2,0,-7720.0493,128.89249,-1261.3892,72.818,699824.2,667.6325,168.4298,167.9065,177.17484,177.17484,0,1,892.85516,0,0,17.016811,17.016819,0,1,255,0,0,0,1,0,171,0
True,22146265,15999.99,0,9955.647,27.10291,0.89913553,5.331189,-2.6959763,-0.16534197,73.13658,-0.10181339,-0.36702216,0.17200169,2.302905,-0.034078732,0.01208395,0.37917042,0.36432797,0.4007638,0.31589723,0.09589705,0.1654699,0.13129778,0.14359976,228.1727,231.11003,229.38016,230.76387,0,0,0,0,0,0,0,0,0,0,0,0,0.3853349,0.44497132,0.24562334,0.30435762,0.39708844,0.4747418,0.2785138,0.33653298,0.013845086,0.012024414,0.01875526,0.0086652525,164,6,231,2,0,-7713.2964,129.15344,-1266.7698,73.18644,751856.8,720.853,168.93921,168.23158,177.10422,177.10422,0,1,900.67816,0,0,17.135231,17.135239,0,1,255,0,0,0,1,0,196,0
True,22146375,15999.99,0,9982.263,7.765441,11.339079,4.5115857,0.29491043,-0.23384142,73.719925,-0.16131487,-0.12800568,0.0015584975,2.2735863,-0.05301491,0.022385616,0.5912045,0.6086377,0.57069623,0.57354647,0.06223144,0.053341296,0.080987856,0.06702949,229.86905,230.3383,230.62555,230.91254,0,0,0,0,0,0,0,0,0,0,0,0,-0.013209099,-0.012174468,-0.06994232,-0.022746384,0.06361786,0.054712992,0.107009165,0.07078383,0.03985454,0.041993,0.038958967,0.039297834,164,6,231,2,0,-7706.9824,129.4799,-1272.1515,73.72089,752350.9,719.80554,168.70265,167.99258,176.4372,176.4372,0,1,907.87964,0,0,17.248253,17.248262,0,1,255,0,0,0,1,0,226,0
True,22146484,15999.99,0,10174.442,-1.8278651,6.157037,3.558416,0.2895317,-0.19978762,74.13661,0.025157874,-0.02052774,0.015355093,2.266968,-0.06252995,0.022577943,0.3190676,0.37275428,0.4269889,0.4982244,0.15284513,0.10954815,0.3126127,0.30840608,232.62999,232.29024,236.24622,236.42036,0,0,0,0,0,0,0,0,0,0,0,0,-0.05117871,-0.050185766,-0.0677367,-0.022452375,0.1611859,0.120496504,0.3198671,0.30922228,0.006472487,0.01305804,0.021873228,0.030342601,164,6,231,2,0,-7700.6577,129.95885,-1277.5093,74.13744,706592.5,664.48944,168.33696,167.70879,175.7666,175.7666,0,1,915.0777,0,0,17.360508,17.360516,0,1,241,0,0,0,1,-3,2,0
True,22146593,15999.99,0,10100.897,-8.6760435,2.1627345,3.7816238,0.1330185,-0.37098742,74.57773,-0.10880631,-0.21175592,-0.092582315,2.2566228,-0.065055005,0.019137438,0.35566267,0.37602687,0.23143773,0.30857772,0.080740884,0.053222243,0.113781676,0.07049456,232.52519,233.01616,233.45018,233.64636,0,0,0,0,0,0,0,0,0,0,0,0,-0.34924313,-0.31071922,-0.04590338,-0.04026156,0.35845482,0.3152444,0.12269226,0.08118175,0.010961473,0.013459478,-0.0013763569,0.0077950135,164,6,231,2,0,-7694.422,130.43362,-1282.7157,74.57877,651306.56,615.76715,168.02957,167.48347,175.04126,175.04126,0,1,922.2797,0,0,17.469902,17.469912,0,1,225,0,0,0,1,-127,24,0
True,22146703,15999.99,0,10156.627,-14.214924,2.9420543,2.581173,0.9691162,-0.21859431,74.78181,0.05415213,-0.42998776,-0.075187795,2.2244265,-0.06819618,0.012294076,0.36718786,0.41393605,0.43436706,0.48306715,0.23998384,0.09738603,0.15879881,0.070825495,235.11336,234.55394,234.25742,234.57394,0,0,0,0,0,0,0,0,0,0,0,0,-0.73677605,-0.6354002,-0.20500389,-0.15934515,0.774875,0.6428199,0.25931382,0.1743764,0.012375228,0.01810966,0.022750437,0.028540514,164,6,231,2,0,-7688.7803,130.89983,-1287.2449,74.788414,508417.12,478.09558,167.90562,167.49748,174.48842,174.48842,-2.8026705,1,928.6527,0,0,17.566952,17.56696,0,1,157,0,0,0,1,-127,30,0
True,22146812,15999.99,0,10092.026,-20.770218,-0.06675404,0.658226,2.887436,-0.080112815,74.666885,-0.04697707,-0.51634884,-0.05669219,2.1683366,-0.06391508,0.0093292,0.30456272,0.42418295,0.28677505,0.3650318,0.060927425,0.020786658,0.14244166,0.031461813,231.57599,233.30339,233.25728,233.56595,0,0,0,0,0,0,0,0,0,0,0,0,-0.28351322,-0.23632568,-0.4858444,-0.3909871,0.289986,0.2372381,0.5062948,0.39225087,0.0046932288,0.01936661,0.005202841,0.014506992,164,6,231,2,0,-7682.1914,131.42567,-1292.2848,74.72273,264401.72,250.15823,167.81262,167.6183,173.8938,173.8938,0,1,936.05615,0,0,17.678116,17.67812,0,1,110,0,0,0,1,0,30,0
True,22146921,15999.99,0,10067.466,-29.915878,5.4000044,0.7766056,2.4674873,-0.018452644,74.554276,-0.071481384,-0.24530792,-0.009541415,2.1260765,-0.07287144,0.0054954356,0.34225655,0.5835171,0.30984703,0.5128148,0.07756722,0.02631848,0.08775501,0.03369758,232.15375,232.38506,232.54605,232.7134,0,0,0,0,0,0,0,0,0,0,0,0,-0.3981888,-0.31683347,-0.36447132,-0.28121492,0.4056735,0.3179247,0.37488702,0.2832267,0.009316992,0.038911544,0.007945929,0.03207729,164,6,231,2,0,-7675.405,131.99115,-1297.0444,74.59509,301536.12,286.00037,167.60799,167.65201,173.45752,173.45752,0,1,943.35223,0,0,17.78942,17.789425,0,1,121,0,0,0,1,-107,31,0
True,22147031,15999.99,0,9989.415,-27.454012,4.7644243,-0.7188368,1.7806072,0.035979986,74.34227,-0.10637447,-0.38100672,-0.009836486,2.0961359,-0.07837246,0.009135939,0.3954291,0.6499665,0.32853842,0.5570269,0.024466043,0.0057262722,0.02753536,0.0040481165,229.6238,231.11052,230.2057,231.55643,0,0,0,0,0,0,0,0,0,0,0,0,-0.656174,-0.52702165,-0.29272595,-0.21783318,0.65663,0.52705276,0.29401815,0.21787079,0.01583948,0.047062658,0.0101681985,0.037333786,164,6,231,2,0,-7668.499,132.61232,-1301.4622,74.3636,22048.938,21.071684,167.52484,167.79453,173.00107,173.00107,0,1,950.5643,0,0,17.89977,17.899776,0,1,31,0,0,0,1,-127,37,0
True,22147140,15999.99,0,9910.273,-23.750307,1.8048707,-2.549983,2.5963287,0.18501604,73.832,0.054599114,-0.36925977,0.07178642,2.0477831,-0.07975991,0.01794924,0.33687958,0.55930513,0.3399659,0.5661626,0.0004685057,0.0026404185,0.0064492673,-0.0014641298,227.92786,229.78311,228.0502,229.71463,0,0,0,0,0,0,0,0,0,0,0,0,-0.30357334,-0.26983777,-0.44614118,-0.3520058,0.3035737,0.2698507,0.4461878,0.35200885,0.008657422,0.035941556,0.011526838,0.038419947,164,6,231,2,0,-7661.4316,133.2925,-1305.5875,73.87787,-29947.424,-28.852701,167.47542,167.9884,172.59364,172.59364,0,1,957.7639,0,0,18.010586,18.010593,0,1,22,0,0,0,1,0,54,0
True,22147265,15999.99,0,9847.4375,-19.792212,-2.7896419,-3.2327962,2.3898926,0.07404041,73.381325,0.04717241,-0.12204132,0.043488573,2.0197153,-0.07512777,0.025431866,0.26328748,0.45476243,0.25170222,0.46910587,-0.00040709844,0.0014467239,-0.0007361619,-0.0011878598,227.1226,227.75966,227.11385,227.70888,0,0,0,0,0,0,0,0,0,0,0,0,-0.32184643,-0.29825252,-0.38716736,-0.3171121,0.3218467,0.29825604,0.38716805,0.31711432,-0.000369858,0.023117684,0.001032941,0.026880622,164,6,231,2,0,-7653.959,133.97438,-1309.633,73.420265,-29341.578,-28.450043,167.25633,167.9231,172.15486,172.15486,0,1,965.2029,0,0,18.126352,18.12636,0,1,22,0,0,0,1,0,77,0
True,22147375,15999.99,0,9799.555,-15.9457035,-1.2636404,-2.9221122,0.99518394,-0.029559612,73.00397,-0.03815941,0.009093452,0.009967835,2.0145476,-0.07408801,0.026376918,0.28620872,0.44695413,0.24448963,0.41310978,-0.00012585649,0.0010351868,-0.0017013692,-0.00076961727,226.34973,226.33292,226.3141,226.29047,0,0,0,0,0,0,0,0,0.120000005,0,0,0,-0.14100794,-0.12665625,-0.13506696,-0.1198444,0.141008,0.12666048,0.13507767,0.11984687,0.0024418086,0.022159867,0.00017541647,0.020223107,164,6,231,2,0,-7646.57,134.59427,-1313.3723,73.01076,-28883.277,-28.142817,167.06781,167.84549,171.70113,171.70113,-1.7422876,1,972.4243,0,0,18.239792,18.239798,0,1,22,0,0,0,1,0,102,0
True,22147468,15999.99,0,9756.854,-8.781548,-0.46463102,-3.3364825,0.19496727,-0.12527978,72.67753,-0.0060754493,-0.045741983,0.18733892,2.0153334,-0.076125294,0.027871165,0.14462315,0.4262486,0.13476542,0.4334649,0.009193684,0.0010509052,0,-0.0011695905,225.245,225.33858,225.32373,225.37695,0,0,0,0,0,0,0,0,0.120000005,0,0.120000005,0,-0.32718056,-0.28284335,0,-0.030567652,0.3273097,0.28284532,0,0.030590018,-0.014925983,0.019619998,-0.01286998,0.022643179,164,6,231,2,0,-7640.1465,135.13667,-1316.4865,72.677895,-25122.227,-24.585337,166.95699,167.74744,171.31995,171.31995,-6.9137197,1,978.9862,0,0,18.338078,18.338085,0,1,23,0,0,0,1,-127,123,0
True,22147593,15999.99,0,9700.842,-11.669163,-1.0947747,-3.1991453,0.27430344,-0.09465647,72.28026,0.015776187,-0.28932023,0.13228123,1.9976839,-0.07194938,0.042062555,0.08900117,0.41613224,0.06378604,0.38453355,0.011262438,0.0010075446,0.017405333,-0.001521853,223.13397,224.39046,223.65884,224.7101,0,0,0,0,0,0,0,0,0.120000005,0,0.120000005,0,-0.59400797,-0.5445652,-0.11762747,-0.07934277,0.5941147,0.54456615,0.11890823,0.07935736,-0.02174893,0.018379059,-0.021308903,0.016825605,164,6,231,2,0,-7632.7993,135.72186,-1319.9484,72.28084,-14541.647,-14.31343,166.7793,167.77634,170.97498,170.97498,-4.074318,1,986.94434,0,0,18.450426,18.450432,0,1,26,0,0,0,1,-127,127,0
True,22147703,15999.99,0,9639.019,-16.828928,-0.6361326,-3.0409412,1.6520443,0.04045129,71.82083,0.01389425,-0.5193619,-0.05326832,1.951228,-0.06782024,0.047419213,0.20237784,0.4572959,0.17028938,0.40167153,0.009847633,0.002437938,0.016295306,-6.0184855E-05,221.08485,223.49155,221.67992,223.8834,0,0,0,0,0,0,0,0,0.120000005,0,0.120000005,0,-0.7969797,-0.59277594,-0.32443935,-0.27077326,0.7970405,0.59278095,0.32484832,0.27077326,-0.007841423,0.023428455,-0.0086464435,0.018863183,164,6,231,2,0,-7625.331,136.29732,-1323.2609,71.83984,-10621.95,-10.521722,166.71436,167.97154,170.64305,170.64305,-6.3316727,1,994.13245,0,0,18.564093,18.564098,0,1,27,0,0,0,1,-3,127,0
True,22147828,15999.99,0,9591.323,-20.234718,-1.4721285,-2.5093925,3.007906,0.025233507,71.35662,0.011016737,-0.37275985,-0.025335744,1.8981451,-0.06480454,0.040642496,0.21350366,0.44915468,0.21543983,0.4469869,0.008087335,0.0019353296,0.04674425,-0.00060628855,220.4132,222.1294,221.18527,222.08356,0,0,0,0,0,0,0,0,0.120000005,0,0.120000005,0,-0.33456433,-0.3174853,-0.56618893,-0.45407262,0.33466208,0.3174912,0.56811523,0.45407304,-0.0064766593,0.022429802,-0.0032783896,0.024250843,164,6,231,2,0,-7617.6714,136.86713,-1326.3722,71.41998,3215.1284,3.2009602,166.59535,168.00897,170.35928,170.35928,-5.684103,1,1001.4126,0,0,18.679808,18.679813,0,1,31,0,0,0,1,0,127,0
True,22147921,15999.99,0,9539.038,-24.89395,1.7896552,-1.9179535,2.625309,0.058456898,70.97102,0.06338823,-0.22670712,-0.17140304,1.8648579,-0.06837766,0.028134413,0.19425848,0.4355818,0.18377398,0.43870848,0.05602631,0.0046531297,0.019856403,0.0017121494,220.34392,220.59642,219.89984,220.51445,0,0,0,0,0,0,0,0,0.120000005,0,0.120000005,0,-0.38129315,-0.2707769,-0.4660964,-0.33715734,0.38538733,0.27081686,0.46651918,0.3371617,-0.008837394,0.020764865,-0.007043224,0.023266599,164,6,231,2,0,-7610.7207,137.37605,-1328.9053,71.019585,27101.92,27.132725,166.55948,168.0904,170.10503,170.10503,-9.407595,1,1008.5109,0,0,18.783941,18.783949,0,1,38,0,0,0,1,0,118,0
True,22148031,15999.99,0,9515.958,-15.499841,-4.4620867,-2.5321407,2.1745205,-0.2552213,70.617165,0.040202748,-0.08389477,0.061216354,1.8453903,-0.06642358,0.016838938,0.1736371,0.28724787,0.08137097,0.35428208,0.044525564,0.01873915,0,0.02397073,219.47086,219.44897,220.27965,219.58478,0,0,0,0,0,0,0,0,0,0,0,0,-0.33228472,-0.32021052,0,-0.32886502,0.3352546,0.32075837,0,0.32973748,-0.011366945,0.0025692768,-0.019218184,0.013228927,164,6,231,2,0,-7602.894,137.94096,-1331.4631,70.6511,37324.645,37.45519,166.42511,168.09018,169.71884,169.71884,-14.7,1,1015.74255,0,0,18.900486,18.900496,0,1,41,0,0,0,1,0,104,42
True,22148140,15999.99,0,9462.264,-14.369389,-0.03753203,-2.1388726,0.7493458,-0.2758718,70.39657,0.017389439,0.04423746,-0.012077445,1.8433304,-0.066052996,0.015332965,0.3195379,0.42310807,0.31071553,0.4146942,0.016402315,0.012540654,0.014118122,0.014123154,218.65292,218.37767,218.62154,218.44325,0,0,0,0,0,0,0,0,0,0,0,0,-0.12589777,-0.11430196,-0.097045794,-0.08318788,0.12696174,0.11498785,0.098067366,0.084378235,0.0065301806,0.019234758,0.008049183,0.02041148,164,6,231,2,0,-7595.462,138.41724,-1333.7123,70.4011,67838.43,68.45726,166.33232,168.06418,169.46655,169.46655,-14.7,1,1022.8409,0,0,19.010803,19.010815,0,1,50,0,0,0,1,0,89,32
True,22148250,15999.99,0,9446.875,-4.1027865,-4.331976,-1.4832978,0.0065135956,-0.07939196,70.19525,0.120095566,0.049110215,0.0010077171,1.8496597,-0.056566883,0.017149001,0.30581066,0.30459157,0.3122454,0.3564358,0.024656408,0.037177887,0.032532353,0.039883327,218.09303,218.09106,218.26585,218.1615,0,0,0,0,0,0,0,0,0,0,0,0,-0.013344926,-0.010933073,0.00619847,0.010251914,0.028036145,0.038752127,0.033117596,0.041179866,0.0048463084,0.004696768,0.008231077,0.013484985,164,6,231,2,0,-7588.0576,138.87927,-1335.8417,70.195305,84660.87,85.57743,166.15837,167.90552,169.17455,169.17455,-14.7,1,1029.5718,0,0,19.120602,19.120615,0,1,55,0,0,0,1,0,70,4
True,22148375,15999.99,0,9424.523,0.28113496,-7.1000576,-1.732404,-0.17607117,-0.09137043,70.02049,0.10643901,0.019160403,-0.078406624,1.8537549,-0.044382814,0.009920822,0.2843812,0.20001474,0.29363835,0.20116663,0.029379128,0.031102002,0.036150295,0.04103547,217.56105,217.49918,217.72684,217.71768,0,0,0,0,0,0,0,0,0,0,0,0,0.0254774,0.02731679,0.033882387,0.035140846,0.038887415,0.041394945,0.049546544,0.054025814,0.0022176355,-0.008131295,0.0060188323,-0.0049753673,164,6,231,2,0,-7580.4907,139.26506,-1338.0139,70.02076,84835.43,85.95295,165.96391,167.70065,168.8584,168.8584,0,1,1036.4465,0,0,19.233038,19.233051,0,1,55,0,0,0,1,0,46,0
True,22148468,15999.99,0,9398.972,1.4270508,-3.4639916,-1.5705879,-0.093774796,-0.10912129,69.883644,0.043671913,0.0009778626,-0.11323766,1.8549473,-0.040128555,0.0008509766,0.38953704,0.22286841,0.34995237,0.27028042,0.019513037,0.02641309,0.02285064,0.020896045,216.99655,217.11105,217.08855,217.0526,0,0,0,0,0,0,0,0,0,0,0,0,0.017839035,0.020458758,0.016045019,0.017354168,0.026438415,0.03340976,0.027921218,0.027162692,0.015116721,-0.0053279176,0.012714155,0.0032417476,164,6,231,2,0,-7573.8716,139.54073,-1339.9288,69.8838,95047.36,96.56221,165.83304,167.55475,168.6178,168.6178,0,1,1042.4547,0,0,19.331621,19.331635,0,1,58,0,0,0,1,0,27,0
True,22148578,15999.99,0,9389.953,-1.0023634,-4.200662,-1.358198,0.06219673,-0.102393836,69.73006,0.112133875,-0.09663569,-0.17479031,1.8511486,-0.03353926,-0.016794128,0.31477904,0.18894067,0.33825225,0.21106417,0.065510355,0.034862667,0.045399766,0.028976955,216.97377,216.8833,216.74734,216.88747,0,0,0,0,0,0,0,0,0,0,0,0,-0.29994413,-0.27807447,-0.01996494,-0.016448434,0.3070148,0.28025135,0.049595743,0.033319887,0.0059464276,-0.009489711,0.011323094,-0.0037986226,164,6,231,2,0,-7566.3105,139.8225,-1342.1251,69.730156,108487.67,110.33118,165.69402,167.40472,168.36217,168.36217,0,1,1049.3248,0,0,19.44449,19.444504,0,1,62,0,0,0,1,-109,5,0
True,22148687,15999.99,0,9373.776,-9.302219,-3.4893296,-1.1824708,0.6684437,-0.17310002,69.58625,0.0137276575,-0.34901768,-0.17594679,1.826776,-0.028548285,-0.03466356,0.2838299,0.18104482,0.29154852,0.188991,0.08279124,0.023111306,0.06897962,0.013456383,216.05289,216.6693,216.26848,216.82889,0,0,0,0,0,0,0,0,0,0,0,0,-0.6558629,-0.56008595,-0.14894007,-0.13205037,0.6610677,0.5605626,0.16413815,0.13273422,0.0021500066,-0.010458268,0.0057703704,-0.0064229593,164,6,231,2,0,-7558.899,140.03464,-1344.2145,69.58968,141956.2,144.60844,165.70262,167.47516,168.11871,168.11871,0,1,1056.048,0,0,19.555075,19.555088,0,1,72,0,0,0,1,-81,242,0
True,22148796,15999.99,0,9360.678,-12.698079,-2.0282574,-0.8195871,1.6349363,-0.1194461,69.45727,0.0012182631,-0.2053038,-0.12867483,1.7921337,-0.026730955,-0.048934955,0.2702726,0.22879131,0.23501928,0.22734573,0.030850288,0.015575121,0.082706705,0.025776103,215.42482,216.15518,216.37958,216.40321,0,0,0,0,0,0,0,0,0,0,0,0,-0.18727653,-0.17239717,-0.28862885,-0.24256597,0.18980053,0.17309931,0.30024493,0.24393167,0.00048698485,-0.004601378,-0.0009505376,-0.0018628649,164,6,231,2,0,-7551.5312,140.22157,-1346.1361,69.47661,148725.8,151.71877,165.65671,167.49965,167.97578,167.97578,0,1,1062.7301,0,0,19.664623,19.664637,0,1,74,0,0,0,1,0,228,0
True,22148906,15999.99,0,9343.658,-12.12016,-0.109763145,-0.9169189,0.8196335,-0.09695202,69.37727,0.050064214,0.022090403,-0.042203024,1.7830515,-0.0278286,-0.059724536,0.33296224,0.36318803,0.3064611,0.32779983,0.04861595,0.030344484,0.03741381,0.033349983,215.98932,215.5862,215.85262,215.72144,0,0,0,0,0,0,0,0,0,0,0,0,-0.13458593,-0.12306251,-0.11415629,-0.10526374,0.14309746,0.12674844,0.12013098,0.11042046,0.008176893,0.011884581,0.0075433627,0.010080386,164,6,231,2,0,-7544.0815,140.4142,-1347.9037,69.38219,162187.81,165.75626,165.57379,167.48993,167.86218,167.86218,0,1,1069.4482,0,0,19.774946,19.774958,0,1,78,0,0,0,1,0,219,0
True,22149031,15999.99,0,9357.8955,-3.4819722,-6.571268,-0.053593516,0.15481949,-0.11833292,69.315636,0.12912528,0.05550916,0.045491293,1.7881081,-0.015887707,-0.0581845,0.19834974,0.27114767,0.24649875,0.29457846,0.08299316,0.06316884,0.06433179,0.07551293,216.3615,215.7857,216.16463,216.11343,0,0,0,0,0,0,0,0,0,0,0,0,-0.0466759,-0.043277137,-0.016888546,-0.016736314,0.0952182,0.07657162,0.066511676,0.07734537,-0.0083355345,0.00059432536,0.0004142858,0.006130606,164,6,231,2,0,-7536.423,140.57423,-1349.6237,69.31591,162095.73,165.41359,165.41495,167.34966,167.6654,167.6654,0,1,1076.4207,0,0,19.888163,19.888174,0,1,78,0,0,0,1,-1,216,0
True,22149125,15999.99,0,9335.113,-0.59908164,-5.4662194,-0.24069552,-0.0550766,-0.16160911,69.29425,0.045592893,0.011334282,0.043645892,1.7906203,-0.008115393,-0.053307064,0.2323457,0.29160598,0.19489694,0.25993672,0.030640287,0.036987476,0.04419333,0.04479898,215.40585,215.46306,215.69345,215.65456,0,0,0,0,0,0,0,0,0,0,0,0,0.003270677,0.00471795,0.006794432,0.008185025,0.030814357,0.03728716,0.04471258,0.045540567,-0.0041653737,0.003103871,-0.0057207868,0.0020119622,164,6,231,2,0,-7529.6562,140.63739,-1351.129,69.29446,162239.11,165.95569,165.28966,167.22275,167.48824,167.48824,0,1,1082.5068,0,0,19.988192,19.988203,0,1,78,0,0,0,1,0,218,0
True,22149234,15999.99,0,9337.407,0.46235093,-6.1627936,0.088969894,-0.026043892,-0.18458307,69.2657,0.084248245,0.004180438,0.022421576,1.7908825,0.002211564,-0.051077943,0.16916858,0.19821376,0.20462826,0.22795492,0.052393556,0.044171657,0.050965916,0.05272587,215.64075,215.48305,215.67914,215.6943,0,0,0,0,0,0,0,0,0,0,0,0,0.0014426302,0.0030030902,0.0027808868,0.0044484087,0.052413415,0.044273626,0.051041726,0.05291319,-0.011915086,-0.008352216,-0.0045638047,-0.0017904378,164,6,231,2,0,-7521.8535,140.64035,-1352.8679,69.26595,165563.86,169.32004,165.13176,167.05634,167.30289,167.30289,0,1,1089.5255,0,0,20.10359,20.103603,0,1,79,0,0,0,1,0,223,0
True,22149343,15999.99,0,9349.659,0.79244685,-7.8384604,0.14662272,0.00505352,-0.19214785,69.25304,0.11293298,0.015023394,0.02955528,1.7908788,0.013915471,-0.048440058,0.13269758,0.16116878,0.16978279,0.19159116,0.071383156,0.06980803,0.06811462,0.07286459,215.94853,215.82468,215.937,215.95717,0,0,0,0,0,0,0,0,0,0,0,0,0.04357053,0.044906322,-0.0027048562,0.0022993835,0.08362982,0.083004445,0.068168305,0.07290086,-0.01638885,-0.012896389,-0.008706674,-0.00611382,164,6,231,2,0,-7515.1367,140.56558,-1354.368,69.2533,175475.03,179.21451,164.9911,166.91153,167.14319,167.14319,0,1,1095.5996,0,0,20.202974,20.202984,0,1,82,0,0,0,1,10,230,0
