IsRaceOn,TimestampMS,EngineMaxRpm,EngineIdleRpm,CurrentEngineRpm,AccelerationX,AccelerationY,AccelerationZ,VelocityX,VelocityY,VelocityZ,AngularVelocityX,AngularVelocityY,AngularVelocityZ,Yaw,Pitch,Roll,NormalizedSuspensionTravelFrontLeft,NormalizedSuspensionTravelFrontRight,NormalizedSuspensionTravelRearLeft,NormalizedSuspensionTravelRearRight,TireSlipRatioFrontLeft,TireSlipRatioFrontRight,TireSlipRatioRearLeft,TireSlipRatioRearRight,WheelRotationSpeedFrontLeft,WheelRotationSpeedFrontRight,WheelRotationSpeedRearLeft,WheelRotationSpeedRearRight,WheelOnRumbleStripFrontLeft,WheelOnRumbleStripFrontRight,WheelOnRumbleStripRearLeft,WheelOnRumbleStripRearRight,WheelInPuddleDepthFrontLeft,WheelInPuddleDepthFrontRight,WheelInPuddleDepthRearLeft,WheelInPuddleDepthRearRight,SurfaceRumbleFrontLeft,SurfaceRumbleFrontRight,SurfaceRumbleRearLeft,SurfaceRumbleRearRight,TireSlipAngleFrontLeft,TireSlipAngleFrontRight,TireSlipAngleRearLeft,TireSlipAngleRearRight,TireCombinedSlipFrontLeft,TireCombinedSlipFrontRight,TireCombinedSlipRearLeft,TireCombinedSlipRearRight,SuspensionTravelMetersFrontLeft,SuspensionTravelMetersFrontRight,SuspensionTravelMetersRearLeft,SuspensionTravelMetersRearRight,CarOrdinal,CarClass,CarPerformanceIndex,DrivetrainType,NumCylinders,PositionX,PositionY,PositionZ,Speed,Power,Torque,TireTempFl,TireTempFr,TireTempRl,TireTempRr,Boost,Fuel,Distance,BestLapTime,LastLapTime,CurrentLapTime,CurrentRaceTime,Lap,RacePosition,Accelerator,Brake,Clutch,Handbrake,Gear,Steer,NormalDrivingLine,NormalAiBrakeDifference
True,28018187,15999.99,0,2040.2524,-8.285018,0.31291506,1.9833618,1.0041974,0.014053173,-15.375898,-0.0139051415,-1.0191866,0.15223156,-1.299637,0.05343304,0.04703438,0.27136424,0.41896495,0.28074107,0.30117467,0.048266374,-0.0028256949,0.12907076,-0.07629416,-49.100334,-45.212795,-47.73037,-46.4659,0,0,0,0,0,0,0,0,0.59999996,0.59999996,0.59999996,0.59999996,0.04811111,0.063188836,-0.49648076,-0.5480437,0.06814926,0.06325199,0.51298386,0.55332875,0.0006208904,0.018726535,0.004485447,0.0069148466,164,6,231,2,0,872.73663,175.57512,-1406.3473,15.408662,-5313.7646,-24.87597,170.68355,181.2145,177.2537,177.2537,-5.879999,1,166.83743,0,0,0.7073122,14.611252,0,7,0,0,0,0,0,0,129,0
True,28032500,15999.99,0,96.00159,0.009256721,-0.034892894,4.5653076,0.0025576204,-0.0040395027,0.495652,-0.024792083,-0.00054152304,-0.010854685,2.085649,-0.012972544,-0.000656012,0.25797755,0.26187557,0.2489939,0.25350025,0.76648533,-0.044335347,1.2864971,0.11367234,1.4482422,2.950748,1.4485555,3.0047185,0,0,0,0,0,0,0,0,0,0,0,0,0.013997917,0.014039725,-0.012395254,-0.0123611735,0.7666131,0.046505235,1.2865568,0.114342466,-0.0010212064,-0.00054305047,0.00071094185,0.0012467131,164,6,231,2,0,159.91438,161.75098,-1275.0684,0.495675,8700.319,775.48224,92.69355,92.6888,92.86719,92.86719,0,1,-51.654495,0,0,0.10035741,0.10035741,0,7,255,0,0,0,1,0,58,0
True,28032609,15999.99,0,304.69083,0.056994915,-0.0360801,11.609892,0.0035208464,-0.008936165,1.7750676,-0.03796839,-0.0032743271,-0.017223258,2.0853326,-0.016301092,-0.0022058263,0.2285605,0.24905412,0.27676508,0.3001712,1.9459529,0.40058905,0.829445,0.51260185,8.917501,6.194203,7.0035744,6.5082383,0,0,0,0,0,0,0,0,0,0,0,0,0.030712914,0.03149354,-0.0145450365,-0.01323534,1.9461952,0.40182513,0.8295725,0.5127727,-0.00462969,-0.0021158122,0.00401273,0.0067955405,164,6,231,2,0,160.0118,161.75195,-1275.1238,1.7750934,48243.605,1546.6406,92.82905,92.7945,93.07691,93.07691,0,1,-51.582012,0,0,0.20305279,0.2030528,0,7,255,0,0,0,1,0,58,0
True,28032718,15999.99,0,525.7703,0.07609129,-0.013878066,13.581445,0.018139005,-0.008477916,3.3710856,-0.007308569,0.01199451,0.0072078584,2.0851045,-0.018267814,-0.0021898218,0.1963014,0.23758288,0.30189583,0.3413477,1.7018218,0.4993841,0.9196494,0.8624774,13.459961,11.416918,11.947683,12.016934,0,0,0,0,0,0,0,0,0,0,0,0,0.3371167,0.33949584,-0.009312255,-0.0055275876,1.7348906,0.60385585,0.91969657,0.8624951,-0.008586798,-0.0035229474,0.007000588,0.011691127,164,6,231,2,0,160.27257,161.75653,-1275.2712,3.371145,84244.016,1546.6406,96.29326,92.92465,93.45095,93.45095,0,1,-51.388283,0,0,0.31998634,0.3199864,0,7,255,0,0,0,1,16,58,0
True,28032828,15999.99,0,700.83093,3.5734053,-0.11878432,11.317476,0.38037753,-0.02307583,4.5311975,-0.002781385,0.3100973,0.00047975383,2.1021392,-0.017936483,-0.0003382415,0.20353475,0.21992588,0.30099225,0.321546,0.51622415,0.9063547,1.0899441,2.0265286,15.814508,14.696074,16.633184,16.743528,0,0,0,0,0,0,0,0,0,0,0,0,-0.08117856,-0.090113424,0.011282878,0.015494926,0.522568,0.9108234,1.0900025,2.026588,-0.007699508,-0.0056888685,0.0068931617,0.009336848,164,6,231,2,0,160.62039,161.76231,-1275.4958,4.547194,98649.99,1341.3326,97.54703,94.75106,93.69973,93.69973,0,1,-51.120964,0,0,0.42413273,0.42413276,0,7,255,0,0,0,1,0,57,0
True,28032937,15999.99,0,845.8362,-1.5647955,-0.1255829,12.00275,0.0295043,-0.03737806,5.8247433,-0.002326045,0.031233504,-0.0059959413,2.1189628,-0.018504668,-0.0024346693,0.18337068,0.21818641,0.29359916,0.32662803,0.9780229,1.3077543,0.8633711,0.7666974,20.106094,18.41649,19.797413,19.566114,0,0,0,0,0,0,0,0,0,0,0,0,-0.14328952,-0.13522233,0.026986308,0.029007955,0.98846376,1.3147267,0.8637927,0.76724595,-0.010172963,-0.005902242,0.0060141794,0.009941068,164,6,231,2,0,161.08154,161.76917,-1275.7969,5.8249383,136991.67,1546.6406,98.7042,94.97262,94.28078,94.28078,0,1,-50.76552,0,0,0.5299563,0.52995634,0,7,255,0,0,0,1,0,56,0
True,28033046,15999.99,0,1088.1876,-0.48702765,-0.18138075,14.96409,-0.0032725334,-0.06476268,7.488097,-0.013690749,-0.009907149,0.005593512,2.1189966,-0.019812498,-0.0023346466,0.16942887,0.20851865,0.29692024,0.33353713,2.0069594,0.5110747,0.77944756,0.5940078,27.287786,24.3212,24.930557,24.60346,0,0,0,0,0,0,0,0,0,0,0,0,0.019361412,0.022041423,-0.015145378,-0.011356557,2.007053,0.5115498,0.77959466,0.59411633,-0.011883156,-0.007088151,0.0064090304,0.010762509,164,6,231,2,0,161.69054,161.77739,-1276.1698,7.4883776,175352.78,1546.6406,101.17485,95.04355,94.62953,94.62953,0,1,-50.304,0,0,0.6369889,0.6369889,0,7,255,0,0,0,1,0,56,0
True,28033156,15999.99,0,1356.6499,-0.21241713,-0.19076708,15.204979,-0.007771492,-0.09365849,9.342527,-0.00037367875,-0.0106972745,0.015745422,2.1176434,-0.020407503,-0.00082006137,0.15682556,0.19588749,0.31017488,0.33686838,1.9980102,0.5360972,0.6843765,0.663681,34.01565,30.391743,30.869238,30.849333,0,0,0,0,0,0,0,0,0,0,0,0,0.018731086,0.021611111,-0.012178969,-0.0077094627,1.998098,0.53653264,0.68448484,0.66372573,-0.013429159,-0.00863757,0.007984906,0.011158567,164,6,231,2,0,162.56914,161.78835,-1276.7045,9.343,218787.97,1546.6406,104.477905,95.14697,94.95613,94.95613,0,1,-49.6392,0,0,0.7589893,0.7589893,0,7,255,0,0,0,1,0,55,0
True,28033265,15999.99,0,1565.4526,-0.047359943,-0.14637801,15.883291,-0.0060067177,-0.10770359,11.032953,-0.00056893425,-0.0023926303,0.012977836,2.1168687,-0.020438341,0.00088105636,0.16579263,0.18892172,0.32035068,0.33542153,0.66935015,0.68012315,0.5706177,0.5783216,36.21541,36.275745,36.087063,36.119957,0,0,0,0,0,0,0,0,0,0,0,0,0.0038456067,0.00722062,-0.0026683114,0.002177136,0.6693612,0.6801615,0.57062393,0.5783257,-0.0123292,-0.009492036,0.009194732,0.010986548,164,6,231,2,0,163.49463,161.79968,-1277.2664,11.033481,252712.03,1546.6406,105.82672,95.29086,95.24147,95.24147,0,1,-48.939323,0,0,0.8650846,0.86508465,0,7,255,0,0,0,1,0,54,0
True,28033375,15999.99,0,1800.6787,-0.024570942,-0.17230095,15.733982,-0.003238678,-0.124027655,12.70563,0.0005221334,-0.00039044165,0.0071735308,2.1167676,-0.020386474,0.0019228283,0.16883159,0.18104795,0.32402167,0.3344549,0.5932765,0.68200755,0.5730699,0.56523377,41.471306,41.78118,41.57797,41.549885,0,0,0,0,0,0,0,0,0,0,0,0,-0.00018344233,0.0031165928,-0.0016823488,0.003361229,0.59327656,0.68201464,0.5730723,0.5652438,-0.01195642,-0.0104578845,0.009631187,0.010871619,164,6,231,2,0,164.57509,161.8132,-1277.9224,12.706235,290730.38,1546.6406,105.44903,95.47072,95.48678,95.48678,0,1,-48.122284,0,0,0.9713958,0.97139585,0,7,255,0,0,0,1,0,53,0
True,28033500,15999.99,0,2065.948,0.026613235,-0.14522529,15.732365,-0.0014877319,-0.14534253,14.593927,-0.003412407,-0.0006475791,0.00078632764,2.1167078,-0.020546993,0.0024028402,0.17469232,0.17552993,0.3238036,0.3325424,0.55237436,0.68474144,0.56625116,0.5490117,47.481262,48.003178,47.727276,47.664238,0,0,0,0,0,0,0,0,0,0,0,0,4.2573356E-05,0.003229689,-0.0019746765,0.0030402448,0.55237436,0.68474907,0.5662546,0.5490201,-0.011237508,-0.011134759,0.009605262,0.010644238,164,6,231,2,0,165.97882,161.83057,-1278.7749,14.594651,333705.62,1546.6406,105.05487,95.68904,95.77063,95.77063,0,1,-47.060936,0,0,1.0915424,1.0915425,0,7,255,0,0,0,1,0,52,0
True,28033609,15999.99,0,2303.08,-0.011795044,-0.106491394,15.658987,0.00034999847,-0.16473761,16.28762,-0.005158521,-0.0007398536,-0.00497328,2.1166313,-0.021050412,0.002166413,0.18016517,0.17295456,0.32573342,0.3324758,0.54049486,0.67009234,0.55229455,0.5345027,52.94224,53.508316,53.20366,53.133617,0,0,0,0,0,0,0,0,0,0,0,0,-0.00014460724,0.0030790055,-0.002306689,0.0028230264,0.5404949,0.67009944,0.5522994,0.53451014,-0.010566171,-0.0114506725,0.009834699,0.010636322,164,6,231,2,0,167.40454,161.8485,-1279.6409,16.288452,372085.7,1546.6406,104.73635,95.890625,96.02452,96.02452,0,1,-45.982662,0,0,1.1994351,1.1994351,0,7,255,0,0,0,1,0,51,0
True,28033703,15999.99,0,2538.6624,-0.05876112,-0.10756069,15.631646,0.0019373894,-0.1819126,17.975216,-0.0035506077,-0.00092723477,-0.0076135043,2.116539,-0.021524953,0.001448883,0.18447189,0.1739665,0.3294872,0.33266476,0.5571019,0.60768414,0.53964835,0.52976644,58.506363,58.745026,58.649612,58.612522,0,0,0,0,0,0,0,0,0,0,0,0,-0.00067832967,0.0026201478,-0.0030652646,0.002230066,0.5571023,0.6076898,0.53965706,0.52977115,-0.01003788,-0.01132654,0.010280997,0.010658789,164,6,231,2,0,168.9823,161.86913,-1280.5992,17.976137,410251.56,1546.6406,104.45874,96.087875,96.277054,96.277054,0,1,-44.789413,0,0,1.3070663,1.3070664,0,7,255,0,0,0,1,0,50,0
True,28033812,15999.99,0,2772.1277,0.05895567,-0.088064805,15.684208,0.0023860931,-0.19810942,19.641455,-0.003660533,-0.00040342147,-0.006414685,2.1164637,-0.021895206,0.0006641932,0.18643755,0.17875886,0.33401725,0.3329074,0.57685405,0.5596765,0.52898306,0.53072697,64.03211,63.94417,64.0321,64.04528,0,0,0,0,0,0,0,0,0,0,0,0,-0.0016185546,0.00169104,-0.0033230537,0.002219251,0.5768563,0.5596791,0.5289935,0.5307316,-0.009796761,-0.010738678,0.010819588,0.010687634,164,6,231,2,0,170.6959,161.89244,-1281.6401,19.642452,448074.9,1546.6406,104.22763,96.265884,96.5267,96.5267,0,1,-43.4934,0,0,1.4135528,1.4135526,0,7,255,0,0,0,1,0,48,0
True,28033937,15999.99,0,3037.247,-0.059339046,-0.11139307,15.578222,0.0015096664,-0.21763203,21.526487,-0.0008678058,8.07121E-05,-0.0032602702,2.1164536,-0.02224564,0.000101447105,0.18879378,0.1856354,0.33849984,0.33593208,0.57132924,0.57517785,0.5230802,0.52098525,70.14229,70.17021,70.14234,70.13165,0,0,0,0,0,0,0,0,0,0,0,0,-0.0020590683,0.0014250813,-0.0032381215,0.00264979,0.57133293,0.57517964,0.52309024,0.520992,-0.009507731,-0.009895157,0.011352532,0.011047248,164,6,231,2,0,172.82253,161.92232,-1282.9315,21.527588,491008.53,1546.6406,104.01111,96.46394,96.81047,96.81047,0,1,-41.88511,0,0,1.5343087,1.5343084,0,7,255,0,0,0,1,0,46,0
True,28034046,15999.99,0,3259.544,-0.010259628,-0.2661639,15.415701,0.0014801025,-0.23383932,23.144085,0.015071342,-5.5582357E-05,-0.0051112953,2.1164591,-0.02164215,-0.00028800595,0.1910214,0.1863602,0.3403203,0.34049743,0.54237103,0.61521506,0.5022166,0.4907965,75.19259,75.63908,75.23565,75.16998,0,0,0,0,0,0,0,0,0,0,0,0,-0.001863054,0.002063726,-0.0030841324,0.002977198,0.5423742,0.6152185,0.50222605,0.49080554,-0.009234477,-0.009806249,0.011568975,0.0115900375,164,6,231,2,0,174.83116,161.95038,-1284.1512,23.145267,505848.28,1484.1685,103.8545,96.6548,97.05823,97.05823,0,1,-40.3661,0,0,1.6394078,1.6394075,0,7,255,0,0,0,1,0,45,0
True,28034156,15999.99,0,3463.758,-0.102809906,-0.49877322,14.678085,0.003047943,-0.23398103,24.690784,0.025703425,-0.00064905663,-0.0077152774,2.1164155,-0.019164054,-0.0010045487,0.19526884,0.18627027,0.33857334,0.34011325,0.47058934,0.489852,0.4865109,0.4833764,79.73323,79.84629,80.110664,80.09767,0,0,0,0,0,0,0,0,0,0,0,0,-0.0018119278,0.0019519987,-0.0035197465,0.002313683,0.47059283,0.48985592,0.48652363,0.48338196,-0.008713458,-0.00981728,0.011361275,0.011544354,164,6,231,2,0,176.98997,161.97725,-1285.4622,24.691895,517599.56,1428.8967,103.703964,96.84036,97.29225,97.29225,0,1,-38.733505,0,0,1.7449063,1.7449063,0,7,255,0,0,0,1,0,43,0
True,28034265,15999.99,0,3663.4995,0.015312195,-0.24221003,14.4716425,0.001115799,-0.23681486,26.262367,-0.013123824,0.002158086,0.0011403104,2.1164727,-0.018180499,-0.0013525909,0.2031479,0.20033287,0.3398518,0.33431396,0.39114174,0.34710708,0.42839596,0.441218,84.30774,84.006516,84.8128,84.88702,0,0,0,0,0,0,0,0,0,0,0,0,-0.0031324106,-0.00061799,-0.0025536167,0.0032622141,0.39115426,0.34710762,0.42840356,0.44123006,-0.007746961,-0.008092273,0.011513274,0.010854863,164,6,231,2,0,179.36517,162.00261,-1286.9044,26.263433,545906.4,1424.7593,103.55472,96.98041,97.52394,97.52394,0,1,-36.93732,0,0,1.8538951,1.8538952,0,7,255,0,0,0,1,0,41,0
True,28034359,15999.99,0,3868.8833,0.10066986,0.49102497,14.429102,-0.0007791519,-0.25858378,27.812248,-0.035015106,0.0014968241,0.006696447,2.1166813,-0.021449836,-0.00067045353,0.20244958,0.19968514,0.3461284,0.3387466,0.35743448,0.37668893,0.37735108,0.3763178,89.06497,89.19799,89.47815,89.45815,0,0,0,0,0,0,0,0,0,0,0,0,-0.0024694782,-0.00011231994,-0.0031005172,0.0031307267,0.357443,0.37668896,0.3773638,0.37633082,-0.007832624,-0.008171726,0.012259513,0.011381876,164,6,231,2,0,181.86378,162.03342,-1288.4219,27.81345,580073.5,1433.666,103.40834,97.1024,97.732414,97.732414,0,1,-35.047695,0,0,1.9619396,1.9619397,0,7,255,0,0,0,1,0,39,0
True,28034468,15999.99,0,4075.8716,0.083805084,0.22593576,13.932198,0.0021810532,-0.26148164,29.273891,0.016152188,0.0017483142,-0.005238089,2.1168277,-0.022503044,-0.00014489795,0.18324184,0.17581666,0.3369152,0.3280381,0.35918865,0.45432612,0.3906661,0.37936038,93.67786,94.42173,94.220695,94.126915,0,0,0,0,0,0,0,0,0,0,0,0,-0.0026280677,0.000570877,-0.0021830897,0.0025400817,0.35919827,0.45432648,0.3906722,0.37936887,-0.010188766,-0.011099588,0.011164129,0.010108713,164,6,231,2,0,184.4314,162.07297,-1289.9819,29.275055,592269.3,1389.3364,103.29773,97.23783,97.92756,97.92756,0,1,-33.10563,0,0,2.0671182,2.0671182,0,7,255,0,0,0,1,0,37,0
True,28034593,15999.99,0,4283.655,0.047749043,-0.6301484,13.277263,0.006937027,-0.28504515,30.722689,0.038815025,5.5908196E-05,-0.0010586604,2.1167955,-0.020792272,0.00010589509,0.15971449,0.16056848,0.31288892,0.30452532,0.62576973,0.40043187,0.34788162,0.38247156,100.38352,98.60842,98.51048,98.734055,0,0,0,0,0,0,0,0,0,0,0,0,-0.004268781,-0.00067406363,-0.0034225578,-0.001127181,0.6257843,0.40043244,0.34789845,0.3824732,-0.013074782,-0.012970027,0.008307587,0.007313218,164,6,231,2,0,187.22575,162.11488,-1291.6805,30.72401,580277,1294.8885,103.21145,97.38385,98.136925,98.136925,0,1,-30.991446,0,0,2.1760337,2.1760337,0,7,255,0,0,0,1,0,34,0
True,28034687,15999.99,0,4484.136,-0.05779314,-0.99131024,13.210668,0.0070495605,-0.2713182,32.150455,0.007788429,-0.0029375665,-0.0007549522,2.1166208,-0.016636627,0.000774241,0.1848102,0.18494923,0.29264644,0.29160944,0.33839726,0.387888,0.4453845,0.44315043,102.74286,103.13024,103.92452,103.8666,0,0,0,0,0,0,0,0,0,0,0,0,-0.0022292894,0.00034470658,-0.0038737839,-0.0029891704,0.33840463,0.38788816,0.44540134,0.4431605,-0.009996381,-0.009979326,0.0059009045,0.005777616,164,6,231,2,0,190.14433,162.14822,-1293.4546,32.151596,636286.6,1356.228,103.158005,97.530716,98.35211,98.35211,0,1,-28.783766,0,0,2.2846398,2.28464,0,7,255,0,0,0,1,0,32,0
True,28034812,15999.99,0,4704.742,-0.043712616,0.3310561,14.146967,0.00511837,-0.30587322,33.86226,-0.03349136,-0.00045301326,-0.0038568117,2.1164205,-0.019126808,0.00015068146,0.213591,0.20807296,0.32840782,0.329265,0.3632422,0.33407125,0.36188918,0.36862442,108.491936,108.22341,108.786026,108.841705,0,0,0,0,0,0,0,0,0,0,0,0,-0.0023450174,0.00014071362,-0.0035498282,0.0010155449,0.36324978,0.33407128,0.36190662,0.36862582,-0.0064659454,-0.007142823,0.010152668,0.0102545805,164,6,231,2,0,193.54523,162.18312,-1295.5205,33.86364,711289.4,1445.239,103.09367,97.683075,98.59621,98.59621,0,1,-26.211723,0,0,2.4051554,2.4051557,0,7,255,0,0,0,1,0,29,0
True,28034921,15999.99,0,4914.0195,0.02559948,0.052197948,13.655292,0.0018529892,-0.31576282,35.333908,0.02614148,0.0006533892,-0.0023212777,2.1164625,-0.01992668,-1.5263444E-05,0.21556503,0.20190386,0.3460776,0.3393816,0.38612664,0.43982702,0.37069035,0.36132252,113.29707,113.78429,113.49831,113.417305,0,0,0,0,0,0,0,0,0,0,0,0,-0.002394823,0.0012542614,-0.003215067,0.00260935,0.38613406,0.4398288,0.3707043,0.36133194,-0.006223798,-0.007899564,0.012253471,0.011457369,164,6,231,2,0,196.73648,162.22415,-1297.4584,35.33532,681271.6,1325.1663,103.06477,97.82506,98.8033,98.8033,0,1,-23.798393,0,0,2.5129755,2.5129755,0,7,255,0,0,0,1,0,26,0
True,28035031,15999.99,0,5105.123,-0.0033278465,-0.5594358,13.065518,0.0064525604,-0.2931527,36.70999,-0.0077163363,-0.00016109238,-0.007427472,2.1165013,-0.016860548,-0.00087677094,0.2584762,0.2513094,0.35317054,0.33897,0.2968511,0.29687193,0.42767143,0.42313185,116.9205,116.92738,118.470474,118.38634,0,0,0,0,0,0,0,0,0,0,0,0,-0.0024860906,0.00043759344,-0.0047148913,0.0017704766,0.2968615,0.29687226,0.42769742,0.42313555,-0.00096004084,-0.0018391646,0.013096772,0.011408433,164,6,231,2,0,200.01901,162.2613,-1299.4519,36.711166,706408.1,1322.527,103.04416,97.972176,99.00694,99.00694,0,1,-21.31599,0,0,2.6195588,2.6195588,0,7,255,0,0,0,1,0,24,0
True,28035140,15999.99,0,5280.397,0.10974693,0.37640518,13.372299,0.009901047,-0.31696388,38.131245,-0.005523108,0.0002160522,-0.010877103,2.1165578,-0.018929485,-0.002240271,0.32771036,0.30609667,0.41148835,0.38618076,0.32554695,0.31878966,0.32853752,0.33248562,121.71687,121.63074,122.07757,122.11569,0,0,0,0,0,0,0,0,0,0,0,0,-0.0039028407,0.00021816175,-0.009679978,0.0037016876,0.32557034,0.31878972,0.3286801,0.3325062,0.0075326636,0.004881393,0.020030327,0.017021444,164,6,231,2,0,203.4132,162.29945,-1301.5142,38.132565,741462.4,1342.0477,103.02945,98.0977,99.20778,99.20778,0,1,-18.748877,0,0,2.7256389,2.7256389,0,7,255,0,0,0,1,0,21,0
True,28035250,15999.99,0,5472.1064,0.06604147,0.292762,13.033861,0.003364563,-0.29132277,39.557476,-0.0127759855,0.0021427348,0.008195931,2.1166828,-0.018979575,-0.0025428722,0.3268855,0.3462879,0.4519899,0.44215783,0.2894643,0.25497475,0.33374876,0.34580594,125.90724,125.55245,126.67696,126.77286,0,0,0,0,0,0,0,0,0,0,0,0,-0.0040300293,-0.00036208073,-0.01362118,0.011412397,0.28949234,0.25497502,0.3340266,0.3459942,0.007431481,0.009811506,0.02484566,0.0236767,164,6,231,2,0,207.06715,162.34683,-1303.7343,39.558548,752900.1,1314.9427,103.03289,98.22499,99.41191,99.41191,0,1,-15.985196,0,0,2.835659,2.835659,0,7,255,0,0,0,1,0,18,0
True,28035343,15999.99,0,5629.743,0.070669174,0.5562756,12.68528,0.0009975433,-0.29467696,40.754986,-0.0036053087,-7.7733726E-05,0.008836298,2.1168365,-0.02056534,-0.0014282413,0.3153434,0.33223,0.4336419,0.45373076,0.27903393,0.31227946,0.3057068,0.29940194,129.58278,129.92819,130.19,130.12433,0,0,0,0,0,0,0,0,0,0,0,0,-0.0026347004,0.0012068948,-0.011542115,0.01229324,0.27904636,0.31228182,0.30592462,0.2996542,0.0060156547,0.0080870725,0.02266422,0.025052637,164,6,231,2,0,210.32272,162.39467,-1305.7123,40.75605,752944.06,1278.3118,103.039,98.32937,99.582275,99.582275,0,1,-11.606756,0,0,2.9304767,2.9304767,0,7,255,0,0,0,1,0,15,0
True,28035468,15999.99,0,5822.946,0.013781548,-0.5821197,12.019268,0.005821228,-0.2823065,42.068214,0.026899232,-0.0005592165,0.00372634,2.1167405,-0.018500559,-0.0010684422,0.27632877,0.28185442,0.40047047,0.4076449,0.31714207,0.29168996,0.34353447,0.3478854,134.09721,133.84549,134.73035,134.77402,0,0,0,0,0,0,0,0,0,0,0,0,-0.003246448,0.0001903809,-0.00880629,0.0062899254,0.3171587,0.29169002,0.34364733,0.34794226,0.0012298711,0.0019076839,0.018720385,0.019573368,164,6,231,2,0,214.21214,162.45311,-1308.076,42.069164,740567,1215.2949,103.06297,98.459435,99.77571,99.77571,0,1,-8.6647625,0,0,3.040333,3.040333,0,7,255,0,0,0,1,0,12,0
True,28035562,15999.99,0,5954.9067,-0.03046751,-0.16729736,11.9027815,0.0037937164,-0.29738373,43.224953,-0.02516457,-0.0009667964,-0.0018938147,2.1166835,-0.01842258,-0.0007624533,0.25710404,0.25833765,0.36094508,0.36574927,0.22981417,0.24742381,0.2905709,0.28584126,136.89127,137.09058,137.83696,137.79285,0,0,0,0,0,0,0,0,0,0,0,0,-0.001530526,0.00065179507,-0.0047786934,0.002918049,0.22981927,0.24742468,0.2906102,0.28585616,-0.0011283569,-0.0009770356,0.01402111,0.014592294,164,6,231,2,0,217.75946,162.49998,-1310.2316,43.22597,752714.9,1207.8258,103.091064,98.568375,99.94855,99.94855,0,1,-5.981664,0,0,3.1376317,3.1376317,0,7,255,0,0,0,1,0,9,0
True,28035687,15999.99,0,6143.0522,-0.0026187897,0.4753797,11.382797,0.0036296844,-0.31523865,44.58953,0.0081506735,9.970559E-05,-0.00607429,2.116621,-0.020747347,-0.0015015998,0.2705858,0.26840255,0.35806543,0.3587693,0.2841564,0.28318372,0.26850086,0.26785573,141.8013,141.79964,141.9136,141.90408,0,0,0,0,0,0,0,0,0,0,0,0,-0.00212598,0.0012242799,-0.003791682,0.0030373072,0.28416437,0.28318638,0.26852763,0.26787296,0.00052540377,0.00025758892,0.013678741,0.013762422,164,6,231,2,0,222.2716,162.56828,-1312.9728,44.590645,752297.1,1170.2643,103.12461,98.69316,100.14659,100.14659,0,1,-2.5689585,0,0,3.2578216,3.2578213,0,7,255,0,0,0,1,0,5,0
True,28035796,15999.99,0,6340.624,0.05777979,-1.6596931,10.808821,0.007762909,-0.29592806,45.834057,0.04457418,0.00077215984,-0.01869252,2.1166558,-0.015620321,-0.0031899076,0.28723806,0.28700137,0.35998747,0.3633424,0.30021355,0.2742743,0.3481839,0.35894054,145.87622,145.5788,146.75797,146.87306,0,0,0,0,0,0,0,0,0,0,0,0,-0.0023204389,0.0014316364,-0.0038606853,0.003788334,0.30022252,0.27427804,0.3482053,0.35896054,0.0025680736,0.0025390387,0.013907254,0.014306132,164,6,231,2,0,226.77113,162.63002,-1315.7063,45.835014,743310.4,1120.0428,103.177284,98.83371,100.33887,100.33887,0,1,0.834332,0,0,3.3742344,3.3742342,0,7,255,0,0,0,1,0,1,0
True,28035906,15999.99,0,6450.6665,-0.04271984,0.638237,10.947252,0.0066833496,-0.29795954,47.0812,-0.06173019,-0.0007392911,0.009576509,2.1167526,-0.016905282,-0.0034306056,0.40597337,0.43162793,0.4405421,0.4572775,0.16811638,0.16618976,0.22494179,0.22457176,148.35138,148.3362,149.31815,149.31465,0,0,0,0,0,0,0,0,0,0,0,0,-0.0032038304,-0.00034626125,-0.012951271,0.010603364,0.16814691,0.16619012,0.22531432,0.22482195,0.017132908,0.020279858,0.023484603,0.025474317,164,6,231,2,0,231.27798,162.67648,-1318.4452,47.082138,752675.7,1114.8724,103.234085,98.95534,100.53052,100.53052,0,1,4.243266,0,0,3.4877117,3.4877117,0,7,255,0,0,0,1,0,253,0
True,28036031,15999.99,0,6621.918,-0.07529831,1.7181776,10.330976,0.0070819855,-0.26465178,48.256065,0.0015571425,-0.0017340916,0.012694377,2.1166232,-0.02142795,-0.002357994,0.3955985,0.41086525,0.49784753,0.5185602,0.21836273,0.22067851,0.23393549,0.23114488,152.60567,152.65811,153.09868,153.08372,0,0,0,0,0,0,0,0,0,0,0,0,-0.0037911087,0.0003281148,-0.021950796,0.020503402,0.21839565,0.22067875,0.23496309,0.23205246,0.01586026,0.017732974,0.030297793,0.032760374,164,6,231,2,0,235.93439,162.75227,-1321.2745,48.256786,752778.2,1086.297,103.283295,99.06479,100.70978,100.70978,0,1,7.765377,0,0,3.6019745,3.6019742,0,7,255,0,0,0,1,0,249,0
True,28036140,15999.99,0,6808.3696,-0.072882175,-1.1217172,9.928696,0.0072517395,-0.2221708,49.385666,0.031462707,-0.00055796804,0.000649482,2.1164842,-0.017431298,-0.0018054707,0.3170894,0.3141176,0.4141162,0.41626304,0.23640655,0.22241876,0.32053027,0.32454014,156.36932,156.19778,157.72575,157.77646,0,0,0,0,0,0,0,0,0,0,0,0,-0.0027599358,-7.779036E-05,-0.0103568835,0.007459324,0.23642266,0.22241877,0.32069755,0.32462585,0.006229833,0.0058652908,0.02034276,0.020598002,164,6,231,2,0,240.71227,162.83537,-1324.177,49.386166,752632.9,1056.1478,103.3459,99.18346,100.88573,100.88573,0,1,11.379081,0,0,3.7164636,3.716463,0,7,255,0,0,0,1,0,245,0
True,28036234,15999.99,0,6895.7397,-0.13068247,0.33594102,9.945214,-0.001335144,-0.2755739,50.363483,-0.034046173,0.0007461887,0.018621705,2.1165426,-0.019348206,-0.00090564793,0.30017626,0.3095832,0.3719416,0.3694716,0.18618289,0.17384979,0.21085227,0.21387912,158.8773,158.70566,159.48914,159.51842,0,0,0,0,0,0,0,0,0,0,0,0,-0.0020727592,-0.00013040571,-0.0044373823,0.003185272,0.18619442,0.17384984,0.21089895,0.21390285,0.0041551553,0.0053090714,0.015328515,0.015034847,164,6,231,2,0,244.87125,162.89793,-1326.7026,50.36424,752579.44,1042.6985,103.4035,99.28294,101.04123,101.04123,-1.6521063,1,14.524276,0,0,3.8139963,3.8139958,0,7,255,0,0,0,1,0,242,0
True,28036359,15999.99,0,7059.763,0.0061092377,0.83672917,9.429219,-0.0029563904,-0.29312655,51.43627,0.024167983,-0.00015316266,-0.0031328863,2.1165845,-0.02223803,0.00024818716,0.29900417,0.30252737,0.3727965,0.382559,0.24655108,0.28260678,0.21801111,0.215279,163.00215,163.46223,162.95523,162.92244,0,0,0,0,0,0,0,0,0,0,0,0,-0.00083098083,0.0026521124,-0.0031860222,0.0051054717,0.24655248,0.28261924,0.21803439,0.21533953,0.0040113814,0.00444356,0.015430156,0.016590845,164,6,231,2,0,249.84956,162.98952,-1329.7256,51.4371,752878,1019.09503,103.46574,99.39041,101.21417,101.21417,-3.7874594,1,18.289204,0,0,3.928388,3.9283876,0,7,255,0,0,0,1,0,238,0
True,28036468,15999.99,0,7198.6333,-0.0269413,-1.5779239,9.413207,0.0023479462,-0.28078306,52.48147,-0.017019738,-1.1213706E-05,-0.010190866,2.1165638,-0.017330376,-0.0008836543,0.266064,0.2579787,0.33784345,0.33535528,0.1680607,0.16896799,0.26443693,0.26091,165.28502,165.30179,166.78152,166.74997,0,0,0,0,0,0,0,0,0,0,0,0,-0.0005151309,0.0008029387,-0.0023314848,0.0025043713,0.1680615,0.1689699,0.2644472,0.26092204,-2.9273331E-05,-0.0010210648,0.011274498,0.010978669,164,6,231,2,0,254.84592,163.07039,-1332.7599,52.48222,752282.1,998.02264,103.5446,99.513664,101.38801,101.38801,-5.7621765,1,22.067787,0,0,4.0409036,4.040903,0,7,255,0,0,0,1,0,233,0
True,28036578,15999.99,0,7321.369,-0.009072542,1.855932,9.003553,0.0010948181,-0.32130346,53.47851,0.014564342,0.00020237033,0.00772034,2.116585,-0.023326078,-0.0011544118,0.31983203,0.32256404,0.38526788,0.37960547,0.24753948,0.2350136,0.18077004,0.18218033,169.47218,169.30441,168.91275,168.9245,0,0,0,0,0,0,0,0,0,0,0,0,-0.002631103,0.0010716963,-0.004979921,0.0033899774,0.24755345,0.23501605,0.18083861,0.18221188,0.00656626,0.0069013834,0.016912911,0.016239688,164,6,231,2,0,259.84714,163.15732,-1335.7975,53.479477,752796.8,982.5221,103.61516,99.620964,101.55939,101.55939,-7.606579,1,25.850555,0,0,4.151305,4.151305,0,7,255,0,0,0,1,0,229,0
True,28036687,15999.99,0,7475.2812,-0.02127719,-1.6641519,8.766223,-0.003112793,-0.28034964,54.442703,0.028694242,0.00026386476,0.012948085,2.1166196,-0.018057171,7.392093E-05,0.27525467,0.28597736,0.35809782,0.3630976,0.21005756,0.1987952,0.26083842,0.27340087,172.00522,171.86485,172.93605,173.10031,0,0,0,0,0,0,0,0,0,0,0,0,-0.0015015163,0.0010069422,-0.0034201415,0.003623388,0.21006292,0.19879775,0.26086083,0.2734249,0.001098115,0.0024134293,0.013682593,0.01427703,164,6,231,2,0,264.9574,163.24838,-1338.901,54.443424,752403.44,961.3642,103.69068,99.73053,101.72423,101.72423,-9.356443,1,29.7155,0,0,4.2621093,4.2621098,0,7,255,0,0,0,1,0,225,0
True,28036796,15999.99,0,7592.2563,-0.022631645,-1.0645126,8.65844,-0.004535675,-0.29922354,55.398407,0.029799772,-9.473806E-06,-0.0031616287,2.1166506,-0.01653669,0.0012534342,0.2625269,0.26799965,0.3380752,0.3474988,0.19134961,0.22809245,0.22882304,0.22476715,174.73924,175.23265,175.55893,175.50247,0,0,0,0,0,0,0,0,0,0,0,0,-0.00020923233,0.0023795448,-0.0013403451,0.0036188322,0.19134973,0.22810486,0.22882697,0.22479628,-0.00046315417,0.00020816922,0.0113020465,0.012422446,164,6,231,2,0,270.1249,163.32104,-1342.0392,55.399216,752558.1,946.8962,103.76471,99.8363,101.883804,101.883804,-11.045587,1,33.6235,0,0,4.3721633,4.372163,0,7,255,0,0,0,1,0,221,0
True,28036906,15999.99,0,7739.438,0.026838303,-2.3545377,8.305083,0.007160187,-0.29962945,56.315918,0.058323815,-0.00083512085,-0.022231251,2.1165643,-0.0117578395,-0.0010830896,0.24830191,0.2289964,0.32460478,0.3193893,0.25962806,0.20186801,0.26594624,0.28221518,178.52841,177.72748,178.97427,179.16333,0,0,0,0,0,0,0,0,0,0,0,0,-0.0011633962,0.0013953593,-0.0019215528,0.0012389978,0.25963068,0.20187284,0.26595318,0.2822179,-0.0022080839,-0.004576221,0.009700514,0.009080436,164,6,231,2,0,275.38242,163.37643,-1345.2325,56.316715,752564.8,928.7745,103.84025,99.945656,102.04047,102.04047,-12.684068,1,37.598488,0,0,4.482272,4.4822717,0,7,255,0,0,0,1,0,216,0
True,28037015,15999.99,0,7795.7134,-0.021425962,0.332873,8.536287,1.9073486E-06,-0.3382705,57.157143,-0.041743703,0.0005521398,0.015220224,2.1166036,-0.0132608665,-0.00088733854,0.28518656,0.29574764,0.33082107,0.32677764,0.15004115,0.14891937,0.16186428,0.16174911,179.7579,179.7392,180.19827,180.19153,0,0,0,0,0,0,0,0,0,0,0,0,-0.0019427991,1.1485938E-05,-0.0023770584,0.0008623174,0.15005372,0.14891937,0.16188173,0.1617514,0.0023164228,0.0036119148,0.010439586,0.009958848,164,6,231,2,0,280.1102,163.40979,-1348.1042,57.158134,752549.2,922.24634,103.91638,100.046555,102.18555,102.18555,-14.096609,1,41.173893,0,0,4.5797415,4.5797405,0,7,255,0,0,0,1,0,212,0
True,28037125,15999.99,0,7953.331,0.05942273,-1.3201772,8.109648,-0.00548172,-0.29709685,58.070976,0.018058777,0.00030566403,0.01875075,2.1166642,-0.010259367,0.00079676317,0.26332474,0.27615714,0.34024307,0.34702373,0.1838811,0.17556146,0.23332492,0.23670557,183.05698,182.93997,184.02487,184.0672,0,0,0,0,0,0,0,0,0,0,0,0,-0.0011839734,0.0009776779,-0.0023791404,0.0028974887,0.18388492,0.17556418,0.23333704,0.2367233,-0.00036528707,0.0012088194,0.011559796,0.01236596,164,6,231,2,0,285.76495,163.45515,-1351.5386,58.071735,752405.44,903.5328,103.993286,100.15117,102.34965,102.34965,-14.7,1,45.450253,0,0,4.694564,4.694563,0,7,255,0,0,0,1,0,207,0
True,28037234,15999.99,0,8059.228,-0.009677887,-0.8490938,8.030095,-0.004814148,-0.30803046,58.968037,0.003901606,-0.0006766914,-0.00828178,2.116672,-0.008925317,0.0021672188,0.27201194,0.27405387,0.3302993,0.34329388,0.14538172,0.1746073,0.2060829,0.20089322,185.31401,185.7419,186.4798,186.41278,0,0,0,0,0,0,0,0,0,0,0,0,0.0005009536,0.0024993399,-0.0009081674,0.0035347266,0.14538258,0.1746252,0.20608489,0.20092432,0.0007003397,0.000950817,0.010377549,0.011922512,164,6,231,2,0,291.33682,163.48317,-1354.9224,58.968834,752473.7,891.84406,104.07344,100.255646,102.50647,102.50647,-14.7,1,49.66332,0,0,4.8059354,4.8059344,0,7,255,0,0,0,1,0,203,0
True,28037359,15999.99,0,8189.3945,0.06353593,0.2982529,7.7484517,0.006181717,-0.30114353,59.92669,0.026472313,-0.00015548937,-0.0051910756,2.1165762,-0.009944538,-0.00012767638,0.3068253,0.29621235,0.37080473,0.35806462,0.19547303,0.16888459,0.18828264,0.19113876,189.04335,188.6654,189.25807,189.30038,0,0,0,0,0,0,0,0,0,0,0,0,-0.0022062468,0.00058987003,-0.004471626,0.0024093266,0.19548549,0.16888562,0.18833572,0.19115394,0.0049707703,0.0036689155,0.015193347,0.01367864,164,6,231,2,0,297.61368,163.51639,-1358.7352,59.92744,752672.6,878.0758,104.160576,100.37069,102.68405,102.68405,-14.7,1,54.410305,0,0,4.9294367,4.9294357,0,6,255,0,0,0,1,0,198,0
True,28037453,15999.99,0,8297.793,-0.021270514,-1.8244056,7.5490646,0.0035381317,-0.28909633,60.637268,0.026100043,8.827539E-05,-0.0088801645,2.1165793,-0.006143834,-0.00038021745,0.2794095,0.27344063,0.34890547,0.34483066,0.1686124,0.16955635,0.22589737,0.22895285,190.8831,190.89493,192.0197,192.05261,0,0,0,0,0,0,0,0,0,0,0,0,-0.0012519116,0.00087059883,-0.0030111978,0.002508905,0.16861705,0.16955858,0.22591744,0.22896661,0.001607772,0.00087559223,0.012589689,0.012105219,164,6,231,2,0,302.45975,163.53415,-1361.6787,60.63795,752401.7,865.9995,104.22786,100.4574,102.81163,102.81163,-14.7,1,58.075134,0,0,5.023485,5.0234847,0,6,255,0,0,0,1,0,193,0
True,28037578,15999.99,0,8395.856,-0.1368444,0.99341166,7.4653916,-0.00784111,-0.30175683,61.607666,-0.006061414,-0.0052679246,-0.0059588174,2.1165679,-0.008522426,-0.00015602635,0.31403324,0.3165215,0.3663287,0.3702075,0.13802595,0.15100646,0.15984873,0.1538196,193.47433,193.68698,194.10391,194.03618,0,0,0,0,0,0,0,0,0,0,0,0,-0.026237449,-0.024306325,-0.002886983,0.0039491924,0.14049758,0.15295015,0.1598748,0.1538703,0.005854942,0.006160166,0.014661178,0.015122343,164,6,231,2,0,309.1466,163.55049,-1365.74,61.608406,752544.3,856.259,104.32622,100.58221,102.99515,102.99515,-14.7,1,63.131668,0,0,5.151441,5.15144,0,6,255,0,0,0,1,-1,188,0
True,28037687,15999.99,0,8522.924,-3.7832837,-0.14110973,7.134718,0.06982422,-0.2871131,62.383873,0.009023852,-0.18510339,-0.040078934,2.1085753,-0.007772179,-0.003322244,0.30302727,0.30019492,0.35530597,0.35768372,0.24583083,0.13922733,0.20629583,0.15666063,197.13387,196.3376,196.84013,196.93042,0,0,0,0,0,0,0,0,0,0,0,0,-0.37707725,-0.33900538,-0.04589736,-0.037937723,0.45013338,0.36648178,0.21133986,0.16118878,0.004504878,0.0041574463,0.013350662,0.0136333555,164,6,231,2,0,314.98297,163.57433,-1369.2654,62.38457,752541.1,843.4949,104.42851,100.71721,103.145134,103.145134,-14.7,1,67.53918,0,0,5.2614007,5.2614,0,6,255,0,0,0,1,-127,183,0
True,28037796,15999.99,0,8621.085,-8.650021,-0.69937027,7.2761116,0.9985199,-0.2876645,63.126095,-0.0041647675,-0.27482247,-0.021273835,2.0769897,-0.0063581103,-0.006049614,0.29071295,0.32913488,0.33667716,0.3678894,0.19674288,0.12336323,0.23163036,0.14583737,198.5512,198.69472,199.3671,199.34822,0,0,0,0,0,0,0,0,0,0,0,0,-0.10111267,-0.09236707,-0.21108995,-0.18701574,0.22120473,0.15411088,0.31338727,0.23715697,0.002994325,0.007707406,0.0111358315,0.014846735,164,6,231,2,0,320.89078,163.58963,-1372.7302,63.134647,752414.9,833.62476,104.612564,100.95378,103.31087,103.31087,-14.7,1,71.96756,0,0,5.3705344,5.3705335,0,6,255,0,0,0,1,0,181,0
True,28037906,15999.99,0,8738.041,-9.246203,-2.1457238,7.1865005,1.0359211,-0.2777151,63.843327,-0.0059051993,-0.09194667,0.013510184,2.0600104,-0.002536075,-0.0068144375,0.27084675,0.33493534,0.32074392,0.37322208,0.17772096,0.124435924,0.27920938,0.20096597,200.93192,200.56534,202.64064,202.09909,0,0,0,0,0,0,0,0,0,0,0,0,-0.14818227,-0.13797252,-0.1902881,-0.16801265,0.23139301,0.18579751,0.33788672,0.26194575,0.00055741146,0.008418925,0.009241488,0.015480749,164,6,231,2,0,326.75644,163.58946,-1376.0358,63.852337,752151.8,821.8533,104.71731,101.0838,103.49018,103.49018,0,1,76.318665,0,0,5.476585,5.476584,0,6,255,0,0,0,1,0,181,0
True,28038015,15999.99,0,8873.901,-6.30608,-3.0517726,6.64888,0.41993523,-0.2990109,64.56102,0.096977636,0.03452441,0.03321951,2.058636,0.0016519036,-0.0045434274,0.19159901,0.2750775,0.31026462,0.38301772,0.3628026,0.2505077,0.24459346,0.23680398,206.3919,204.40533,204.7906,204.58852,0,0,0,0,0,0,0,0,0,0,0,0,-0.08603401,-0.08017503,-0.06388622,-0.057422105,0.37286404,0.263025,0.25279915,0.24366662,-0.009163622,0.0010763817,0.007995579,0.016645383,164,6,231,2,0,332.81494,163.56651,-1379.3337,64.56308,752694.5,810.4112,104.807556,101.20091,103.644424,103.644424,0,1,80.778564,0,0,5.583985,5.5839834,0,5,255,0,0,0,1,0,184,0
True,28038125,15999.99,0,9116.226,-1.7362623,-7.529191,5.270371,0.027282715,-0.30942875,65.15355,0.16036093,0.038278632,0.06545516,2.0629294,0.015102551,0.0011524826,0.118115336,0.19941862,0.21323785,0.2753608,0.67105585,0.49604377,0.43669227,0.46469873,213.08365,210.1003,209.82861,210.09755,0,0,0,0,0,0,0,0,0,0,0,0,-0.020492332,-0.016779475,-0.0020659545,-0.00094319484,0.67136866,0.4963275,0.43669716,0.4646997,-0.0181776,-0.008204419,-0.003540188,0.0038457662,164,6,231,2,0,339.10828,163.47621,-1382.7153,65.15429,568988.1,596.323,104.92951,101.319176,103.79172,103.79172,0,1,85.397896,0,0,5.6940885,5.694087,0,5,255,0,0,0,1,0,187,0
True,28038234,15999.99,0,9053.373,0.13278198,-7.1323614,6.809976,-0.1825943,-0.39489007,65.87391,0.05658281,0.024485031,0.07784279,2.0666623,0.0266057,0.008363588,0.09805377,0.17300105,0.1327485,0.21750237,0.26134592,0.2713655,0.26092196,0.26666006,208.9107,208.99197,209.24084,209.06833,0,0,0,0,0,0,0,0,0,0,0,0,0.019038072,0.021455701,0.02233566,0.03034439,0.26203844,0.2722124,0.26187623,0.268381,-0.02063848,-0.011444967,-0.013109775,-0.0030331686,164,6,231,2,0,345.4117,163.28107,-1386.0995,65.87535,752234.5,793.4267,105.06976,101.46916,103.974915,103.974915,0,1,90.01863,0,0,5.803385,5.803384,0,5,255,0,0,0,1,0,191,0
True,28038328,15999.99,0,9092.377,0.79256964,-4.6239915,7.2420554,-0.1726532,-0.4161228,66.55549,0.016491108,0.006109943,0.098810494,2.0679545,0.03209139,0.016632512,0.12282288,0.21077898,0.19307068,0.2637646,0.14223593,0.15013771,0.20808892,0.21576634,209.09196,209.17284,210.41293,210.47643,0,0,0,0,0,0,0,0,0,0,0,0,0.02003565,0.021721566,0.020952303,0.02353194,0.14364013,0.15170088,0.20914109,0.21704577,-0.017600143,-0.006810885,-0.0059379153,0.0024670698,164,6,231,2,0,350.859,163.05852,-1389.0325,66.55701,752246.06,790.11755,105.14626,101.561714,104.103966,104.103966,0,1,94.02108,0,0,5.896868,5.8968673,0,5,255,0,0,0,1,0,194,0
True,28038453,15999.99,0,9287.199,-0.71012187,-5.2430186,6.247079,-0.12619972,-0.37826097,67.297165,0.098436676,-0.06295018,0.052159287,2.0667212,0.040460985,0.026387893,0.11760433,0.21311429,0.23507097,0.3072059,0.33908594,0.24799567,0.33856767,0.32315716,214.5644,213.23474,214.80833,214.78984,0,0,0,0,0,0,0,0,0,0,0,0,-0.2531852,-0.23696437,0.0052020163,0.00697927,0.42318085,0.34300724,0.33860764,0.32323253,-0.018240284,-0.0065244213,-0.0009443909,0.007631913,164,6,231,2,0,357.7268,162.73692,-1392.7406,67.29834,751738.06,773.18445,105.232544,101.674614,104.25561,104.25561,0,1,99.07171,0,0,6.013552,6.0135517,0,5,255,0,0,0,1,-88,197,0
True,28038578,15999.99,0,9354.302,-6.9060407,-4.971379,6.735775,0.5577011,-0.37001112,68.0928,0.028655423,-0.32100183,0.031838275,2.0446455,0.0505454,0.03197259,0.10242092,0.21589193,0.18726757,0.2728823,0.352455,0.15978776,0.32138157,0.20464098,216.49155,214.80379,216.38762,216.0954,0,0,0,0,0,0,0,0,0,0,0,0,-0.6385456,-0.5530671,-0.1466249,-0.13286227,0.72935927,0.5756868,0.35324916,0.24398835,-0.020102778,-0.006183699,-0.0066278614,0.0035510994,164,6,231,2,0,364.84985,162.32076,-1396.5361,68.096085,752271.3,767.89874,105.469086,101.943245,104.42212,104.42212,0,1,104.29785,0,0,6.1329203,6.13292,0,5,255,0,0,0,1,-99,203,0
True,28038671,15999.99,0,9373.032,-11.304947,-0.81137466,7.1128044,1.1788483,-0.342921,68.77064,0.016612567,-0.15976273,0.03709867,2.0180483,0.05181293,0.035142984,0.15595984,0.29403424,0.25365603,0.3806923,0.1722736,0.10357237,0.20138995,0.13442421,216.10945,215.74638,216.89493,216.618,0,0,0,0,0,0,0,0,0,0,0,0,-0.14792909,-0.13533005,-0.20425104,-0.18032941,0.22707094,0.17041555,0.28683865,0.22491902,-0.013535351,0.0034017377,0.0012652352,0.016368907,164,6,231,2,0,370.8212,161.94421,-1399.5941,68.7816,752507.1,766.89465,105.60458,102.130165,104.59032,104.59032,0,1,108.63885,0,0,6.2310686,6.231068,0,5,255,0,0,0,1,0,210,0
True,28038796,15999.99,0,9470.295,-9.235523,-0.556219,6.776388,0.54138374,-0.33391738,69.53502,0.012264572,0.0066162655,0.07118788,2.0112784,0.053085603,0.039769378,0.14198484,0.2810733,0.22551925,0.35715845,0.14555359,0.118746266,0.17112765,0.14890581,218.42471,217.96582,219.13579,218.84676,0,0,0,0,0,0,0,0,0,0,0,0,-0.08622024,-0.0825892,-0.081644684,-0.07359525,0.1691738,0.14464319,0.18960623,0.16609998,-0.015249616,0.0018118657,-0.0020800196,0.013570908,164,6,231,2,0,377.96042,161.4918,-1403.0905,69.53792,752268.3,758.7065,105.7052,102.281784,104.75932,104.75932,0,1,113.7779,0,0,6.3461866,6.3461857,0,5,255,0,0,0,1,0,221,0
True,28038890,15999.99,0,9522.313,-4.5563974,3.615865,6.75619,0.04723549,-0.33964002,70.21404,-0.11085011,0.013190405,0.1320321,2.0124118,0.047496185,0.048719577,0.2083645,0.41526562,0.2799367,0.36724368,0.079722516,0.06203363,0.10055522,0.104231305,219.56445,219.19363,220.20255,220.20166,0,0,0,0,0,0,0,0,0,0,0,0,-0.013410214,-0.012861235,-0.0081364345,-0.005740239,0.080842525,0.063352846,0.100883864,0.10438925,-0.0071070604,0.018272754,0.0043898076,0.014769964,164,6,231,2,0,384.32007,161.09589,-1406.123,70.21488,752263.5,754.529,105.801414,102.4133,104.90103,104.90103,-0.5020704,1,118.31976,0,0,6.4471607,6.4471602,0,5,255,0,0,0,1,0,231,0
True,28039000,15999.99,0,9599.943,-3.8033195,10.788241,6.385036,-0.10794258,-0.1657747,70.82883,-0.124784395,-0.113774866,0.03627815,2.0090442,0.032818664,0.06005164,0.47757524,0.56968564,0.42180964,0.52446145,0.072537325,0.062679335,0.099052876,0.083771706,221.06184,221.40553,221.8599,222.0631,0,0,0,0,0,0,0,0,0,0,0,0,-0.1758181,-0.16799086,-0.011804077,0.0152648315,0.19019376,0.17930318,0.09975374,0.08515112,0.025916047,0.037214898,0.021257453,0.033461988,164,6,231,2,0,390.6811,160.78905,-1409.1216,70.82911,752469,748.7138,105.94792,102.58302,105.10129,105.10129,-2.7619982,1,122.86431,0,0,6.5469575,6.546957,0,5,255,0,0,0,1,-101,242,0
True,28039109,15999.99,0,9720.792,-5.609578,6.4409013,5.939795,0.43276787,-0.10570526,71.52146,-0.010788081,-0.09179191,0.008468512,1.989498,0.02313045,0.06236228,0.39867198,0.45557627,0.44105998,0.4993482,0.106716946,0.09856228,0.14849883,0.12287254,223.76709,224.07811,224.82158,224.79366,0,0,0,0,0,0,0,0,0,0,0,0,-0.04292452,-0.04117621,-0.08512246,-0.05278709,0.115026176,0.10681761,0.17116582,0.13373159,0.01623727,0.023217514,0.023546174,0.030476213,164,6,231,2,0,398.3892,160.55086,-1412.6528,71.52286,752261.1,739.27594,106.114365,102.79375,105.32127,105.32127,-6.205983,1,128.33249,0,0,6.6661124,6.6661115,0,5,255,0,0,0,1,0,251,0
True,28039234,15999.99,0,9799.871,-4.946535,5.2886033,6.0179563,0.19769478,-0.18886995,72.25469,-0.092304036,-0.013432551,0.034246944,1.9835064,0.014566575,0.063828476,0.35982016,0.40983462,0.39512306,0.44320598,0.07633593,0.07218019,0.109668024,0.101971835,225.77287,225.77005,226.64726,226.59607,0,0,0,0,0,0,0,0,0,0,0,0,-0.04296136,-0.042775515,-0.033854876,-0.01825975,0.08759482,0.08390307,0.11477468,0.10359379,0.011471458,0.017606553,0.01808462,0.02380132,164,6,231,2,0,406.41006,160.36337,-1416.2341,72.25521,752251.4,733.1509,106.23041,102.950676,105.50453,105.50453,-11.049042,1,134.01474,0,0,6.788312,6.7883105,0,5,255,0,0,0,1,-4,2,0
True,28039343,15999.99,0,9899.686,-8.985289,7.068459,5.5260425,0.17868805,-0.17684996,72.885765,-0.023892557,-0.2523618,-0.043536488,1.9689081,0.0031968555,0.0627502,0.42646322,0.4752646,0.44054118,0.49863863,0.15266465,0.09239712,0.13758183,0.08903622,228.41719,228.50229,228.59889,228.84036,0,0,0,0,0,0,0,0,0,0,0,0,-0.42980662,-0.38504466,-0.068403676,-0.038228977,0.45611426,0.39597553,0.15364838,0.09689635,0.01964632,0.025632612,0.02348449,0.03039185,164,6,231,2,0,414.18134,160.27463,-1419.6034,72.8862,752545.6,726.1381,106.41699,103.18404,105.70691,105.70691,-14.7,1,139.49171,0,0,6.9050083,6.905007,0,5,255,0,0,0,1,-127,3,0
True,28039437,15999.99,0,9961.485,-17.622105,6.2060933,5.436023,0.9819565,-0.1588589,73.348526,-0.0735324,-0.4665104,-0.032672714,1.9321705,-0.0017759844,0.05692226,0.39970368,0.49612972,0.4166752,0.5079467,0.1506111,0.06278337,0.15373418,0.07225311,229.26863,230.07979,229.95047,230.57353,0,0,0,0,0,0,0,0,0,0,0,0,-0.1475381,-0.12730467,-0.19661051,-0.14915018,0.21083452,0.14194447,0.24957943,0.16572957,0.016363826,0.028192058,0.020647004,0.031498514,164,6,231,2,0,420.78146,160.2526,-1422.3024,73.35527,752369.3,721.276,106.696396,103.58312,105.865234,105.865234,-14.7,1,144.11255,0,0,7.002524,7.0025225,0,5,255,0,0,0,1,0,2,0
True,28039562,15999.99,0,10026.776,-19.67725,7.3806086,5.82364,1.5097885,-0.1651808,73.91567,-0.13572668,-0.19213505,-0.04720523,1.8949087,-0.01082711,0.053666197,0.4115004,0.51698637,0.39466548,0.52062815,0.0965009,0.05833548,0.12229134,0.078326665,230.97226,231.20575,231.7507,231.88965,0,0,0,0,0,0,0,0,0,0,0,0,-0.16279446,-0.14303766,-0.21755125,-0.16875318,0.18924709,0.1544759,0.24956706,0.18604489,0.017810885,0.030750468,0.018030211,0.033006243,164,6,231,2,0,428.53525,160.29054,-1425.2234,73.93127,752351,716.6311,106.853516,103.834564,106.11598,106.11598,-14.7,1,149.47209,0,0,7.115026,7.1150246,0,5,255,0,0,0,1,0,255,0
True,28039671,15999.99,0,10106.601,-14.164404,6.1063366,5.409259,0.5574932,-0.16968048,74.505684,-0.08195333,-0.05383619,0.037719715,1.8850981,-0.0200426,0.054935038,0.3505395,0.48933557,0.36148363,0.48778027,0.094329804,0.07019857,0.116286404,0.09597723,233.0323,232.83797,233.70042,233.62407,0,0,0,0,0,0,0,0,0,0,0,0,-0.18905945,-0.17542404,-0.08277189,-0.05920095,0.21128556,0.18894823,0.14273651,0.11276693,0.010333035,0.027358644,0.014085136,0.029100873,164,6,231,2,0,436.57812,160.41348,-1427.993,74.50796,752393,711.0443,106.98944,104.06566,106.3474,106.3474,-14.7,1,154.96832,0,0,7.229645,7.2296433,0,5,255,0,0,0,1,-127,251,0
True,28039781,15999.99,0,10171.73,-16.62764,7.9098005,4.9547534,0.34449577,-0.15771806,75.017,-0.1281602,-0.3182534,-0.040640723,1.8637007,-0.029963363,0.055710014,0.43196383,0.56127757,0.40085787,0.54374635,0.114765786,0.06430405,0.11929345,0.06794119,234.25452,234.8075,234.89066,235.34294,0,0,0,0,0,0,0,0,0,0,0,0,-0.513607,-0.4399022,-0.08989991,-0.053991526,0.52627313,0.44457728,0.1493751,0.08678185,0.02032106,0.036183506,0.01876644,0.035754822,164,6,231,2,0,444.47433,160.60019,-1430.5308,75.017944,752367.5,706.4352,107.23491,104.40254,106.52681,106.52681,-14.7,1,160.3287,0,0,7.3405895,7.340588,0,5,255,0,0,0,1,-127,245,0
True,28039890,15999.99,0,10245.641,-23.173336,8.257476,4.6714873,1.4340057,-0.09062135,75.3956,-0.09707893,-0.5804055,-0.050435215,1.8139181,-0.039030403,0.053493563,0.48711944,0.6125813,0.45824802,0.5830066,0.19441988,0.082197614,0.15932678,0.06422728,236.19221,236.78926,236.3347,237.03932,0,0,0,0,0,0,0,0,0,0,0,0,-0.7175295,-0.5941075,-0.2654532,-0.18713263,0.7434027,0.5997668,0.3095972,0.19784783,0.027086802,0.04247675,0.025589705,0.04042258,164,6,231,2,0,452.32397,160.87805,-1432.79,75.409294,752365.25,701.3465,107.624405,104.95716,106.74133,106.74133,-14.7,1,165.61465,0,0,7.449246,7.449244,0,5,255,0,0,0,1,-127,237,0
True,28040000,15999.99,0,10324.141,-30.065353,6.883994,5.1634984,3.576805,0.0040530562,75.63816,-0.076544754,-0.7047344,-0.058835484,1.740662,-0.043753203,0.051034078,0.45697132,0.6368947,0.43899274,0.6144103,0.25683337,0.08954774,0.25128824,0.08512643,237.83376,238.00299,238.63876,238.77785,0,0,0,0,0,0,0,0,0,0,0,0,-0.8574181,-0.6883247,-0.5759593,-0.41749927,0.8950582,0.6941251,0.6283907,0.42608938,0.02338864,0.04545919,0.023300394,0.04415624,164,6,231,2,0,460.32965,161.22958,-1434.7494,75.72269,752431,696.1291,108.032715,105.592,107.05734,107.05734,0,1,170.90155,0,0,7.5584087,7.5584064,0,5,255,0,0,0,1,-108,231,0
True,28040109,15999.99,0,10355.557,-38.67648,8.921048,5.503388,5.3085117,0.08818483,75.68236,-0.11990532,-0.72065836,-0.07854096,1.661127,-0.051874682,0.046405077,0.43139464,0.6682695,0.38551047,0.6410028,0.35485816,0.108502164,0.26761106,0.08753688,239.44193,238.29652,239.31282,239.31108,0,0,0,0,0,0,0,0,0,0,0,0,-1.2339519,-0.93121606,-0.7719466,-0.546141,1.2839633,0.9375159,0.81701726,0.55311185,0.02025124,0.049307823,0.016941749,0.047317892,164,6,231,2,0,468.34375,161.64317,-1436.2852,75.868355,752390.44,693.9331,108.807274,106.599556,107.50708,107.50708,0,1,176.18643,0,0,7.666195,7.6661925,0,5,255,0,0,0,1,-127,228,0
True,28040218,15999.99,0,10377.558,-38.829174,6.769062,6.1978,6.0779257,0.11559212,75.798615,-0.15074964,-0.5309284,-0.050151803,1.5956607,-0.057862796,0.046239305,0.41925,0.6932558,0.37751016,0.67868894,0.21278188,0.07822427,0.29312074,0.115104236,238.66798,238.59639,240.4897,239.95648,0,0,0,0,0,0,0,0,0,0,0,0,-0.695838,-0.5459116,-0.863206,-0.59494853,0.72764456,0.55148757,0.9116164,0.6059808,0.018761504,0.0523728,0.015990574,0.0517985,164,6,231,2,0,476.42242,162.12787,-1437.3641,76.04199,751968.94,691.7829,109.454254,107.5499,108.03022,108.03022,0,1,181.40512,0,0,7.7737236,7.7737207,0,5,255,0,0,0,1,0,229,0
True,28040328,15999.99,0,10392.141,-41.903156,7.7909136,5.9490657,4.586343,0.10122518,76.09123,-0.11295208,-0.26668888,0.000119453296,1.5524775,-0.06886472,0.044426437,0.4225448,0.7563912,0.38870075,0.69233996,0.19127327,0.06702536,0.25061375,0.12149515,239.53818,238.52083,240.89423,240.15996,0,0,0,0,0,0,0,0,0,0,0,0,-0.56211466,-0.4384696,-0.65881944,-0.46187606,0.5937663,0.44356284,0.7048761,0.4775883,0.019165665,0.060117394,0.017321054,0.053421505,164,6,231,2,0,484.61523,162.69186,-1437.9486,76.22939,752264.06,691.25336,109.77083,108.19566,108.54456,108.54456,0,1,186.72942,0,0,7.8818913,7.881889,0,5,255,0,0,0,1,0,235,0
True,28040421,15999.99,0,10381.916,-25.211508,7.9477654,5.1482406,3.3321521,0.009596594,76.479034,-0.15225464,-0.037933208,0.14686713,1.5379562,-0.078978315,0.050119165,0.42620626,0.65321785,0.4252367,0.6952568,0.06933905,0.06681909,0.11836609,0.10243283,239.01917,239.14919,240.16591,240.1015,0,0,0,0,0,0,0,0,0,0,0,0,0.22564062,0.24435118,-0.39312533,-0.316761,0.23605423,0.2533225,0.41055822,0.3329114,0.0196148,0.047461487,0.021664903,0.0537683,164,6,231,2,0,491.74234,163.23964,-1438.0988,76.55159,752263.25,691.93976,109.969055,108.56323,108.867294,108.867294,0,1,191.34201,0,0,7.975497,7.9754934,0,5,255,0,0,0,1,108,244,0
True,28040531,15999.99,0,10424.505,-5.9486957,11.90312,3.7637866,1.9957643,-0.16606085,76.911224,-0.13566445,0.2428387,0.080357224,1.5489068,-0.099841215,0.061976865,0.53667235,0.62230366,0.50486493,0.61285853,0.06617339,0.07995838,0.07620541,0.09906766,240.81555,239.9393,241.20381,240.69577,0,0,0,0,0,0,0,0,0,0,0,0,0.24493513,0.26662567,-0.2069213,-0.15393019,0.25371665,0.27835697,0.2205078,0.18305437,0.033165276,0.043669358,0.03113211,0.043971747,164,6,231,2,0,500.46594,164.03033,-1438.1564,76.93729,752392.3,689.34436,110.24861,108.87587,109.30365,109.30365,0,1,196.98264,0,0,8.089628,8.089625,0,5,255,0,0,0,1,47,249,0
True,28040640,15999.99,0,10486.598,-2.594481,6.3375134,4.071718,-0.37107408,-0.1834133,77.38597,-0.12275655,0.12924013,0.06404605,1.5739179,-0.10945585,0.06403092,0.49171978,0.5419904,0.45891678,0.5387365,0.05724026,0.062405694,0.08749903,0.10825148,241.81274,241.2882,242.62077,242.429,0,0,0,0,0,0,0,0,0,0,0,0,0.017952802,0.01813419,0.045058485,0.08209624,0.059989586,0.06498707,0.09841924,0.13586088,0.027651109,0.03381762,0.025669217,0.035159193,164,6,231,2,0,509.07544,164.92003,-1438.1516,77.38708,752298.1,685.10614,110.3741,109.02823,109.505905,109.505905,0,1,202.58078,0,0,8.201802,8.201799,0,5,255,0,0,0,1,0,248,0
True,28040765,15999.99,0,10543.966,3.2328782,10.982802,3.788529,-0.30263078,-0.07382518,77.83802,-0.13938646,-0.011050274,-0.060904782,1.5785952,-0.12719184,0.06583309,0.57710904,0.5303971,0.5723371,0.5518818,0.059374373,0.060651887,0.08959625,0.089510724,242.94069,242.99998,243.80295,243.79395,0,0,0,0,0,0,0,0,0,0,0,0,-0.15583616,-0.15621987,0.0038552175,0.05703073,0.16676399,0.16758072,0.08967915,0.10613517,0.0381255,0.032395512,0.039154053,0.036722064,164,6,231,2,0,518.383,166.01353,-1438.17,77.838646,752301,681.387,110.5446,109.17351,109.7549,109.7549,0,1,208.63068,0,0,8.3225355,8.322534,0,5,255,0,0,0,1,-24,242,0
True,28040859,15999.99,0,10640.333,-6.270303,5.4720445,3.1890857,0.0008239746,-0.09631449,78.15776,0.022218749,-0.26398802,-0.05555895,1.5634235,-0.13396859,0.05960732,0.4423776,0.46604317,0.53108525,0.53331614,0.24276435,0.12729837,0.15846683,0.10602164,246.55156,245.58109,245.47633,245.63019,0,0,0,0,0,0,0,0,0,0,0,0,-0.5997577,-0.5296188,-0.060635787,-0.009225507,0.6470269,0.5447026,0.16967155,0.10642227,0.02159848,0.02450145,0.034249514,0.034514748,164,6,231,2,0,526.41187,167.07216,-1438.1575,78.157814,752575.1,675.683,110.714035,109.38523,109.92375,109.92375,0,1,213.86397,0,0,8.426347,8.426346,0,5,255,0,0,0,1,-127,233,0
True,28040968,15999.99,0,10665.85,-8.476601,0.49301508,3.95582,1.0441692,-0.21777767,78.557655,-0.055376533,-0.13213986,-0.078586504,1.538867,-0.13240571,0.058215134,0.3439054,0.34668508,0.3532676,0.35536313,0.096807614,0.07205321,0.1464406,0.10494006,245.54247,245.70834,246.76141,246.638,0,0,0,0,0,0,0,0,0,0,0,0,-0.10440396,-0.0974331,-0.14978124,-0.13186334,0.14237943,0.12118116,0.20947379,0.16852406,0.009519249,0.009860225,0.013108313,0.013357457,164,6,231,2,0,534.6485,168.1545,-1438.0575,78.564896,752297.75,673.59595,110.81311,109.51181,110.04996,110.04996,-1.1700106,1,219.23067,0,0,8.532374,8.532373,0,5,255,0,0,0,1,0,226,0
True,28041093,15999.99,0,10742.804,-7.6859117,0.1850368,3.4661636,0.4594543,-0.24211639,78.93428,0.052407034,0.018782109,-0.031811275,1.5346017,-0.13391061,0.05306271,0.37062788,0.34867808,0.41976365,0.4490927,0.15329053,0.15024197,0.15012887,0.13482936,248.11871,247.97943,248.2648,247.9898,0,0,0,0,0,0,0,0,0,0,0,0,-0.0668497,-0.06397687,-0.06379394,-0.041484118,0.16723298,0.16329633,0.16312064,0.14106695,0.012797203,0.010104701,0.021014199,0.024501204,164,6,231,2,0,543.16797,169.28406,-1437.8395,78.93598,752476.94,669.0439,110.87605,109.61948,110.200615,110.200615,-9.203485,1,224.78868,0,0,8.641526,8.641526,0,5,255,0,0,0,1,0,222,0
True,28041203,15999.99,0,10810.467,-0.9279628,-2.4074657,3.4329944,-0.078157425,-0.2745264,79.31271,0.06511722,0.11213616,0.007421272,1.5416197,-0.13083921,0.050632883,0.30729738,0.29336187,0.34659842,0.33471885,0.13561085,0.18754297,0.16005583,0.17447738,249.0791,249.68414,249.91939,249.70943,0,0,0,0,0,0,0,0,0,0,0,0,0.0724165,0.07913298,0.02235031,0.026717987,0.153735,0.20355439,0.16160882,0.17651121,0.00502868,0.0033192597,0.0123153925,0.010903001,164,6,231,2,0,551.5452,170.37415,-1437.5818,79.313225,752536.6,664.9376,110.93121,109.689804,110.31453,110.31453,-14.7,1,230.25356,0,0,8.748327,8.748326,0,5,255,0,0,0,1,18,218,0
True,28041312,15999.99,0,10856.013,2.3460352,-4.618309,3.755875,-0.5780778,-0.3189228,79.70476,0.024446381,0.061220877,-0.05570011,1.5521181,-0.124944784,0.046882857,0.25905198,0.18759304,0.29457244,0.25874296,0.11040294,0.13329574,0.16219531,0.18808585,249.81715,249.95053,251.11336,251.21368,0,0,0,0,0,0,0,0,0,0,0,0,0.061823767,0.06506756,0.08030443,0.08468309,0.12653454,0.14832917,0.18098652,0.20627049,-0.00088940933,-0.009655021,0.0061298907,0.0018700324,164,6,231,2,0,559.96313,171.42017,-1437.3453,79.70749,752060.3,661.38763,110.98216,109.74533,110.42076,110.42076,-14.7,1,235.73889,0,0,8.855065,8.855063,0,5,255,0,0,0,1,0,214,0
True,28041421,15999.99,0,11039.986,2.8668532,-5.2902975,2.585404,-0.3476907,-0.3184471,79.99586,0.15954964,-0.023567136,-0.04362959,1.5540202,-0.119308166,0.042012617,0.22259738,0.17177701,0.33022496,0.26865584,0.39973655,0.44141838,0.26409814,0.2690199,256.30106,257.09372,253.94727,254.10315,0,0,0,0,0,0,0,0,0,0,0,0,0.05629604,0.05958701,0.042828932,0.0456102,0.40368125,0.44542205,0.2675484,0.27285895,-0.005361166,-0.011595115,0.010368716,0.0030485988,164,6,231,2,0,568.4636,172.43909,-1437.1517,79.99724,753148.44,652.166,111.030396,109.79429,110.55818,110.55818,-14.7,1,241.27527,0,0,8.962252,8.962249,0,5,255,0,0,0,1,0,210,0
True,28041531,15999.99,0,10937.947,1.1511621,-5.5690303,4.461426,-0.09686673,-0.40904927,80.45635,-0.00024309778,-0.017251076,-0.05785171,1.5521991,-0.11110281,0.03787245,0.26899144,0.19457412,0.2575285,0.19743487,0.09886263,0.116322026,0.14695796,0.14470889,251.75496,252.15027,252.9428,252.9778,0,0,0,0,0,0,0,0,0,0,0,0,0.016312622,0.018267862,0.010954718,0.012928261,0.10019941,0.11774774,0.1473657,0.14528525,0.00032982603,-0.0087986775,0.0017256439,-0.0054190457,164,6,231,2,0,577.0652,173.38008,-1436.9769,80.45745,752145.2,656.58466,111.10964,109.88193,110.68227,110.68227,0,1,246.8662,0,0,9.07018,9.070177,0,5,255,0,0,0,1,0,204,0
True,28041625,15999.99,0,11105.117,0.038881615,-6.904543,3.1797678,0.05692494,-0.39820033,80.78237,0.11535972,-0.017461576,-0.06586097,1.550578,-0.10235928,0.02919943,0.22976482,0.14034967,0.31324154,0.23157763,0.31594026,0.20876735,0.28049004,0.279855,256.9432,254.966,256.7581,256.73108,0,0,0,0,0,0,0,0,0,0,0,0,-0.0027809953,-0.00017426518,-0.008630468,-0.0063946093,0.3159525,0.20876743,0.28062278,0.27992806,-0.00448196,-0.0154501945,0.008349508,-0.0013597235,164,6,231,2,0,585.8306,174.28302,-1436.8069,80.78337,752524.2,647.2638,111.1434,109.92398,110.79312,110.79312,0,1,252.5638,0,0,9.179489,9.179486,0,5,255,0,0,0,1,0,198,0
True,28041750,15999.99,0,10980.507,0.61852086,-8.974286,-5.0422673,0.26302648,-0.32419404,79.74503,0.15943615,0.012838235,-0.05618937,1.550478,-0.08852577,0.024686575,0.20575649,0.15466629,0.3033846,0.24257109,0.26923084,0.24147761,0.316611,0.3202906,252.77264,252.16702,254.1543,254.23576,0,0,0,0,0,0,0,0,0,0,0,0,-0.037867647,-0.034939338,-0.03263806,-0.031039765,0.27188087,0.24399221,0.3182888,0.32179114,-0.007426977,-0.013694026,0.007177595,-5.2683055E-05,164,6,231,2,0,594.4952,175.06718,-1436.6604,79.746124,752590.06,654.72003,111.196144,109.984055,110.907486,110.907486,0,1,258.18317,0,0,9.288439,9.288435,0,5,255,0,0,0,1,0,192,0
True,28041859,15999.99,0,10963.527,-0.6330108,-5.9982867,2.647539,0.082484245,-0.36824733,80.2127,0.097289175,0.010133114,-0.07802458,1.5515345,-0.08115478,0.016737195,0.277878,0.18178485,0.27641878,0.22100827,0.22693302,0.23734713,0.18569404,0.17823675,253.63666,253.85693,252.9706,252.82973,0,0,0,0,0,0,0,0,0,0,0,0,-0.012190026,-0.008971817,-0.006510878,-0.0053325626,0.22726019,0.23751663,0.18580815,0.1783165,0.0014199093,-0.01036749,0.003971558,-0.0026163422,164,6,231,2,0,603.3522,175.78004,-1436.5042,80.21359,752785.1,656.099,111.25529,110.04936,111.02228,111.02228,0,1,263.92807,0,0,9.399521,9.399517,0,5,255,0,0,0,1,0,186,0
True,28041968,15999.99,0,11224.679,-0.34276527,-10.828697,2.1524718,0.0113271475,-0.3650272,80.423035,0.12746468,-0.01425101,-0.040117946,1.5521536,-0.06524999,0.010305384,0.1442431,0.09459185,0.22017315,0.16527985,0.47924364,0.39562622,0.49389094,0.48424712,259.12256,257.54318,259.77307,259.65277,0,0,0,0,0,0,0,0,0,0,0,0,-0.19073305,-0.18393654,-0.003101261,0.0019812055,0.5158038,0.43629435,0.4939007,0.48425117,-0.014972601,-0.021063142,-0.0027156323,-0.009242039,164,6,231,2,0,612.2398,176.39153,-1436.3422,80.42386,588592.1,500.5326,111.33235,110.11978,111.12732,111.12732,0,1,269.68784,0,0,9.510474,9.510471,0,5,255,0,0,0,1,-56,180,0
True,28042062,15999.99,0,11073.336,-3.1828184,-7.2898846,4.3477445,0.40582407,-0.50064105,80.902245,0.097880565,-0.13668218,-0.055940207,1.5426044,-0.058548108,0.005275349,0.14496307,0.093425885,0.19673197,0.15994355,0.3942556,0.23620915,0.17192326,0.15556177,258.7903,256.2813,254.62883,254.88812,0,0,0,0,0,0,0,0,0,0,0,0,-0.027850498,-0.024047678,-0.06733008,-0.061613474,0.39523807,0.23743011,0.18463735,0.16731912,-0.0148842875,-0.021206167,-0.005502615,-0.009876486,164,6,231,2,0,620.0496,176.82945,-1436.1798,80.90481,752263.56,649.0888,111.44774,110.241,111.244125,111.244125,0,1,274.73984,0,0,9.607438,9.607434,0,5,255,0,0,0,1,0,175,0
True,28042187,15999.99,0,11301.181,-1.9743371,-11.364153,2.4159915,1.2668607,-0.49095026,81.0992,0.057386108,-0.12260042,-0.040795073,1.5295025,-0.040777065,0.0019155095,0.04267655,0.0315647,0.12987839,0.11773666,0.3709313,0.28625113,0.5150331,0.50550866,259.35764,258.17795,261.46518,262.9348,0,0,0,0,0,0,0,0,0,0,0,0,-0.14253141,-0.13665193,-0.18886086,-0.16726638,0.3973729,0.31719625,0.54856867,0.5324632,-0.027431404,-0.028794454,-0.013451012,-0.014894573,164,6,231,2,0,629.61523,177.24246,-1435.9479,81.11058,584693.06,492.9223,111.561676,110.34398,111.38655,111.38655,0,1,280.93207,0,0,9.725741,9.725737,0,4,255,0,0,0,1,0,170,0
True,28042296,15999.99,0,11484.421,-2.1317298,-12.732167,1.3541911,1.3798623,-0.68726444,81.34488,0.08235551,-0.04710182,-0.018601447,1.5234,-0.026395068,-0.0028389161,0.0066837477,0.021079935,0.09485062,0.13029972,0.48361394,0.36039355,0.78920496,0.66258305,262.57495,260.41663,268.02963,266.4607,0,0,0,0,0,0,0,0,0,0,0,0,-0.17551243,-0.17000043,-0.20558257,-0.18082936,0.5144775,0.39847666,0.815542,0.6868155,-0.031846512,-0.030080583,-0.017615553,-0.013400918,164,6,231,2,0,639.1479,177.50102,-1435.6718,81.359474,441380.03,366.25882,111.68361,110.4656,111.55293,111.55293,0,1,287.09467,0,0,9.8431015,9.843098,0,4,255,0,0,0,1,0,166,0
True,28042406,15999.99,0,11203.117,-4.922761,-7.5482445,4.807554,0.6974549,-0.67060065,82.01115,0.09595317,0.046879373,-0.0090437755,1.523787,-0.017170133,-0.004935713,0.092543796,0.1227731,0.19260958,0.23482536,0.20431,0.18449843,0.20663843,0.18640073,258.7925,258.31082,259.05215,258.60254,0,0,0,0,0,0,0,0,0,0,0,0,-0.102446236,-0.09996742,-0.084280565,-0.0770497,0.22855592,0.20984079,0.22316508,0.20169751,-0.02131437,-0.01760625,-0.0059927367,-0.00097359344,164,6,231,2,0,648.3185,177.6224,-1435.352,82.01685,752134,641.04364,111.79236,110.57164,111.7157,111.7157,0,1,293.02893,0,0,9.955379,9.955375,0,4,255,0,0,0,1,0,163,0
True,28042515,15999.99,0,11252.931,-2.1087952,-6.5458083,4.6163006,0.030958176,-0.5179639,82.50585,0.048466522,0.047067,0.04290538,1.529329,-0.0071422206,-0.002833899,0.13403164,0.19378047,0.22394107,0.26014256,0.12751806,0.13184002,0.20109956,0.2021266,258.8899,258.76404,260.52927,260.3727,0,0,0,0,0,0,0,0,0,0,0,0,-0.015087552,-0.013498748,-0.00037123912,0.0012168724,0.12840751,0.13252927,0.2010999,0.20213027,-0.016225204,-0.0088960305,-0.002267655,0.0020364337,164,6,231,2,0,657.1112,177.66437,-1434.9976,82.50747,752036.75,638.0209,111.83744,110.62569,111.80373,111.80373,0,1,298.71497,0,0,10.062352,10.062348,0,4,255,0,0,0,1,0,162,0
True,28042640,15999.99,0,10888.222,0.49366602,-5.253136,-0.21527858,-0.17560816,-0.35692424,82.59796,0.07808575,0.017129282,0.010815857,1.5329499,0.0011913916,-0.0018948477,0.1879557,0.19485655,0.24636884,0.25641602,-0.32882044,-0.28963804,-0.10780551,-0.10508487,247.92133,248.64183,253.1982,253.15425,0,0,0,0,0,0,0,0,0,0,0,0,0.017320223,0.018359903,0.023577074,0.02455356,0.3292763,0.29021937,0.11035355,0.107915275,-0.009610534,-0.008764032,0.00039884076,0.0015933774,164,6,231,2,0,667.4251,177.64674,-1434.5778,82.598915,751101,657.9035,111.880035,110.67497,111.904175,111.904175,0,1,305.3901,0,0,10.187107,10.187103,0,4,255,194,0,0,1,0,161,159
True,28042734,15999.99,0,10373.149,0.9393302,-3.5369875,-19.883987,-0.12971759,0.15124457,80.28957,0.103281386,-0.00041064882,0.0042437147,1.5335506,0.010801704,-0.0004334418,0.24898335,0.24984582,0.21815348,0.21911691,-0.47302338,-0.5419591,-0.318175,-0.32485574,236.9996,235.54823,241.39983,241.28337,0,0,0,0,0,0,0,0,0,0,0,0,0.01584361,0.015503455,0.016187524,0.017331239,0.47328866,0.54218084,0.3185865,0.32531774,-0.002124492,-0.0020186976,-0.002955757,-0.0028412119,164,6,231,2,0,675.0897,177.5914,-1434.276,80.28981,481370.47,442.6577,112.0786,110.88187,111.972916,111.972916,0,1,310.34958,0,0,10.28126,10.281255,0,4,173,255,0,0,1,0,160,129
True,28042843,15999.99,0,9632.351,0.38166153,-5.0163746,-25.066622,-0.0794642,0.44526473,77.37514,0.054374114,0.0048586335,0.035426747,1.533439,0.02161761,0.00051470404,0.2604892,0.28822392,0.15190417,0.15363096,-0.841252,-0.69694614,-0.79149264,-0.8192053,220.23123,223.28633,222.19678,223.46466,0,0,0,0,0,0,0,0,0,0,0,0,0.00881659,0.0065546385,0.005641745,0.014688482,0.8412982,0.69697696,0.7915127,0.81933695,-0.0007131137,0.0026890077,-0.01083231,-0.010627007,164,6,231,2,0,683.9582,177.48169,-1433.934,77.37646,498478.84,494.64737,112.53739,111.252625,112.15221,112.15221,0,1,316.08914,0,0,10.393854,10.393849,0,4,179,255,0,0,1,0,158,129
True,28042953,15999.99,0,10481.765,0.50187033,-2.442707,-3.8303244,-0.04657483,0.16022491,76.974915,-0.021112677,-0.0004447179,-0.013072841,1.5337176,0.020459982,0.0011635752,0.30711654,0.30471712,0.20336005,0.2100946,0.15300032,0.14064167,0.1465023,0.15620233,241.9722,241.70969,242.11258,242.27917,0,0,0,0,0,0,0,0,0,0,0,0,0.0073151356,0.006833641,0.005592484,0.0071929814,0.1531751,0.1408076,0.14660901,0.15636785,0.005006496,0.004712168,-0.004714586,-0.003913898,164,6,231,2,0,692.5223,177.33691,-1433.608,76.975105,752436.44,685.66644,112.68067,111.38291,112.27932,112.27932,-13.975602,1,321.63193,0,0,10.505427,10.505422,0,4,255,0,0,0,1,0,156,0
True,28043078,15999.99,0,10557.224,0.23241788,-2.7628198,3.9630053,-0.008909225,-0.2207079,77.57031,0.017764179,-0.002183949,-0.014448789,1.5335325,0.019488478,0.00089683966,0.2597237,0.25845417,0.2565719,0.2632092,0.12815405,0.14786007,0.15122695,0.14832552,243.28531,243.65492,244.01701,243.9829,0,0,0,0,0,0,0,0,0,0,0,0,0.0015709072,0.0029735572,0.0011300293,0.0014518943,0.12816368,0.14788996,0.15123117,0.14833263,-0.00080701336,-0.0009627417,0.001611907,0.0024010316,164,6,231,2,0,701.1037,177.16197,-1433.2861,77.570625,752399.44,680.6554,112.71355,111.425835,112.38349,112.38349,-14.7,1,327.1846,0,0,10.616569,10.616562,0,4,255,0,0,0,1,0,155,127
True,28043187,15999.99,0,10613.624,-0.810925,0.28121796,5.0981054,-0.01243782,-0.33219782,78.16833,0.0050370116,-0.04557369,-0.008428888,1.5325391,0.017689185,-0.0009946596,0.28826806,0.28509492,0.3279928,0.31564355,0.14270353,0.10778956,0.112725645,0.10446652,245.39291,244.91371,245.08154,245.1117,0,0,0,0,0,0,0,0,0,0,0,0,-0.16294658,-0.15319085,-0.005658589,-0.0034636566,0.21660076,0.18731263,0.11286758,0.10452393,0.0026944205,0.0023051836,0.010103323,0.008635089,164,6,231,2,0,709.80237,176.96492,-1432.9597,78.16903,752520.44,677.29065,112.76758,111.495346,112.49988,112.49988,-14.7,1,332.81497,0,0,10.728363,10.728357,0,4,255,0,0,0,1,-37,153,127
True,28043296,15999.99,0,10665.055,-2.0405297,-2.8902736,5.3204784,0.35219336,-0.3414326,78.72082,-0.00980826,-0.051454894,-0.011950739,1.5246515,0.022863962,-0.0028633813,0.22110087,0.21929255,0.26713046,0.26528677,0.06933107,0.05385042,0.1235615,0.10960977,245.43466,245.40678,246.78357,246.78067,0,0,0,0,0,0,0,0,0,0,0,0,-0.03554484,-0.033291094,-0.050325073,-0.048662737,0.0779117,0.063310064,0.13341686,0.11992649,-0.005544737,-0.0057665557,0.002867248,0.0026480444,164,6,231,2,0,718.48645,176.74756,-1432.6116,78.722336,751919.25,673.0382,112.81785,111.56126,112.59934,112.59934,-14.7,1,338.43594,0,0,10.8392,10.839193,0,4,255,20,0,0,1,0,152,117
True,28043406,15999.99,0,8731.438,3.7296948,-0.8607992,-113.26933,0.70320463,0.14348118,66.94569,0.030639159,0.003087349,-0.019086665,1.5237982,0.029705433,-0.0013494862,0.26467803,0.27998275,0.21894975,0.23741041,-0.39963895,-0.36207822,-0.23277195,-0.17603959,199.06166,199.82158,202.3721,203.31152,0,0,0,0,0,0,0,0,0,0,0,0,-0.103404425,-0.10247192,-0.112791754,-0.107430495,0.4127999,0.37629926,0.25865954,0.20623106,-0.0001992844,0.0016780905,-0.0028610863,-0.00066624954,164,6,231,2,0,726.2546,176.53734,-1432.3079,66.94953,576019.9,627.7502,112.984314,111.73131,112.70238,112.70238,-14.7,1,343.46497,0,0,10.9466095,10.946602,0,4,65,255,0,0,1,0,151,0
True,28043515,15999.99,0,8018.406,-1.0842698,-1.2068204,-42.671013,0.24881053,0.3571236,63.22777,0.047680262,0.047132093,-0.00417458,1.5274544,0.034170393,-0.0031207427,0.3088078,0.31841254,0.18267676,0.1953679,-0.7820308,-0.6490203,-0.5342547,-0.47325516,180.96515,183.04863,186.61205,187.18384,0,0,0,0,0,0,0,0,0,0,0,0,-0.04794568,-0.04975367,-0.035327576,-0.03188415,0.7834992,0.65092456,0.53542143,0.47432798,0.0052139536,0.006392136,-0.007173676,-0.005664792,164,6,231,2,0,733.54285,176.33786,-1432.035,63.229263,110579.82,131.51308,113.29437,111.99878,112.79991,112.79991,-14.7,1,348.18143,0,0,11.0591135,11.059107,0,4,0,255,0,0,1,0,149,0
True,28043625,15999.99,0,7082.1006,-0.3022803,-1.9942164,-29.468353,-0.076734304,0.5132339,59.985474,0.028983938,0.03218301,-0.0027321943,1.5321134,0.0401287,-0.0036173216,0.33280635,0.32409593,0.16620168,0.16675214,-2.2051368,-2.185143,-0.75710404,-0.8066205,148.07912,148.32008,172.35255,171.3751,0,0,0,0,0,0,0,0,0,0,0,0,-0.0341226,-0.03774981,0.016732378,0.023282414,2.2054007,2.1854692,0.75728893,0.8069564,0.008157771,0.007089298,-0.009132441,-0.009066995,164,6,231,2,0,740.6574,176.12477,-1431.751,59.987713,-63801.93,-86.15439,115.36339,114.198,112.98389,112.98389,-14.7,1,352.78787,0,0,11.174895,11.17489,0,4,0,255,0,0,1,-9,148,0
True,28043734,15999.99,0,7055.824,-2.081346,1.5003194,-40.750507,0.06003833,0.6062199,54.95631,-0.02131699,-0.14951703,-0.015932402,1.528243,0.03832735,-0.004796356,0.42656308,0.4570279,0.18043728,0.20134234,-0.84673953,-0.4826281,-0.36321416,-0.24872793,155.04343,161.9044,164.20686,166.53737,0,0,0,0,0,0,0,0,0,0,0,0,-0.30845344,-0.2907313,-0.044764075,-0.040362842,0.9011722,0.5634311,0.3659622,0.25198162,0.019658573,0.023395583,-0.0074399337,-0.004954476,164,6,231,2,0,746.8787,175.93854,-1431.5167,54.959686,-64053.754,-86.470955,116.87062,115.6769,113.40889,113.40889,-14.7,1,356.81558,0,0,11.284219,11.284213,0,4,0,255,0,0,1,-102,147,0
True,28043843,15999.99,0,6852.4243,-11.289223,1.3576052,-24.347507,0.43423128,0.4926688,52.551266,-0.055703945,-0.41022903,-0.052536745,1.4971093,0.033668857,-0.009553,0.38414836,0.4308168,0.17535418,0.24077053,-0.276265,-0.53029025,-0.22878407,-0.22485088,158.1729,153.74329,158.75342,160.23619,0,0,0,0,0,0,0,0,0,0,0,0,-0.5779558,-0.5324459,-0.19068597,-0.15914193,0.6405898,0.7514695,0.29783097,0.27547064,0.01445571,0.02018036,-0.008044276,-0.00026675686,164,6,231,2,0,752.78955,175.78447,-1431.2068,52.555367,13124.612,18.27389,117.0058,115.84567,113.753204,113.753204,-14.7,1,360.64438,0,0,11.394482,11.394477,0,4,23,255,0,0,1,-127,148,253
True,28043968,15999.99,0,6357.2266,-15.429385,0.4487412,-19.49256,1.7016335,0.38328612,50.358326,-0.012296337,-0.6102404,-0.052641325,1.4394135,0.029494505,-0.019156085,0.2380157,0.35733727,0.12579156,0.21698754,-0.33107063,-0.31959856,-1.0791451,-0.5272513,149.43613,154.0832,139.21451,149.07341,0,0,0,0,0,0,0,0,0,0,0,0,-0.8624251,-0.71366507,-0.5253316,-0.46088263,0.9237883,0.7819598,1.2002198,0.7002905,-0.0034698546,0.011166889,-0.013936903,-0.0030943789,164,6,231,2,0,758.4937,175.65189,-1430.7413,50.388523,68250.85,102.474365,117.200714,116.11217,113.97414,113.97414,-14.7,1,364.3478,0,0,11.5057335,11.505728,0,4,38,255,0,0,1,-127,154,243
True,28044062,15999.99,0,6064.373,-23.40909,3.3080301,-18.319304,3.1449766,0.4050634,48.026207,-0.10483976,-0.79415107,-0.010406772,1.3588984,0.020703323,-0.025318725,0.36435363,0.56671494,0.08660653,0.28298515,-1.0051501,-0.56837285,-0.6183315,-0.47904357,134.80835,139.90839,140.59418,142.42883,0,0,0,0,0,0,0,0,0,0,0,0,-1.1408794,-0.91406155,-0.91728103,-0.72375923,1.520504,1.0763625,1.106227,0.86793447,0.012027562,0.03685049,-0.018595714,0.0047522485,164,6,231,2,0,763.948,175.54549,-1430.0819,48.13078,76231.84,120.54227,117.73687,116.815315,114.74718,114.74718,-14.7,1,367.89145,0,0,11.617238,11.617232,0,3,39,255,0,0,1,-127,165,225
True,28044187,15999.99,0,5776.0635,-20.662472,1.228814,-15.044521,4.550585,0.45198083,46.033333,0.038505543,-0.6801007,0.052165676,1.2799617,0.016264312,-0.024003655,0.37811923,0.5580872,0.21963874,0.39720756,-0.59217197,-0.31477508,-0.67492366,-0.9205036,132.60994,139.01306,133.31052,130.86685,0,0,0,0,0,0,0,0,0,0,0,0,-1.6146235,-1.3754066,-1.2910277,-1.1312333,1.7197897,1.4109666,1.4568028,1.4584292,0.013716139,0.035792157,-0.0027791709,0.018332444,164,6,231,2,0,769.02264,175.49625,-1429.198,46.25992,91334.88,150.93515,119.42241,118.52438,115.8393,115.8393,-14.7,1,371.1958,0,0,11.726555,11.726549,0,3,43,255,0,0,1,-127,182,204
True,28044296,15999.99,0,5534.234,-18.642534,-0.1471505,-12.147205,6.344571,0.379961,44.24754,-0.021127298,-0.8052642,0.0138421245,1.1982646,0.015041114,-0.021699753,0.37172267,0.5376504,0.23145068,0.35627204,-0.85370344,-0.41067928,-1.0147421,-0.61062163,123.62453,131.96698,125.04895,130.58788,0,0,0,0,0,0,0,0,0,0,0,0,-1.9828655,-1.6717134,-1.7914765,-1.533791,2.1588342,1.7214189,2.058905,1.6508706,0.012931496,0.033285245,-0.0013748184,0.013465516,164,6,231,2,0,773.9212,175.44722,-1428.1517,44.701706,101723.62,176.33202,122.46303,122.120346,118.26564,118.26564,-14.7,1,374.31345,0,0,11.836663,11.836657,0,3,45,255,0,0,1,-127,201,187
True,28044406,15999.99,0,5174.142,-18.195585,-0.2856499,-9.699724,8.09336,0.35067165,42.483696,0.01721369,-0.74870116,0.020584937,1.112987,0.01349171,-0.020830119,0.3207725,0.4777714,0.22389999,0.38768733,-0.51768494,-0.36203477,-1.1290672,-1.2827209,121.53438,126.36802,120.00169,114.166016,0,0,0,0,0,0,0,0,0,0,0,0,-2.508582,-2.1836722,-2.3384473,-1.9371264,2.5614414,2.21348,2.5967536,2.3233232,0.006681621,0.025940113,-0.0022725388,0.017200563,164,6,231,2,0,778.59106,175.40375,-1426.956,43.249165,107535.586,198.40184,127.08104,127.56365,122.04484,122.04484,-14.7,1,377.4039,0,0,11.946381,11.946373,0,3,46,255,0,0,1,-127,226,168
True,28044515,15999.99,0,4883.2397,-18.277002,0.19516514,-8.255015,9.611502,0.35673437,40.765854,0.008085516,-0.74546546,0.0029345104,1.0303416,0.011254423,-0.021567347,0.296529,0.45227906,0.20549557,0.35699558,-0.5133241,-0.93959993,-1.1887872,-1.1564604,116.51145,115.674095,110.851555,111.11302,0,0,0,0,0,0,0,0,0,0,0,0,-3.0296798,-2.6122549,-2.7423337,-2.2613575,3.0728588,2.7760985,2.9889143,2.5399091,0.003707759,0.02281306,-0.0044606887,0.013551544,164,6,231,2,0,782.9939,175.36575,-1425.6443,41.885117,121812.8,236.94865,133.17044,134.4789,127.229004,127.229004,-14.7,1,380.3297,0,0,12.05435,12.054342,0,3,50,255,0,0,1,-127,255,160
True,28044625,15999.99,0,4742.674,-17.579895,-0.044245206,-7.54326,10.944958,0.35814506,39.014816,-0.023221608,-0.760452,0.0066637034,0.94950444,0.010234677,-0.0209192,0.2729394,0.4261122,0.175521,0.31551576,-0.57787126,-0.31355825,-0.98376185,-1.1718355,111.10717,116.72938,107.679535,106.63308,0,0,0,0,0,0,0,0,0,0,0,0,-3.4465044,-2.8546543,-3.2252054,-2.8247077,3.494614,2.8718235,3.3719041,3.0581322,0.00081411004,0.019603264,-0.008024443,0.008619901,164,6,231,2,0,787.29175,175.33383,-1424.1807,40.522537,137555.34,274.47626,140.63326,143.61938,133.84811,133.84811,-14.7,1,383.19772,0,0,12.164637,12.164629,0,3,55,255,0,0,1,-127,25,149
True,28044750,15999.99,0,4427.629,-16.227623,-0.6872643,-6.127415,12.38136,0.33220327,37.065834,0.043062918,-0.6825712,0.017360328,0.8599681,0.010161964,-0.020409087,0.2374853,0.37465551,0.1557986,0.3032967,-0.68663126,-1.3685675,-0.61596537,-1.7688344,102.85556,99.13536,105.31262,100.556564,0,0,0,0,0,0,0,0,0,0,0,0,-4.0765514,-3.4971666,-3.8355455,-3.3946996,4.133973,3.7554162,3.8846908,3.8278923,-0.0035349168,0.013291258,-0.01036929,0.007167142,164,6,231,2,0,791.94147,175.30072,-1422.3851,39.080486,154723.16,335.0714,148.93102,153.99126,142.31332,142.31332,-14.7,1,386.86475,0,0,12.29002,12.290014,0,3,62,255,0,0,1,-127,44,143
True,28044843,15999.99,0,4296.8623,-14.97859,-0.94546866,-5.2390647,13.397563,0.29726028,35.693676,0.009069487,-0.6976609,0.019453526,0.795046,0.011183057,-0.020184744,0.22665784,0.3727231,0.14449614,0.2875315,-0.6256472,-0.47836536,-0.98478436,-1.451277,99.70964,103.82664,102.823296,92.9035,0,0,0,0,0,0,0,0,0,0,0,0,-4.3843355,-3.8134058,-4.2519403,-3.5349054,4.4287505,3.8432925,4.364493,3.8212252,-0.0048630834,0.013054214,-0.011713069,0.005292777,164,6,231,2,0,795.26,175.26761,-1420.9733,38.126385,185470.86,411.48315,154.72064,161.31638,148.22473,148.22473,-14.7,1,389.18625,0,0,12.383473,12.383467,0,3,74,255,0,0,1,-127,44,134
True,28044953,15999.99,0,4120.1865,-16.803602,0.20196606,-4.902691,14.167303,0.30104652,34.12686,-0.0005432926,-0.7052497,-0.00063571543,0.7235354,0.00889137,-0.019486496,0.2588902,0.39891827,0.17902756,0.3014754,-0.5334585,-0.4242284,-1.0123371,-1.4102517,95.95126,99.76369,97.84596,89.53693,0,0,0,0,0,0,0,0,0,0,0,0,-4.9288473,-4.2357597,-4.480196,-3.9556706,4.957632,4.256951,4.5931454,4.1995406,-0.00090925395,0.016267482,-0.0076075383,0.006950602,164,6,231,2,0,798.6875,175.2362,-1419.3766,36.95194,208336.06,481.9891,161.07237,169.3816,154.4505,154.4505,-14.7,1,391.63483,0,0,12.484283,12.484276,0,3,85,255,0,0,1,-127,33,134
True,28045062,15999.99,0,3914.3882,-15.571788,-0.53796536,-4.01353,15.018122,0.30363253,32.446907,0.027209388,-0.66186774,0.029284663,0.64566195,0.010340029,-0.018783161,0.20749018,0.36393157,0.17575374,0.29767117,-1.6160477,-1.2937247,-0.79110587,-0.76974136,83.05914,88.05549,89.51671,96.52423,0,0,0,0,0,0,0,0,0,0,0,0,-5.291229,-4.372958,-4.9211736,-4.499023,5.532514,4.5603166,4.9843554,4.564396,-0.0072143115,0.011975791,-0.0079967715,0.0064983107,164,6,231,2,0,802.4431,175.2019,-1417.455,35.755253,202914.16,496.4296,167.42238,177.56706,161.36581,161.36581,-14.7,1,394.38132,0,0,12.600336,12.600328,0,3,87,255,0,0,1,-127,7,129
True,28045171,15999.99,0,3791.0298,-17.607882,-0.5016773,-7.326835,15.192104,0.3361224,30.015972,0.04470168,-0.6487333,0.020387124,0.5696088,0.013767953,-0.017325161,0.18745025,0.31770605,0.14450964,0.26608983,-0.64392257,-0.48921162,-0.12765197,-0.84657604,83.258316,87.04197,89.81426,87.88774,0,0,0,0,0,0,0,0,0,0,0,0,-5.4657087,-4.67463,-5.5154614,-4.5953336,5.5035086,4.700159,5.516938,4.672663,-0.009672537,0.006305471,-0.011711463,0.0027435198,164,6,231,2,0,805.8923,175.16188,-1415.5123,33.6433,211744.14,534.8655,173.42416,185.25548,167.8734,167.8734,-14.7,1,396.51108,0,0,12.715508,12.715499,0,3,93,255,0,0,1,-127,228,129
True,28045296,15999.99,0,3405.0378,-15.606258,-0.27165318,-3.9347289,15.7235775,0.29768878,28.35219,-0.013584966,-0.68951184,0.011140856,0.49230018,0.012766351,-0.016815703,0.18139943,0.33699024,0.115071245,0.22256626,-0.34121865,-0.33047348,-1.5816242,-0.8038227,80.643684,83.70073,74.32158,79.13066,0,0,0,0,0,0,0,0,0,0,0,0,-6.098411,-5.1893787,-5.763267,-4.9034204,6.1079493,5.1998906,5.9763517,4.968869,-0.010414768,0.008670993,-0.01521147,-0.0024311095,164,6,231,2,0,809.0612,175.12418,-1413.5566,32.42169,202782.02,561.9535,179.38382,192.77797,173.66577,173.66577,-14.7,1,398.4311,0,0,12.828318,12.828307,0,3,97,255,0,0,1,-127,186,145
True,28045406,15999.99,0,3105.785,-16.592789,0.48172304,-3.6860576,15.971714,0.28177202,26.611355,-0.012460662,-0.680028,0.0039816163,0.41543287,0.009465504,-0.015436751,0.19930537,0.34810823,0.15496714,0.26317322,-1.005049,-0.8610944,-0.45776978,-2.1111517,65.25409,75.077866,78.954605,66.18666,0,0,0,0,0,0,0,0,0,0,0,0,-6.478353,-5.60169,-6.0380893,-5.4076347,6.555851,5.667487,6.055417,5.8051248,-0.008218311,0.0100348,-0.010468144,0.0023967586,164,6,231,2,0,812.0165,175.09467,-1411.5616,31.037704,203413.25,620.41693,184.8274,200.15814,179.46324,179.46324,-14.7,1,400.3274,0,0,12.940802,12.94079,0,3,106,255,0,0,1,-127,140,133
True,28045515,15999.99,0,3330.8464,-15.46443,-0.2384207,-1.9342768,16.139221,0.28522423,25.16952,0.021095902,-0.6377366,0.010162419,0.3435371,0.010654171,-0.015050538,0.16713092,0.3230611,0.15155612,0.26054507,0.63441193,0.9468099,-0.52478987,-0.15414497,77.989395,83.20549,71.91564,77.95981,0,0,0,0,0,0,0,0,0,0,0,0,-6.8127713,-5.7769394,-6.4293933,-5.819169,6.842246,5.854014,6.450775,5.8212104,-0.012165038,0.006962359,-0.01087369,0.0020842887,164,6,231,2,0,814.75867,175.07053,-1409.539,29.900843,479493.06,1367.9336,189.71661,206.35428,184.96472,184.96472,-14.7,1,402.19293,0,0,13.052789,13.052776,0,3,255,255,0,0,1,-127,129,129
True,28045625,15999.99,0,3673.8445,-13.700458,-1.2754852,-0.5490012,16.354904,0.20544437,23.910643,0.058185533,-0.5932526,-0.042507432,0.27468815,0.011655791,-0.016500175,0.14086057,0.13520347,0.13686901,0.2538319,2.1886573,2.0785527,1.9987409,1.2142892,82.902596,85.13224,85.77373,84.813446,0,0,0,0,0,0,0,0,0,0.120000005,0,0,-7.1288786,-7.4067965,-7.098746,-5.6634054,7.4572873,7.6929197,7.374765,5.7921205,-0.015387526,-0.01608146,-0.012619877,0.0012861416,164,6,231,2,0,817.2457,175.04175,-1407.5396,28.969706,230938.33,603.063,193.36337,208.65845,189.81332,189.81332,-14.7,1,403.98694,0,0,13.161427,13.161414,0,3,255,0,0,0,1,-127,129,0
True,28045734,15999.99,0,4060.0251,-15.229916,-0.6996532,1.2044809,16.197844,0.100136876,22.957731,-0.12543853,-0.6758754,0.1508857,0.20803751,0.012676019,-0.0126304375,0.07414324,0.32152638,0.096823476,0.1134464,4.3509355,2.4803994,4.5398726,3.3790293,92.39849,86.93498,95.53645,96.424385,0,0,0,0,0,0,0,0,0.59999996,0.59999996,0.120000005,0.59999996,-6.8283687,-5.9632034,-7.562662,-6.636619,8.096744,6.4584966,8.820675,7.4473186,-0.023571499,0.0067740977,-0.017380996,-0.015404653,164,6,231,2,0,819.6028,174.99834,-1405.4668,28.096933,256275.22,603.7266,190.07407,207.72612,191.85666,191.85666,-13.638838,1,404.20407,0,0,13.271569,13.271557,0,3,255,0,0,0,1,-127,129,0
True,28045843,15999.99,0,4192.4907,-19.965843,4.788053,5.198224,15.829572,0.26453552,22.370323,-0.2079499,-0.73967844,-0.08734288,0.14078698,7.529582E-05,-0.012898909,0.20585786,0.4507834,0.18648422,0.3676383,0.97632533,1.1119283,1.2636559,0.935205,88.66255,97.76786,100.08859,97.46147,0,0,0,0,0,0,0,0,0.59999996,0.59999996,0.59999996,0.59999996,-2.1471539,-2.188448,-2.2263982,-2.0077193,2.3587031,2.454728,2.5600147,2.2148466,-0.007414542,0.022629589,-0.0067209974,0.01481688,164,6,231,2,0,821.5471,174.97035,-1403.5533,27.405777,320056.75,729.9441,188.68654,205.77953,190.01248,190.01248,-11.76,1,404.20407,0,0,13.369663,13.369652,0,3,255,0,0,0,1,-127,129,0
True,28045937,15999.99,0,4718.646,-11.773058,-1.0512905,4.129091,16.290121,0.007655695,21.595451,0.033643257,-0.65777194,-0.10643327,0.07014346,-0.009392862,-0.018563977,0.1478302,0.24255185,0.31291255,0.22800064,0,1.6529137,1.8536904,1.4263088,111.64875,106.27418,110.81426,107.14991,0,0,0,0,0,0,0,0,0,0.59999996,0.59999996,0.59999996,0,-2.2971559,-2.3162947,-2.1047804,0,2.8300261,2.9667134,2.5425298,-0.014532585,-0.0029134229,0.0083103925,-0.0017850026,164,6,231,2,0,823.38306,174.97464,-1401.5154,27.050537,338093.3,685.6908,186.54968,202.99728,188.23251,188.23251,-11.76,1,404.92242,0,0,13.470554,13.470543,0,2,255,0,0,0,1,-127,129,0
True,28046062,15999.99,0,4919.121,-12.171963,0.65757704,6.159896,16.45839,0.30570322,21.013096,-0.052188497,-0.7055269,0.054143578,-0.008830349,-0.0036777474,-0.018571265,0.14199553,0.27797812,0.22172137,0.44797698,1.5843374,1.5636401,2.3274655,1.910096,104.661545,108.73265,118.610466,116.07068,0,0,0,0,0,0,0,0,0.59999996,0.59999996,0.59999996,0.59999996,-2.0605128,-1.9614158,-2.3924775,-2.2374635,2.5991993,2.5084102,3.3378203,2.9418888,-0.015248304,0.0014321916,-0.002531562,0.024368554,164,6,231,2,0,825.42535,174.97119,-1399.0243,26.693113,343502.28,666.6132,184.64743,200.60378,186.64253,186.64253,-11.76,1,406.41153,0,0,13.590488,13.590477,0,2,255,0,0,0,1,127,129,0
True,28046187,15999.99,0,4963.0186,-9.765467,0.90182316,8.1688385,16.975094,0.0072423816,20.553146,-0.06362454,-0.6271721,0.081864424,-0.0993192,-0.011537489,-0.00066939875,0.2137364,0.32813916,0.12336909,0.42842317,0.9606378,0.99398744,2.312063,2.1151972,105.06636,113.72676,116.36485,118.52057,0,0,0,0,0,0,0,0,0.59999996,0.59999996,0.59999996,0.59999996,-0.7428206,-0.21724243,-2.426169,-2.382955,1.2143341,1.0174505,3.3514075,3.186304,-0.0064481087,0.0075852647,-0.014224919,0.02204375,164,6,231,2,0,827.48505,174.9942,-1396.147,26.656813,350939.47,676.35156,182.00153,196.40067,185.21448,185.21448,-11.76,1,408.14877,0,0,13.723378,13.723368,0,3,255,0,0,0,1,106,129,0
True,28046296,15999.99,0,5018.721,-9.189968,0.29350376,7.604248,17.170174,0.028545976,20.393114,0.013092779,-0.49476376,-0.3409103,-0.15417503,-0.01868166,-0.003473271,0.18148413,0.15967701,0.23847318,0.26833406,1.4968933,0,2.2018993,2.1378362,110.65965,121.78062,114.59895,116.87001,0,0,0,0,0,0,0,0,0.59999996,0,0.59999996,0.59999996,-1.7218257,0,-2.398732,-2.369026,2.2815287,0,3.2561135,3.1910229,-0.010404378,-0.013079381,-0.00053989515,0.00301034,164,6,231,2,0,828.87933,175.03181,-1393.9476,26.65886,366712.44,700.16675,179.3901,192.79732,184.48622,184.48622,-11.76,1,409.48715,0,0,13.820887,13.820876,0,3,255,0,0,0,1,-118,129,0
True,28046406,15999.99,0,5739.8394,-5.949128,-5.1672287,3.6983926,17.510197,-0.1918657,19.866901,0.12744725,-0.4882165,0.16173598,-0.20889823,-0.010124872,-0.008094048,0.03966593,0.018254042,0.14015114,0.117939465,0,0,0,2.895084,137.42188,125.35357,134.02611,132.35825,0,0,0,0,0,0,0,0,0,0,0,0.59999996,0,0,0,-2.4407787,0,0,0,3.7866755,-0.027800705,-0.030427225,-0.012229657,-0.014870461,164,6,231,2,0,830.3584,175.05756,-1391.3905,26.482777,573030.4,959.2609,176.25021,190.00308,183.08719,183.08719,-11.76,1,411.0514,0,0,13.932137,13.932125,0,3,255,0,0,0,1,-127,129,0
True,28046515,15999.99,0,5560.839,-11.605012,1.0397831,7.436404,17.24865,-0.106505245,19.744469,-0.20934314,-0.6055585,0.03210691,-0.2667495,-0.004987532,0.006831953,0.26209277,0.5111636,0.055898566,0.11490733,3.6420245,2.2804265,3.089648,2.9573164,133.6379,111.3168,130.40947,132.87352,0,0,0,0,0,0,0,0,0.59999996,0.59999996,0.59999996,0.59999996,-2.6456888,-2.4635987,-2.474538,-2.4435368,4.5015564,3.357032,3.9584422,3.836221,-0.0005164072,0.030036204,-0.022246664,-0.015230959,164,6,231,2,0,831.7246,175.05386,-1388.7863,26.21777,364021.3,624.03143,175.05269,188.84904,181.6728,181.6728,-11.76,1,412.6524,0,0,14.043677,14.043665,0,3,255,0,0,0,1,-127,129,0
True,28046625,15999.99,0,4861.2075,-18.022182,7.2541347,10.39773,16.551292,0.14311236,19.620794,-0.15645196,-0.620072,0.092361465,-0.33919388,-0.040972635,0.0066551156,0.40476096,0.54396206,0.51605463,0.5600834,3.9780438,1.6732216,2.2575076,1.858814,137.46591,95.858475,110.525,109.2556,0,0,0,0,0,0,0,0,0.59999996,0.59999996,0.59999996,0.59999996,-2.607886,-2.5072541,-2.4530964,-2.274955,4.756669,3.0142982,3.33377,2.93779,0.016984183,0.03405948,0.032462485,0.037697174,164,6,231,2,0,832.84973,175.12099,-1386.1671,25.669851,354880,698.1,174.93912,188.8698,182.10703,182.10703,-11.76,1,414.27713,0,0,14.153613,14.153601,0,3,255,0,0,0,1,-127,129,0
True,28046750,15999.99,0,5404.738,-8.663443,-2.5655596,4.568473,16.726599,-0.12460148,19.023026,0.11433011,-0.5524029,0.1310897,-0.40726325,-0.0315676,0.019437172,0.11110679,0.1684275,0.2457658,0.21171546,4.2759204,2.5244677,3.0875468,2.8335502,138.72816,110.143875,125.150444,124.90429,0,0,0,0,0,0,0,0,0.59999996,0.59999996,0.59999996,0.59999996,-2.697311,-2.6083293,-2.5625646,-2.4779377,5.055589,3.62992,4.0124407,3.7641973,-0.019037314,-0.01200599,0.00032714382,-0.0037211888,164,6,231,2,0,833.86523,175.25417,-1383.217,25.331205,368397.62,654.1447,174.26747,187.5312,181.58948,181.58948,-11.76,1,416.12177,0,0,14.276219,14.276207,0,3,255,0,0,0,1,-127,129,0
True,28046843,15999.99,0,5248.0254,-12.111747,1.4625641,7.196592,16.514814,0.3865623,18.821129,-0.052322865,-0.61396116,0.092935964,-0.4672226,-0.022649115,0.014157946,0.017776858,0.12326314,0.17545131,0.17825466,3.6233382,2.1453257,3.1649175,2.8415105,126.7619,103.2918,124.76863,124.31049,0,0,0,0,0,0,0,0,0.59999996,0.59999996,0.59999996,0.59999996,-2.5899432,-2.5056727,-2.568572,-2.4570572,4.453806,3.2986083,4.07606,3.7565026,-0.03048576,-0.017546138,-0.008032728,-0.00769943,164,6,231,2,0,834.6231,175.35265,-1380.6252,25.042429,365302.66,665.6059,174.20775,187.10951,181.14648,181.14648,-11.76,1,417.40277,0,0,14.383419,14.383409,0,3,255,0,0,0,1,-43,129,0
True,28046953,15999.99,0,5862.374,-6.279695,-4.444879,3.9827,17.051237,-0.2233398,18.147785,0.030108303,-0.6029003,0.31491083,-0.528974,-0.017615136,0.024152407,0.0123040015,0.119153164,0.07620759,0.109474085,0,2.9850638,0,3.5806963,142.98077,123.65019,135.98622,137.03362,0,0,0,0,0,0,0,0,0.59999996,0.59999996,0.59999996,0.59999996,0,-2.409248,0,-2.5380363,0,3.8360243,0,4.388965,-0.031157095,-0.018050294,-0.01983207,-0.015876932,164,6,231,2,0,835.2398,175.43907,-1378.071,24.902544,372933.53,608.44775,172.81705,184.69897,178.91382,178.91382,-11.76,1,419.00238,0,0,14.488755,14.488744,0,3,255,0,0,0,1,0,129,0
True,28047062,15999.99,0,5614.3423,-8.841575,-0.89376044,7.078639,17.069382,-0.2246055,17.94142,-0.2309831,-0.6810014,0.19004075,-0.5936056,-0.024045095,0.026128083,0.3146074,0.4264767,0.024638971,0.14455493,2.9433377,2.360257,0,3.3395362,125.38137,119.43369,135.33401,131.83229,0,0,0,0,0,0,0,0,0.59999996,0.59999996,0.59999996,0.59999996,-2.1321118,-1.9919688,0,-2.522976,3.6344376,3.0884871,0,4.18544,0.0059253722,0.019647975,-0.025963198,-0.011706078,164,6,231,2,0,835.7335,175.50905,-1375.5277,24.765072,369127.06,626.31104,172.7458,184.2464,176.47868,176.47868,-11.76,1,420.6031,0,0,14.593166,14.593155,0,3,255,0,0,0,1,110,129,0
True,28047171,15999.99,0,4614.012,-12.915074,5.8853583,12.360766,16.49605,0.22861338,18.366283,-0.25569734,-0.62131006,0.17042491,-0.6642434,-0.04464212,0.045660257,0.5848993,0.66498655,0.30190498,0.63037467,1.3643515,1.2044122,2.3980095,1.9303755,107.30725,110.6799,106.32886,104.15385,0,0,0,0,0,0,0,0,0.59999996,0.59999996,0.59999996,0.59999996,-0.96804875,-0.44486052,-2.5422843,-2.302923,1.6728938,1.283943,3.4948046,3.0049632,0.039081104,0.04890511,0.0070016794,0.04605429,164,6,231,2,0,836.01605,175.66797,-1372.8997,24.687897,358661.8,740.12585,172.3184,182.71405,176.40298,176.40298,-11.76,1,422.2756,0,0,14.7003975,14.700388,0,3,255,0,0,0,1,127,129,0
True,28047296,15999.99,0,4568.9287,-6.398629,3.6441433,9.864226,16.613008,0.2818172,18.467297,-0.11324948,-0.32278225,0.27216324,-0.7209279,-0.04062552,0.06609693,0.39321795,0.51235324,0.39262694,0.6786833,0.5960895,0.44824952,2.7252393,2.439751,90.817635,89.21081,114.54195,113.26147,0,0,0,0,0,0,0,0,0.59999996,0.59999996,0.59999996,0.59999996,-0.58441776,0.1552658,-2.5452428,-2.4329126,0.83478546,0.47437865,3.7289662,3.4454968,0.015568245,0.030182138,0.017787848,0.051797822,164,6,231,2,0,836.12317,175.90207,-1369.9143,24.84175,382693.22,798.1399,169.6948,179.1402,176.37442,176.37442,-11.76,1,424.19214,0,0,14.8220625,14.822051,0,3,255,0,0,0,1,127,129,0
True,28047406,15999.99,0,5082.3384,-5.86186,-2.1010144,5.5158052,16.401602,-0.33502007,18.613848,0.046266656,-0.14876176,0.0074898787,-0.7444852,-0.04501549,0.081665836,0.19526252,0.29862663,0.41450933,0.40682277,1.7804337,1.2735816,2.751599,2.7553651,120.72335,111.7078,117.551674,118.44981,0,0,0,0,0,0,0,0,0.59999996,0.59999996,0.59999996,0.59999996,-1.1127111,-0.7164373,-2.4501188,-2.466472,2.0995405,1.461264,3.6843424,3.6980429,-0.008714233,0.0039650686,0.020389497,0.019475624,164,6,231,2,0,836.10364,176.12007,-1367.3197,24.811289,404336,763.0623,167.31187,176.1189,176.26312,176.26312,-11.76,1,425.86618,0,0,14.9268465,14.926834,0,3,255,0,0,0,1,0,129,0
True,28047515,15999.99,0,5439.7505,-7.484934,-1.0615338,6.4433823,15.868591,-0.03334081,19.026968,0.15792815,-0.11071803,-0.048229128,-0.7559397,-0.03233369,0.06518672,0.06803209,0.052895654,0.44579482,0.24933152,3.2666805,2.194917,3.0359557,2.8797965,136.67178,113.560524,126.61478,125.19612,0,0,0,0,0,0,0,0,0.59999996,0.59999996,0.59999996,0.120000005,-2.1411693,-2.0872886,-2.3396115,-2.2879674,3.9058683,3.0289328,3.832859,3.678046,-0.024321131,-0.026177865,0.02410911,0.00075108185,164,6,231,2,0,836.006,176.29387,-1364.6852,24.77577,401695.25,704.4329,166.57794,174.86604,176.28355,176.28355,-11.76,1,427.5701,0,0,15.033415,15.033402,0,3,255,0,0,0,1,0,129,0
True,28047625,15999.99,0,5642.5713,-8.193138,-1.9242084,5.87699,15.192352,-0.0754894,19.436533,0.13124019,-0.12846927,0.021400534,-0.77177155,-0.025148649,0.06589511,0.17425372,0.12691243,0.1690155,0.34898812,2.3845868,2.3445227,3.0094402,2.996582,131.12918,132.96536,129.43782,129.31058,0,0,0,0,0,0,0,0,0.59999996,0.59999996,0.59999996,0.59999996,-1.4518627,-1.2986419,-2.2265084,-2.245939,2.7918022,2.68016,3.7435372,3.7448292,-0.0112913065,-0.017098492,-0.008797899,0.012599517,164,6,231,2,0,835.76807,176.46646,-1362.0071,24.669659,389847.94,661.23505,167.03212,174.77808,175.83757,175.83757,-11.76,1,429.31183,0,0,15.142455,15.142442,0,3,255,0,0,0,1,127,129,0
True,28047718,15999.99,0,5380.7124,-5.3500543,0.9551421,9.215766,14.862181,0.16187203,20.256678,-0.2109591,-0.052503858,0.037807792,-0.78025615,-0.026700672,0.05772369,0.38657874,0.29156086,0.12783872,0.1805079,1.3511292,1.032381,2.8705268,2.8065279,117.70594,109.816,129.656,130.23567,0,0,0,0,0,0,0,0,0.59999996,0.59999996,0.59999996,0.59999996,-0.38288376,0.27464437,-2.16425,-2.129223,1.4043326,1.0682884,3.5949829,3.52281,0.014753837,0.0030983351,-0.013693513,-0.007431537,164,6,231,2,0,835.4575,176.61154,-1359.6467,25.12456,389593.8,693.52386,166.14784,173.33049,175.7309,175.7309,-11.76,1,430.5897,0,0,15.23828,15.238266,0,3,255,0,0,0,1,127,129,0
True,28047843,15999.99,0,5255.0015,-7.810794,1.7854319,9.148984,13.893469,-0.1501205,21.313559,0.0029891804,0.1241071,0.122688934,-0.77598655,-0.04018073,0.061430737,0.14434767,0.24355774,0.30451685,0.34601825,2.1958146,1.096108,2.207599,2.1458664,136.74268,106.31666,122.46411,120.07767,0,0,0,0,0,0,0,0,0.59999996,0.59999996,0.59999996,0.59999996,-1.1755152,-1.0292734,-1.9119712,-1.893206,2.4906702,1.5036143,2.920467,2.8616378,-0.014959775,-0.0027900338,0.007312212,0.012246419,164,6,231,2,0,834.9216,176.79416,-1356.4749,25.44246,372087.53,676.1944,164.36896,170.79251,175.78816,175.78816,-11.76,1,432.6709,0,0,15.365878,15.365862,0,3,255,0,0,0,1,0,129,0
True,28047953,15999.99,0,5302.241,-9.033674,0.036518395,6.9938874,12.471419,-0.082086444,22.310936,0.04295686,0.16878337,-0.2307023,-0.75764954,-0.032916587,0.06921292,0.12742132,0.09521923,0.30213892,0.27920493,1.8378221,1.6029544,2.121592,2.2854495,118.355446,110.984406,126.00533,127.318375,0,0,0,0,0,0,0,0,0.59999996,0.59999996,0.59999996,0.59999996,-1.6941025,-1.6828599,-1.6600636,-1.7061795,2.4995146,2.3241084,2.6938753,2.8520744,-0.017036071,-0.020986183,0.0070294887,0.004302811,164,6,231,2,0,834.30414,176.962,-1353.7604,25.560143,347202.8,623.8692,164.09967,169.69069,175.33884,175.33884,-11.76,1,434.465,0,0,15.4752245,15.475209,0,3,255,0,0,0,1,0,129,0
True,28048062,15999.99,0,5273.4185,-8.807626,-1.2545669,5.709759,11.073931,0.04031062,23.176865,0.016589507,0.13978165,-0.11226648,-0.7429118,-0.034802694,0.055233557,0.24508673,0.158353,0.18703571,0.3118689,1.7708158,1.8109497,1.7703084,1.9434055,120.90224,120.07467,121.57601,123.40272,0,0,0,0,0,0,0,0,0.59999996,0.59999996,0.59999996,0.59999996,-1.5309427,-1.5108417,-1.4456455,-1.4996408,2.340849,2.3584278,2.2855816,2.4547398,-0.0026024766,-0.013241792,-0.0066554286,0.0081863105,164,6,231,2,0,833.53735,177.13528,-1351.0692,25.686584,335924.84,609.0086,163.85896,168.99762,174.27092,174.27092,-11.76,1,436.2564,0,0,15.58462,15.584607,0,3,255,0,0,0,1,0,129,0
True,28048156,15999.99,0,4982.6514,-11.157716,2.0148964,7.691972,9.811387,0.18011808,24.012312,-0.035032704,0.08122184,0.20487022,-0.73405343,-0.040033937,0.05060258,0.1610639,0.29983863,0.18802972,0.3263011,1.6473652,1.1754566,1.7105379,1.1801075,120.25821,108.27951,122.35139,108.66108,0,0,0,0,0,0,0,0,0.59999996,0.59999996,0.59999996,0.59999996,-1.2858166,-1.3471589,-1.3139514,-1.2292229,2.0897694,1.7878858,2.1569443,1.7040079,-0.012909258,0.004113741,-0.0065372474,0.009902198,164,6,231,2,0,832.7784,177.27443,-1348.7781,25.940062,313480.75,599.314,163.40007,168.22818,173.31287,173.31287,-11.76,1,437.7894,0,0,15.67834,15.678328,0,3,255,0,0,0,1,0,129,0
True,28048281,15999.99,0,5107.639,-7.8585615,-1.0007153,6.492527,8.730108,0.015963554,24.745602,0.05994106,0.127436,0.024022324,-0.71963876,-0.032042596,0.056841955,0.061065953,0.17530887,0.23887374,0.21492578,1.4908557,0.46714458,1.5460967,1.6052532,127.17949,95.03771,119.86699,123.45917,0,0,0,0,0,0,0,0,0.59999996,0.59999996,0.59999996,0.59999996,-0.49081075,-0.39839745,-1.1339016,-1.1392002,1.5695688,0.6139581,1.9173284,1.9684042,-0.025175642,-0.011161875,-0.00049227104,-0.0033395067,164,6,231,2,0,831.7409,177.43365,-1346.0442,26.240425,259947.17,486.55582,161.58078,166.5315,171.67982,171.67982,-11.76,1,439.62875,0,0,15.79077,15.790759,0,3,255,0,0,0,1,88,129,0
True,28048390,15999.99,0,4831.3384,-6.812994,0.5559107,7.921965,7.5281286,-0.16370189,25.864601,-0.037560806,0.27551574,-0.055390142,-0.69683963,-0.038793214,0.061847955,0.23689325,0.26862726,0.24461323,0.25582016,0.9501758,0.9932066,0.9398058,1.1002964,111.475105,111.0156,110.710625,112.8034,0,0,0,0,0,0,0,0,0.59999996,0.59999996,0.59999996,0.59999996,-0.8009689,-0.8074531,-0.91861546,-0.926509,1.242733,1.2800156,1.3141878,1.4384266,-0.0036075413,0.00028515235,0.00019011274,0.0015225336,164,6,231,2,0,830.52893,177.58722,-1343.1394,26.938395,320510.66,637.70654,159.60504,163.91473,169.60168,169.60168,-11.76,1,441.591,0,0,15.909157,15.909147,0,3,255,0,0,0,1,0,129,0
True,28048500,15999.99,0,4729.7793,-11.62285,2.0457745,7.370881,5.4808626,0.10802722,26.860506,-0.17541264,0.23595914,-0.05363041,-0.66975665,-0.044487443,0.056285642,0.22490874,0.22696626,0.27507102,0.3492341,0.49513882,0.4332885,0.9697293,1.0522995,100.415146,96.20755,114.72089,115.555466,0,0,0,0,0,0,0,0,0.59999996,0.59999996,0.59999996,0.59999996,-0.700452,-0.6937459,-0.6460278,-0.6586412,0.8577852,0.81793785,1.1652154,1.2414275,-0.0050776377,-0.0048252493,0.0038113147,0.01262876,164,6,231,2,0,829.3534,177.73697,-1340.654,27.414198,385473.94,779.92676,157.95026,162.11763,167.31964,167.31964,-11.76,1,443.28177,0,0,16.01042,16.01041,0,3,255,0,0,0,1,0,129,0
True,28048609,15999.99,0,4690.568,-9.800208,0.8707031,6.9665523,3.5620823,0.17854643,27.737381,0.13425072,0.29704082,-0.032299366,-0.6382446,-0.044735733,0.049587067,0.08827783,0.15905608,0.18745635,0.18637204,1.0859976,0.3173318,0.5634228,0.7565684,121.385376,95.19478,105.89015,110.80189,0,0,0,0,0,0,0,0,0.59999996,0.59999996,0.59999996,0.59999996,-0.48068848,-0.4818461,-0.3861754,-0.3945365,1.1876246,0.5769533,0.6830642,0.85326123,-0.02183766,-0.013155546,-0.0066054165,-0.006734334,164,6,231,2,0,827.87415,177.91829,-1337.8892,27.96574,419560.7,859.40076,155.92996,159.94902,164.73694,164.73694,-11.514013,1,445.15714,0,0,16.123919,16.12391,0,3,255,0,0,0,1,0,129,0
True,28048718,15999.99,0,4898.7676,-6.2812295,0.6791314,8.196621,2.27246,0.13975596,28.505692,-0.08169377,0.22269276,-0.13965428,-0.6091365,-0.038139444,0.05396762,0.35620615,0.12193645,0.07128834,0.20949896,0.30514216,0.7271313,0.81257606,0.896166,99.63159,112.3315,117.069885,116.936745,0,0,0,0,0,0,0,0,0.59999996,0.59999996,0.59999996,0.59999996,-0.29052514,-0.30368882,-0.23931713,-0.23738123,0.42132717,0.78800184,0.84708476,0.92707247,0.011028141,-0.017708879,-0.020416934,-0.003984716,164,6,231,2,0,826.35803,178.05827,-1335.2247,28.59647,416818.47,814.48566,154.11383,157.92345,162.34898,162.34898,-10.47386,1,446.99002,0,0,16.232904,16.232895,0,3,255,0,0,0,1,0,129,0
True,28048843,15999.99,0,4884.4053,-5.572711,4.3010664,11.480803,1.1780767,-0.089282036,29.64297,-0.21492594,0.1468498,-0.17168614,-0.58950853,-0.055585165,0.039976913,0.5217294,0.35579422,0.4472673,0.19252527,0.5909707,0.5440896,0.5724435,0.5764392,113.93833,111.77269,113.22317,112.32594,0,0,0,0,0,0,0,0,0.59999996,0.59999996,0.59999996,0.59999996,-0.15341996,-0.15612358,-0.11755761,-0.105972596,0.6105604,0.566046,0.5843897,0.58609927,0.031332277,0.010977611,0.024284177,-0.0060027614,164,6,231,2,0,824.6993,178.20616,-1332.4487,29.666502,627738.94,1237.2491,152.30228,156.03532,160.01357,160.01357,-7.127986,1,448.9061,0,0,16.34439,16.34438,0,4,255,0,0,0,1,0,129,0
True,28048953,15999.99,0,5213.2417,-2.778256,0.6887531,8.239388,0.44501972,-0.4064803,30.645035,-0.01591907,0.13286883,0.076710835,-0.5749461,-0.07315249,0.033552025,0.2608627,0.26700532,0.3862685,0.36879468,0.74256897,0.7874505,0.81760114,0.5441962,121.269165,123.56234,124.76897,113.84231,0,0,0,0,0,0,0,0,0.59999996,0.59999996,0.59999996,0.59999996,-0.071731746,-0.07427632,-0.035748377,-0.03190353,0.7460255,0.79094577,0.81838226,0.54513055,-0.00066729635,8.619577E-05,0.01703187,0.0149543695,164,6,231,2,0,822.9464,178.40346,-1329.6267,30.65096,394348.06,720.8137,150.58215,154.19118,157.84329,157.84329,-9.471675,1,450.86127,0,0,16.454527,16.454517,0,4,255,0,0,0,1,0,129,0
True,28049062,15999.99,0,5390.5293,-0.84624577,-1.7983195,6.796274,-0.0696516,-0.14313138,31.444527,0.067078516,0.10818043,0.24528252,-0.5599089,-0.06025032,0.037844125,0.08407179,0.32644883,0.2269616,0.26564196,0.9943216,0.3275568,0.82118,0.71927315,132.83252,109.91634,126.80148,125.553665,0,0,0,0,0,0,0,0,0.59999996,0.59999996,0.59999996,0.59999996,-0.01618039,-0.016117493,0.015138346,0.013476147,0.9944532,0.32795307,0.8213195,0.7193994,-0.022353599,0.007377919,-0.001908537,0.0026902743,164,6,231,2,0,821.1381,178.60924,-1326.7512,31.444931,400947.5,710.7229,148.9645,152.48398,155.81308,155.81308,-9.800698,1,452.8555,0,0,16.563871,16.563862,0,4,255,0,0,0,1,0,129,0
True,28049171,15999.99,0,5286.1553,0.46144748,1.0403836,8.903037,-0.4302063,-0.15492642,32.40561,0.027257876,0.08639359,0.106463,-0.54703325,-0.06355522,0.04356104,0.3458949,0.16202003,0.25008753,0.43211734,0.38518146,0.8294406,0.5176038,0.53693414,115.70557,130.44635,120.50467,122.5817,0,0,0,0,0,0,0,0,0.59999996,0.59999996,0.59999996,0.59999996,0.028226133,0.030117946,0.052131277,0.05610829,0.3862143,0.8299872,0.5202224,0.5398578,0.009763297,-0.012791971,0.00084096566,0.022482961,164,6,231,2,0,819.28546,178.8037,-1323.8058,32.408833,563577.25,1022.7604,147.48758,150.8859,153.91809,153.91809,-7.7034297,1,454.89746,0,0,16.673048,16.673038,0,4,255,0,0,0,1,0,129,0
True,28049281,15999.99,0,5527.9536,0.7921238,-0.5031705,7.722561,-0.66204166,-0.28219557,33.22582,0.05453975,0.06720739,0.029781414,-0.5369189,-0.064201154,0.035000052,0.41152042,0.20256871,0.34691235,0.37710902,0.4575569,0.88602716,0.6788831,0.5407367,120.97104,137.32204,128.92714,124.80161,0,0,0,0,0,0,0,0,0.59999996,0.59999996,0.59999996,0.59999996,0.055066884,0.058285818,0.072282314,0.07367664,0.46085864,0.8879422,0.68272024,0.5457329,0.017813344,-0.00781801,0.012352724,0.015942879,164,6,231,2,0,817.36743,179.00577,-1320.7362,33.233612,483339.16,835.1673,146.02055,149.35236,152.08928,152.08928,-8.622702,1,457.05212,0,0,16.783531,16.783524,0,4,255,0,0,0,1,0,129,0
True,28049390,15999.99,0,5543.6504,1.1257529,0.35039306,8.151574,-0.78237724,-0.26004577,34.2485,0.053223807,0.05577385,0.0961579,-0.5289026,-0.06954208,0.029552106,0.28484476,0.29709017,0.4418708,0.41258416,0.8607086,0.7389713,0.37559614,0.44504094,139.29443,135.5665,120.63693,125.248474,0,0,0,0,0,0,0,0,0.59999996,0.59999996,0.59999996,0.59999996,0.06614765,0.066015065,0.07445893,0.083974145,0.8632467,0.7419141,0.38290545,0.45289412,0.0022744946,0.0037765987,0.023642577,0.020160608,164,6,231,2,0,815.3925,179.22928,-1317.5436,34.25842,478515.8,821.86163,144.62338,147.89487,150.36978,150.36978,-8.566698,1,459.26035,0,0,16.894798,16.89479,0,4,255,0,0,0,1,0,129,0
True,28049484,15999.99,0,5901.1084,0.8655789,-2.686961,6.0437584,-0.8557205,-0.14977908,34.88144,0.05815266,0.04704886,0.058050875,-0.5234792,-0.060030457,0.030293752,0.13816658,0.07366049,0.20509297,0.2074471,0.63097584,0.6796035,0.7463714,0.6829727,132.63148,135.50612,138.0056,136.95616,0,0,0,0,0,0,0,0,0.59999996,0.59999996,0.59999996,0.59999996,0.07133772,0.0753684,0.0870898,0.08655511,0.63499576,0.68376994,0.7514352,0.68843555,-0.015717987,-0.023630716,-0.004508555,-0.0042286664,164,6,231,2,0,813.636,179.43079,-1314.6743,34.892258,393617.22,635.5643,143.47113,146.66266,148.93799,148.93799,-9.646791,1,461.2436,0,0,16.992132,16.992123,0,4,255,0,0,0,1,0,129,0
True,28049609,15999.99,0,6037.761,0.9098115,-2.7798793,6.243428,-0.9508648,-0.44215834,35.61357,-0.12108751,0.057106186,-0.016363844,-0.5175985,-0.060549237,0.030622909,0.14458628,0.12341084,0.17158197,0.14427781,0.57294023,0.66773796,0.6725628,0.80272484,133.62854,139.84683,137.33257,144.46786,0,0,0,0,0,0,0,0,0.59999996,0.59999996,0.59999996,0.59999996,0.08165919,0.08348083,0.092760555,0.09731969,0.5787303,0.67293614,0.67892945,0.8086027,-0.014930505,-0.01752802,-0.008492764,-0.011739027,164,6,231,2,0,811.5593,179.63504,-1311.2552,35.629005,438037.75,690.66614,142.21231,145.32022,147.36102,147.36102,-9.124425,1,463.60437,0,0,17.105698,17.105692,0,4,255,0,0,0,1,0,129,0
True,28049718,15999.99,0,6094.693,1.7900066,0.616307,8.812816,-0.9288578,-0.16783917,36.585938,-0.022540485,0.043846115,0.07594143,-0.51236916,-0.055566903,0.026749397,0.19656919,0.18487996,0.29689643,0.20811468,0.4899119,0.31633937,0.7444586,0.7645188,135.99084,128.24837,143.01047,147.83698,0,0,0,0,0,0,0,0,0.59999996,0.59999996,0.59999996,0.59999996,0.13259415,0.13711964,0.08974155,0.08971762,0.5075381,0.34477875,0.7498481,0.7697651,-0.008553948,-0.009987824,0.006406199,-0.0041492954,164,6,231,2,0,809.4874,179.83893,-1307.804,36.598106,580523.5,914.25494,141.059,144.07967,145.92688,145.92688,-7.8182244,1,465.98538,0,0,17.217136,17.217133,0,5,255,0,0,0,1,29,129,0
True,28049828,15999.99,0,6173.181,1.4427886,-1.3721725,6.7532377,-1.0226412,-0.3113619,37.40561,-0.017438423,0.056274153,0.03576246,-0.50511706,-0.057209626,0.021050386,0.3494784,0.26818734,0.17455007,0.22283395,0.7206177,0.61249435,0.5396162,0.621246,148.26514,141.5755,139.8562,142.73116,0,0,0,0,0,0,0,0,0.59999996,0.59999996,0.59999996,0.59999996,0.07792548,0.083155304,0.09723327,0.09695206,0.7248188,0.61811334,0.54830647,0.6287657,0.01020287,0.00023119152,-0.0081398785,-0.0023992844,164,6,231,2,0,807.3914,180.04134,-1304.2668,37.420883,473288.78,729.4442,139.9385,142.8815,144.54007,144.54007,-8.513252,1,468.42328,0,0,17.32833,17.328323,0,5,255,0,0,0,1,0,129,0
True,28049953,15999.99,0,6499.114,1.3931684,-1.0988476,6.7298756,-1.0750723,-0.371881,38.365265,0.110342026,0.024979595,0.29619482,-0.4985338,-0.06099973,0.041786376,0.1414007,0.20184574,0.24062254,0.51980436,0,0.61113644,0.64157325,0.7385919,153.63934,145.8881,148.50761,152.03732,0,0,0,0,0,0,0,0,0.120000005,0.59999996,0.59999996,0.59999996,0,0.08416176,0.0871687,0.095683776,0,0.6169043,0.64746785,0.744764,-0.0153212715,-0.007906694,-0.0002843514,0.032908298,164,6,231,2,0,804.9758,180.29373,-1300.1313,38.382122,646508.44,951.19073,138.75156,141.59315,143.08836,143.08836,-7.2454095,1,471.1445,0,0,17.454569,17.454563,0,5,255,0,0,0,1,0,129,0
True,28050062,15999.99,0,5594.0303,2.3000512,-4.1635942,7.4146647,-0.96102905,-0.2034328,39.215027,0.077313915,0.048726622,0.088899225,-0.4937799,-0.044312075,0.056821495,0.032748677,0.18211505,0.106508486,0.208244,0.28135216,0.52920675,0.14922096,1.7568368,125.24067,128.58846,123.66626,137.17935,0,0,0,0,0,0,0,0,0.120000005,0.120000005,0.120000005,0.59999996,0.23231748,0.2670729,0.21526305,0.2775416,0.36487046,0.59277964,0.26192573,1.7786244,-0.02864922,-0.010326985,-0.01622952,-0.004133921,164,6,231,2,0,802.83185,180.48076,-1296.4122,39.227325,260174.73,442.1447,138.00955,141.47552,142.38846,142.38846,-11.76,1,473.72867,0,0,17.565256,17.565248,0,5,255,0,0,0,1,0,129,0
True,28050171,15999.99,0,5604.529,5.084964,-2.271993,8.575362,-0.42424583,-0.37805223,40.087524,-0.08000318,0.029084362,-0.10114451,-0.49111682,-0.042327408,0.05428862,0.3483753,0.09779551,0.40607905,0.15817273,0.25866482,0.18174385,0.23344287,0.83620983,127.605545,126.636765,128.0336,133.33574,0,0,0,0,0,0,0,0,0,0.120000005,0,0.120000005,0.10834831,0.1081738,0.101338886,0.14901298,0.28044045,0.21150035,0.25448996,0.8493832,0.010067556,-0.02067016,0.019387204,-0.010087024,164,6,231,2,0,800.68427,180.63077,-1292.561,40.09155,751920.1,1286.1226,137.37976,140.81021,141.53845,141.53845,0,1,476.3964,0,0,17.67662,17.676617,0,5,255,0,0,0,1,0,140,0
True,28050281,15999.99,0,5695.503,2.9725165,-1.2740703,8.972111,-0.20077705,-0.41665745,40.993595,0.033026926,0.015061453,0.03956981,-0.49005657,-0.04174894,0.049458556,0.2625651,0.4119707,0.45091942,0.45435905,1.0484599,0.22165617,0.4570883,0.09931554,138.23239,129.53639,131.50299,129.02538,0,0,0,0,0,0,0,0,0,0,0,0,0.045920283,0.04747939,0.037001256,0.058807224,1.049465,0.22668426,0.45858347,0.115420386,-0.00045846775,0.017868578,0.024718389,0.025127336,164,6,231,2,0,798.8405,180.75502,-1289.1615,40.996204,527367.8,882.5734,137.01047,140.21193,140.90576,140.90576,0,1,478.74622,0,0,17.772017,17.772015,0,5,255,0,0,0,1,0,171,0
True,28050406,15999.99,0,5865.8086,3.26919,-0.5268878,11.168898,0.008640289,-0.27877474,42.465786,-0.028621687,0.13429046,0.048793107,-0.48586568,-0.03742582,0.059482135,0.2124874,0.2551748,0.322596,0.38176614,0.21763879,0.3258221,0.280458,0.36277753,134.66151,135.25554,135.63457,135.85254,0,0,0,0,0,0,0,0,0,0,0,0,0.24349077,0.26303035,0.028811654,0.037591435,0.32657984,0.41874218,0.28193405,0.36471996,-0.0066013187,-0.0013650134,0.00946169,0.01649658,164,6,231,2,0,796.32477,180.92102,-1284.4523,42.4667,752527.4,1225.6245,136.44397,139.4907,140.10327,140.10327,0,1,481.9975,0,0,17.899979,17.899975,0,5,255,0,0,0,1,62,209,0
True,28050500,15999.99,0,6011.8247,5.884721,0.7085912,11.3503895,-0.25152588,-0.30157685,43.539917,-0.012337247,0.26125452,0.023943745,-0.4656106,-0.04164362,0.062392652,0.27661178,0.26337683,0.35697007,0.34675795,0.21329181,0.43997425,0.2252737,0.33982882,138.31638,139.51962,138.78983,138.80637,0,0,0,0,0,0,0,0,0,0,0,0,0.2723247,0.29997686,0.11560027,0.13031259,0.3459106,0.53250676,0.25320283,0.36395743,0.001264587,-0.0003588982,0.013548508,0.012334362,164,6,231,2,0,794.4403,181.05516,-1280.8174,43.541687,752846.25,1196.6661,136.05428,139.02806,139.54575,139.54575,0,1,484.38184,0,0,17.995188,17.995188,0,5,255,0,0,0,1,63,231,0
True,28050609,15999.99,0,6155.033,6.8376875,0.87755305,11.208953,-0.502203,-0.29382944,44.76266,-0.047791757,0.11179668,0.004758332,-0.44175178,-0.04496296,0.06298204,0.28911954,0.21576318,0.34797043,0.32843447,0.15339738,0.2574985,0.2390347,0.3005864,141.17741,141.79117,142.44707,142.56532,0,0,0,0,0,0,0,0,0,0,0,0,0.074553676,0.08212608,0.13340923,0.14519374,0.170555,0.27027795,0.2737437,0.33381644,0.0027988702,-0.0061994903,0.0124785155,0.010155838,164,6,231,2,0,792.27045,181.22984,-1276.4512,44.766445,752652.1,1168.3184,135.60631,138.50975,138.9687,138.9687,0,1,487.51248,0,0,18.105652,18.105648,0,5,255,0,0,0,1,0,252,0
True,28050734,15999.99,0,6320.427,4.02538,2.3288174,10.744951,-0.1310482,-0.2984898,46.12693,-0.05611057,-0.00451107,-0.04563257,-0.43805638,-0.052305795,0.059877995,0.35713363,0.26297253,0.40215963,0.3414056,0.15840511,0.18839806,0.21710005,0.22839402,145.23853,145.58319,146.20752,146.3286,0,0,0,0,0,0,0,0,0,0,0,0,0.031862304,0.03442926,0.022112306,0.032073654,0.1615778,0.19151814,0.21822326,0.23063509,0.011141911,-0.00040848926,0.018921211,0.011698008,164,6,231,2,0,789.77716,181.47198,-1271.2219,46.128082,752652.9,1137.7743,135.09985,137.90779,138.34172,138.34172,0,1,491.24103,0,0,18.23318,18.233175,0,5,255,0,0,0,1,0,11,0
True,28050843,15999.99,0,6481.8916,1.040638,2.1919074,10.273301,-0.035308838,-0.2983799,47.245655,-0.0062917117,-0.005996408,-0.0351806,-0.439052,-0.057846613,0.05523211,0.30858773,0.26211563,0.4077357,0.35619408,0.23481683,0.228224,0.21850166,0.22168928,149.60347,149.54744,149.73633,149.7865,0,0,0,0,0,0,0,0,0,0,0,0,0.010615453,0.013355863,0.00014033432,0.010833038,0.23505665,0.22861446,0.2185017,0.22195381,0.00518696,-0.0005136058,0.019584168,0.013456248,164,6,231,2,0,787.58856,181.72476,-1266.569,47.24661,752792.06,1109.752,134.68796,137.41782,137.83301,137.83301,0,1,494.5537,0,0,18.343401,18.343397,0,5,255,0,0,0,1,0,19,0
True,28050953,15999.99,0,6617.9297,1.9307673,0.90772194,9.626266,0.022275925,-0.29563713,48.283375,-0.041718237,0.102173015,-0.023873374,-0.4367279,-0.05916448,0.051806197,0.30082697,0.24529257,0.3844865,0.329674,0.15769199,0.22901098,0.20408659,0.24545467,152.21,152.61389,153.0611,153.07541,0,0,0,0,0,0,0,0,0,0,0,0,0.22748782,0.24511628,0.015919147,0.023649309,0.2767986,0.33545196,0.2047065,0.24659133,0.004234977,-0.0025772266,0.01682001,0.010303207,164,6,231,2,0,785.3947,181.9934,-1261.8956,48.284283,736715.1,1063.5334,134.32977,136.98416,137.36937,137.36937,0,1,497.98938,0,0,18.451607,18.451603,0,5,250,0,0,0,1,121,19,0
True,28051062,15999.99,0,6291.5923,7.0777416,-0.050299063,1.0229902,-0.3373642,-0.21346664,48.448364,0.09578279,0.30393794,-0.0296398,-0.41106,-0.059173398,0.047534548,0.33438104,0.22128351,0.39264742,0.30319768,-0.43901587,-0.2837946,-0.35179478,-0.38452938,147.03572,145.69675,145.51851,143.93208,0,0,0,0,0,0,0,0,0,0,0,0,0.5407114,0.6056834,0.13940164,0.15762554,0.6964939,0.6688735,0.3784077,0.41558233,0.008350935,-0.005522333,0.017790284,0.0071553662,164,6,231,2,0,783.12366,182.29297,-1256.9071,48.450012,296889.34,451.42908,134.09862,136.65207,136.89525,136.89525,0,1,501.52972,0,0,18.564497,18.564495,0,5,97,247,0,0,1,122,9,133
True,28051156,15999.99,0,5779.6587,-4.385784,0.5063301,-20.41191,-2.493988,0.11618543,46.109543,0.009603226,0.46275878,0.037331738,-0.3722015,-0.05505147,0.046303514,0.44904268,0.34657446,0.36699742,0.2647905,-0.6255184,-0.29530996,-0.43664938,-1.2615092,134.38716,138.44751,138.08286,125.69506,0,0,0,0,0,0,0,0,0,0,0,0,0.7663921,0.892808,0.5233636,0.6171648,0.98925734,0.9403798,0.68159527,1.4043852,0.022416063,0.009846654,0.014740687,0.0025890395,164,6,231,2,0,781.29736,182.53839,-1252.7562,46.177086,62736.223,103.35047,134.09415,136.5343,136.60413,136.60413,0,1,504.45554,0,0,18.660242,18.660236,0,5,34,255,0,0,1,122,252,129
True,28051281,15999.99,0,5902.367,5.329608,-0.16352469,-16.964907,-4.032673,0.237319,44.1071,0.055923913,0.42315876,0.0047729886,-0.32075927,-0.054987,0.045608647,0.40865868,0.28142175,0.376091,0.25334927,-0.004778517,-0.1319004,-0.031670146,-0.011676321,137.03482,134.0762,137.08728,136.35594,0,0,0,0,0,0,0,0,0,0,0,0,1.2922875,1.4946146,0.9702321,1.124857,1.2922963,1.5004234,0.9707489,1.1249175,0.017462302,0.0018546097,0.015821848,0.0012287647,164,6,231,2,0,779.26086,182.82024,-1248.2163,44.291702,214543.39,348.14252,134.94135,137.4477,136.71194,136.71194,0,1,507.6682,0,0,18.770914,18.77091,0,5,102,0,0,0,1,122,241,0
True,28051375,15999.99,0,6224.72,8.617833,-1.6876285,-0.3902247,-4.9257193,0.15120459,44.218616,0.0029880898,0.41501898,0.0039354786,-0.2809486,-0.054003127,0.043652702,0.37197724,0.23533209,0.3109524,0.1851743,0.3359097,0.83450264,0.39207888,0.7034942,141.67183,144.8796,143.56458,144.4697,0,0,0,0,0,0,0,0,0,0,0,0,1.4551398,1.6911178,1.1144122,1.3110852,1.4934078,1.8858086,1.1813723,1.4879007,0.012962725,-0.0037990436,0.0080773495,-0.006876737,164,6,231,2,0,777.6126,183.04544,-1244.3546,44.49237,369624.12,567.21655,136.50229,138.80669,137.08754,137.08754,0,1,510.42322,0,0,18.865688,18.865683,0,5,255,0,0,0,1,118,233,0
True,28051484,15999.99,0,6301.9854,12.259514,-0.18494457,5.3390656,-5.4772043,0.016674995,44.664867,-0.04478208,0.37199116,0.028806036,-0.23748496,-0.05858991,0.04316853,0.37514937,0.22984445,0.35515088,0.20585819,0.3443907,0.8493671,0.38937092,0.7067726,143.29666,146.85172,145.21451,146.3733,0,0,0,0,0,0,0,0,0,0,0,0,1.4736214,1.7447637,1.1307511,1.3715109,1.5133291,1.9405218,1.195913,1.5429094,0.013351835,-0.0044721924,0.013332222,-0.004417576,164,6,231,2,0,775.78845,183.30385,-1239.7548,44.99945,456622.16,692.0812,139.1634,141.30898,138.66547,138.66547,0,1,513.62665,0,0,18.976408,18.976402,0,5,255,0,0,0,1,110,223,0
True,28051593,15999.99,0,6366.5767,13.776886,0.22031575,6.5055933,-5.4510155,-0.054983616,45.1286,0.012162976,0.24442212,0.0005190978,-0.20687324,-0.06260648,0.042697523,0.4232341,0.25242978,0.42178747,0.2521552,0.31600577,0.995369,0.3825573,0.63057774,144.38828,150.46169,146.28568,147.35637,0,0,0,0,0,0,0,0,0,0,0,0,1.3263444,1.5938746,1.0901498,1.3012133,1.3634695,1.8791475,1.1553253,1.4459544,0.019250218,-0.0017017312,0.021254815,0.0010867976,164,6,231,2,0,774.3086,183.54329,-1235.6265,45.456654,457818.66,686.9771,141.5965,143.43591,140.25847,140.25847,0,1,516.4594,0,0,19.07347,19.073465,0,5,255,0,0,0,1,20,211,0
True,28051718,15999.99,0,6436.625,13.208046,-1.0635452,5.364506,-4.9001026,-0.053092957,45.633327,0.021618899,0.17327711,-0.03180298,-0.18310823,-0.059828185,0.039126158,0.39953637,0.21571949,0.4398843,0.2741972,0.2682431,0.8402764,0.40108308,0.6448153,145.74458,151.27403,148.087,149.36746,0,0,0,0,0,0,0,0,0,0,0,0,1.0161508,1.2099283,0.9790958,1.1580955,1.05096,1.473089,1.0580624,1.3255081,0.016343303,-0.006204851,0.023406394,0.0037074275,164,6,231,2,0,772.60547,183.84914,-1230.3016,45.895687,497804.44,738.7993,142.51843,144.59293,141.53795,141.53795,-0.52571964,1,520.05774,0,0,19.19596,19.195955,0,5,255,0,0,0,1,17,199,0
True,28051828,15999.99,0,6478.7075,13.688975,-1.4595301,4.7428885,-3.9950151,-0.03925252,46.066135,0.03451252,0.10198487,-0.033353996,-0.1702014,-0.056263145,0.034395166,0.43174252,0.23489125,0.43924546,0.25845262,0.31045455,0.7541786,0.39895353,0.6264892,147.07117,151.51402,149.05045,150.55171,0,0,0,0,0,0,0,0,0,0,0,0,1.0978831,1.264706,0.80572945,0.9503248,1.1409335,1.4725035,0.8990906,1.1382469,0.020293914,-0.00385312,0.023330443,0.0018355139,164,6,231,2,0,771.2852,184.10912,-1225.6,46.23906,511800.1,754.63086,142.86224,145.23792,141.8378,141.8378,-2.7045746,1,523.598,0,0,19.302137,19.302135,0,5,255,0,0,0,1,70,193,0
True,28051937,15999.99,0,6524.503,14.200447,-1.2570583,5.717061,-2.7717156,-0.080774546,46.679855,0.02341944,0.0017141337,-0.0023985808,-0.16099694,-0.05388788,0.031893596,0.33676568,0.1993467,0.4221331,0.24760124,0.21936505,0.6723542,0.33830783,0.5403313,147.86565,153.10188,149.87476,151.69824,0,0,0,0,0,0,0,0,0,0,0,0,0.5677883,0.6486775,0.5286526,0.6347941,0.60869086,0.93426055,0.62763506,0.83361953,0.008643448,-0.008213241,0.021295905,0.0005453639,164,6,231,2,0,770.0038,184.38448,-1220.3516,46.762135,601986.94,881.3632,142.89656,145.34952,141.79291,141.79291,0,1,527.09814,0,0,19.418545,19.418545,0,5,255,0,0,0,1,0,193,0
True,28052046,15999.99,0,6552.2563,12.382303,-0.3692602,7.4670906,-1.2094221,-0.19512653,47.49513,-0.04930323,-0.104690686,-0.040257245,-0.16675317,-0.05556647,0.030974215,0.35566217,0.18986186,0.37917352,0.20862983,0.16341601,0.41060668,0.24267468,0.31914693,149.47241,152.87886,150.85681,151.943,0,0,0,0,0,0,0,0,0,0,0,0,0.2710387,0.30621007,0.20004986,0.23056182,0.31649137,0.5122133,0.3145011,0.39371756,0.010961413,-0.009376712,0.016188331,-0.004088048,164,6,231,2,0,769.0275,184.6234,-1215.6793,47.510925,752293.8,1096.6941,142.55362,144.85403,141.61288,141.61288,0,1,530.193,0,0,19.519999,19.519999,0,5,255,0,0,0,1,0,195,0
True,28052156,15999.99,0,6701.9316,5.522544,-1.117753,9.032477,-0.061710358,-0.25757098,48.47512,0.0649721,-0.11883566,-0.089650035,-0.17981887,-0.05443656,0.023768632,0.30690622,0.16052425,0.4001903,0.26101506,0.35961598,0.29775953,0.32980636,0.31835026,154.67293,154.42223,154.73557,155.06923,0,0,0,0,0,0,0,0,0,0,0,0,0.05769846,0.059544243,-0.016868388,-0.009778548,0.36421528,0.30365482,0.33023745,0.3185004,0.004980698,-0.012975451,0.01868707,0.002140168,164,6,231,2,0,768.1326,184.87123,-1210.8801,48.475845,739815.56,1054.873,142.09406,144.29071,141.30681,141.30681,0,1,533.35834,0,0,19.621826,19.621828,0,5,255,0,0,0,1,0,199,0
True,28052281,15999.99,0,6831.712,-0.6226741,-2.4473228,9.349595,0.15782356,-0.32574344,49.58026,0.016224947,-0.046625607,-0.06536874,-0.18919428,-0.048750013,0.01601372,0.22977613,0.14298919,0.3044038,0.22059612,0.24681331,0.24288338,0.32233605,0.28927118,157.0011,157.1705,158.22516,158.07054,0,0,0,0,0,0,0,0,0,0,0,0,-0.01651199,-0.014450235,-0.041124593,-0.038324017,0.24736503,0.24331287,0.32494885,0.2917988,-0.0044805743,-0.015126415,0.0072987713,-0.0026653446,164,6,231,2,0,767.0493,185.13934,-1205.0715,49.58158,752283.6,1051.8099,141.57245,143.62617,140.94379,140.94379,0,1,537.37,0,0,19.742516,19.742517,0,5,255,0,0,0,1,0,207,0
True,28052390,15999.99,0,6969.8105,2.4581382,-0.80864155,9.358785,0.07516289,-0.34549832,50.70133,0.034218814,0.1850632,0.009302827,-0.18206841,-0.047998343,0.012138331,0.2509019,0.20444933,0.3380005,0.2861357,0.22324064,0.33640388,0.21291253,0.27303767,160.74602,161.38927,160.95964,160.85747,0,0,0,0,0,0,0,0,0,0,0,0,0.36102757,0.3914301,0.023576802,0.0269533,0.42447296,0.5161251,0.21421394,0.27436483,-0.0018891506,-0.007587321,0.011293165,0.0051268265,164,6,231,2,0,765.95624,185.38785,-1199.2123,50.70256,752659.2,1031.7684,141.0976,143.03233,140.60484,140.60484,0,1,541.20166,0,0,19.861431,19.861437,0,5,255,0,0,0,1,125,222,0
True,28052500,15999.99,0,7119.44,8.48859,-0.81204826,8.772012,-0.53230953,-0.32815313,51.543118,0.017880848,0.40220416,0.029997155,-0.15137698,-0.04631876,0.013245953,0.25195697,0.20296724,0.33216563,0.28110516,0.21478277,0.5870337,0.19544454,0.34477836,163.78899,166.68013,163.97269,163.98627,0,0,0,0,0,0,0,0,0,0,0,0,0.58468425,0.6783265,0.17711033,0.19713879,0.6228863,0.8970704,0.26375487,0.39715967,-0.0017597303,-0.0077691227,0.010599442,0.004528735,164,6,231,2,0,765.0832,185.5941,-1194.1782,51.54691,720661,967.19006,140.8617,142.69037,140.35233,140.35233,0,1,544.4908,0,0,19.961416,19.961424,0,5,255,0,0,0,1,125,237,0
