IsRaceOn,TimestampMS,EngineMaxRpm,EngineIdleRpm,CurrentEngineRpm,AccelerationX,AccelerationY,AccelerationZ,VelocityX,VelocityY,VelocityZ,AngularVelocityX,AngularVelocityY,AngularVelocityZ,Yaw,Pitch,Roll,NormalizedSuspensionTravelFrontLeft,NormalizedSuspensionTravelFrontRight,NormalizedSuspensionTravelRearLeft,NormalizedSuspensionTravelRearRight,TireSlipRatioFrontLeft,TireSlipRatioFrontRight,TireSlipRatioRearLeft,TireSlipRatioRearRight,WheelRotationSpeedFrontLeft,WheelRotationSpeedFrontRight,WheelRotationSpeedRearLeft,WheelRotationSpeedRearRight,WheelOnRumbleStripFrontLeft,WheelOnRumbleStripFrontRight,WheelOnRumbleStripRearLeft,WheelOnRumbleStripRearRight,WheelInPuddleDepthFrontLeft,WheelInPuddleDepthFrontRight,WheelInPuddleDepthRearLeft,WheelInPuddleDepthRearRight,SurfaceRumbleFrontLeft,SurfaceRumbleFrontRight,SurfaceRumbleRearLeft,SurfaceRumbleRearRight,TireSlipAngleFrontLeft,TireSlipAngleFrontRight,TireSlipAngleRearLeft,TireSlipAngleRearRight,TireCombinedSlipFrontLeft,TireCombinedSlipFrontRight,TireCombinedSlipRearLeft,TireCombinedSlipRearRight,SuspensionTravelMetersFrontLeft,SuspensionTravelMetersFrontRight,SuspensionTravelMetersRearLeft,SuspensionTravelMetersRearRight,CarOrdinal,CarClass,CarPerformanceIndex,DrivetrainType,NumCylinders,PositionX,PositionY,PositionZ,Speed,Power,Torque,TireTempFl,TireTempFr,TireTempRl,TireTempRr,Boost,Fuel,Distance,BestLapTime,LastLapTime,CurrentLapTime,CurrentRaceTime,Lap,RacePosition,Accelerator,Brake,Clutch,Handbrake,Gear,Steer,NormalDrivingLine,NormalAiBrakeDifference
True,23068718,15999.99,0,575.5523,-0.0041254647,-0.029087888,0.6577313,0.0066254735,-0.0016010851,4.289861,-9.733487E-05,0.00076294254,-7.0517424E-05,1.6526315,0.10245187,-0.08589231,0.25925174,0.26692715,0.24017796,0.245127,-0.0033430588,-0.0033206977,-0.003322742,-0.003328335,13.293975,13.290256,13.293969,13.290219,0,0,0,0,0,0,0,0,0,0,0,0,-0.018381787,-0.018246552,-0.013934871,-0.013143674,0.018683312,0.018546257,0.014325545,0.013558539,-0.0008649081,7.660687E-05,-0.00033720955,0.00025119632,164,6,231,2,0,-4062.2786,335.6428,4157.75,4.2898664,-422.47714,-7.012673,195.14554,191.23466,194.75719,194.75719,0,1,242.9046,0,0,0.6754024,88.8944,0,11,0,0,0,0,1,0,252,0
True,23084468,15999.99,0,0,4.9269353E-08,2.987205E-08,2.2530392E-08,-3.8914044E-05,-1.085087E-06,-9.752066E-05,-0.00012401218,-1.4723133E-07,0.00013690468,1.960993,-0.062638424,-0.040274344,0.2568608,0.2694651,0.2475663,0.24090539,0.00013402742,0.00012758153,0.018394846,0.019607011,0,0,0,0,0,0,0,0,0,0,0,0,0,0,0,0,-0.008406482,-0.008926114,-0.0066928687,-0.0068044034,0.00840755,0.008927026,0.019574597,0.020754151,-0.0011581965,0.00038792938,0.0005412102,-0.0002507232,164,6,231,2,0,-7072.8496,281.3425,4330.311,0.00010500361,0,0,93.54036,93.54666,94.00224,94.00224,0,1,-56.665283,0,0,0.09328676,0.09328676,0,8,0,0,0,0,1,0,49,0
True,23084593,15999.99,0,0,6.3097216E-09,3.8255896E-09,2.885374E-09,-3.8665363E-05,5.390972E-06,2.961561E-05,-0.00012476328,-7.147213E-08,0.00013634612,1.960993,-0.062638424,-0.040274344,0.25686622,0.2694728,0.24756984,0.24090523,9.762385E-06,3.6906422E-06,0.018268919,0.019481378,0,0,0,0,0,0,0,0,0,0,0,0,0,0,0,0,-0.008406032,-0.008926554,-0.0066929166,-0.0068047177,0.008406037,0.008926555,0.019456323,0.020635607,-0.0011575297,0.0003888756,0.00054163113,-0.00025074184,164,6,231,2,0,-7072.8496,281.3425,4330.311,4.9001603E-05,0,0,93.49614,93.50279,93.96312,93.96312,0,1,-56.665283,0,0,0.2120128,0.21201278,0,7,0,0,0,0,1,0,49,0
True,23084687,15999.99,0,0,1.0498441E-09,6.365214E-10,4.8008336E-10,-3.8695864E-05,4.1984117E-06,2.9634042E-05,-0.00012514034,-8.3476664E-08,0.00013624704,1.960993,-0.062638424,-0.040274344,0.2568641,0.2694707,0.24756794,0.2409032,1.1398501E-05,5.644324E-06,0.01826911,0.019481817,0,0,0,0,0,0,0,0,0,0,0,0,0,0,0,0,-0.008405675,-0.008926973,-0.0066929837,-0.0068050255,0.008405683,0.008926975,0.019456526,0.020636123,-0.0011577904,0.00038861483,0.0005414039,-0.00025098398,164,6,231,2,0,-7072.8496,281.3425,4330.311,4.892007E-05,0,0,93.45769,93.46466,93.9291,93.9291,0,1,-56.665283,0,0,0.31535918,0.31535918,0,7,0,0,0,0,1,0,49,0
True,23084796,15999.99,0,0,1.712292E-10,1.0381644E-10,7.8301435E-11,-3.8685823E-05,2.0115097E-06,2.9604718E-05,-0.00012527916,-8.2679094E-08,0.00013620239,1.960993,-0.062638424,-0.040274344,0.25686198,0.26946872,0.24756627,0.24090113,1.1202988E-05,5.7945654E-06,0.018267458,0.019480433,0,0,0,0,0,0,0,0,0,0,0,0,0,0,0,0,-0.008405265,-0.00892735,-0.0066930093,-0.006805293,0.008405273,0.008927352,0.019454984,0.020634905,-0.0011580512,0.0003883727,0.00054120645,-0.00025122985,164,6,231,2,0,-7072.8496,281.3425,4330.311,4.8755293E-05,0,0,93.41891,93.4262,93.89479,93.89479,0,1,-56.665283,0,0,0.41968963,0.41968957,0,8,0,0,0,0,1,0,49,0
True,23084906,15999.99,0,0,2.715562E-11,1.646448E-11,1.2417999E-11,-3.8638915E-05,8.599852E-08,3.0361285E-05,-0.00012556025,-7.782097E-08,0.0001360509,1.960993,-0.062638424,-0.040274344,0.25686052,0.26946747,0.24756508,0.24089928,1.05737345E-05,5.5425335E-06,0.018265355,0.01947863,0,0,0,0,0,0,0,0,0,0,0,0,0,0,0,0,-0.008404873,-0.008927755,-0.0066930517,-0.006805586,0.00840488,0.008927757,0.019453024,0.020633299,-0.00115823,0.00038821995,0.0005410649,-0.00025144964,164,6,231,2,0,-7072.8496,281.3425,4330.311,4.9140417E-05,0,0,93.379654,93.38728,93.86007,93.86007,0,1,-56.665283,0,0,0.5253905,0.52539045,0,8,0,0,0,0,1,0,49,0
True,23085015,15999.99,0,36.4549,-0.23309547,-0.044260718,2.5613158,0.0046818256,-0.0020463304,0.22133109,-0.018383918,-0.0007277351,-0.009940911,1.9609795,-0.06296903,-0.040567916,0.25459093,0.26861766,0.24827176,0.24355282,0.1769321,0.13503984,0.25156772,0.23760238,0.85487145,0.7915179,0.862323,0.8417353,0,0,0,0,0,0,0,0,0,0,0,0,-0.0030917134,-0.0031389003,-0.005132704,-0.0050837905,0.17695911,0.13507631,0.25162008,0.23765677,-0.0014366321,0.00028397515,0.0006250851,6.403774E-05,164,6,231,2,0,-7072.846,281.34268,4330.3096,0.22139005,2369.7854,537.0225,93.33997,93.34752,93.825226,93.825226,0,1,-56.662647,0,0,0.64665014,0.6466501,0,8,255,0,0,0,1,0,49,0
True,23085140,15999.99,0,248.9062,0.14116478,-0.05302623,10.161764,0.0058440566,-0.010790732,1.4339132,-0.03870461,-0.0013971834,-0.016618088,1.9611001,-0.06640515,-0.042109516,0.22293623,0.24958175,0.2644589,0.27539667,1.5416629,0.55328315,0.7126328,0.38642964,7.251356,4.8283734,5.5258856,5.65555,0,0,0,0,0,0,0,0,0,0,0,0,-0.0023187764,-0.00014374097,-0.01494126,-0.013868586,1.5416647,0.55328315,0.71278936,0.38667843,-0.005319599,-0.002051089,0.0025496148,0.003850039,164,6,231,2,0,-7072.765,281.34772,4330.275,1.4339656,36420.1,1433.6072,93.44367,93.464745,94.00126,94.00126,0,1,-56.600094,0,0,0.7625735,0.7625735,0,8,255,0,0,0,1,0,49,0
True,23085250,15999.99,0,443.63245,-0.1502409,-0.1909843,11.05197,0.003815055,-0.036105264,2.6827443,-0.026750628,-0.006249545,-0.004677663,1.9610057,-0.06929533,-0.042880446,0.17514266,0.22212534,0.24982302,0.2879347,1.7718089,0.51537764,1.2995324,0.83859384,11.569548,8.904909,10.458483,10.041392,0,0,0,0,0,0,0,0,0,0,0,0,0.015054068,0.016270515,-0.031331167,-0.028772771,1.7718728,0.5156344,1.2999101,0.8390873,-0.011182265,-0.005419068,0.00080951676,0.0053407103,164,6,231,2,0,-7072.557,281.36047,4330.1895,2.6829898,70900.586,1546.6406,95.15608,93.57524,95.25753,95.25753,0,1,-56.440506,0,0,0.87197316,0.87197316,0,8,255,0,0,0,1,0,49,0
True,23085359,15999.99,0,621.8453,0.00034952164,-0.053825483,13.443482,0.0021152496,-0.043142017,4.1521974,-0.017948259,-0.0055841305,0.0014718468,1.9610935,-0.07159184,-0.042378344,0.16747308,0.21092558,0.2762363,0.31966108,1.3907473,0.45396605,0.9790377,0.67889166,15.430897,13.622203,14.3634405,14.180155,0,0,0,0,0,0,0,0,0,0,0,0,0.008963597,0.011217309,-0.021807402,-0.018519986,1.3907762,0.4541046,0.97928053,0.67914426,-0.012123065,-0.006792903,0.0039498582,0.0091127455,164,6,231,2,0,-7072.2114,281.38248,4330.047,4.152422,100028.945,1546.6406,96.29706,93.72625,96.56656,96.56656,0,1,-56.17509,0,0,0.9817737,0.9817738,0,8,255,0,0,0,1,0,49,0
True,23085453,15999.99,0,801.07837,0.13910198,-0.039200205,13.231051,0.00393641,-0.05280701,5.3997827,0.001759201,0.00018411195,0.0017204614,1.9608246,-0.07273746,-0.042060025,0.1627239,0.20324026,0.28772977,0.33279374,0.90436584,0.01860982,0.0040000854,0.045677673,17.57399,17.912207,18.963657,18.856651,0,0,0,0,0,0,0,0,0,0,0,0,-0.005949487,-0.0027774994,-0.013485719,-0.00969838,0.90438545,0.018815948,0.014066461,0.046695914,-0.01270563,-0.0077356324,0.005316347,0.010674123,164,6,231,2,0,-7071.792,281.41083,4329.874,5.400042,119322.52,1546.6406,97.698456,93.84569,97.07014,97.07014,0,1,-55.853027,0,0,1.0758854,1.0758857,0,8,255,0,0,0,1,0,49,0
True,23085562,15999.99,0,987.0753,0.053813934,-0.07659285,13.808831,0.004355669,-0.06554249,6.7890778,-0.0068980847,-0.010693418,0.004599105,1.9600276,-0.07311752,-0.041677076,0.16524625,0.20186031,0.2940315,0.33683503,2.021908,0.44993478,0.8191594,0.5500998,24.94174,21.934095,22.681892,22.215855,0,0,0,0,0,0,0,0,0,0,0,0,0.011774878,0.014514001,-0.02900822,-0.024396246,2.0219424,0.45016882,0.8196729,0.5506405,-0.012396222,-0.007904906,0.0060655773,0.0111545995,164,6,231,2,0,-7071.2344,281.44904,4329.645,6.789396,158769.58,1546.6406,98.925934,93.96879,97.62044,97.62044,0,1,-55.42505,0,0,1.1747725,1.1747727,0,8,255,0,0,0,1,0,49,0
True,23085671,15999.99,0,1198.6986,-0.13722134,-0.07779722,14.458464,0.0051796436,-0.08037505,8.337103,-0.0027681575,-0.0061940113,0.008837828,1.9593484,-0.07339047,-0.040611524,0.15613058,0.19798492,0.30594492,0.33951226,1.5037028,0.5219351,0.69081354,0.56103206,29.27396,27.078451,27.547333,27.28631,0,0,0,0,0,0,0,0,0,0,0,0,-0.0010669989,0.0024006907,-0.019739313,-0.015126425,1.5037031,0.52194065,0.6910955,0.56123596,-0.013514407,-0.008380286,0.0074819922,0.011472903,164,6,231,2,0,-7070.504,281.49924,4329.3457,8.337492,193220.36,1546.6406,100.70859,94.12258,97.8446,97.8446,0,1,-54.864574,0,0,1.2793403,1.2793404,0,8,255,0,0,0,1,0,49,0
True,23085796,15999.99,0,1476.4231,0.11897993,-0.26529482,15.432223,0.0067481995,-0.10521482,10.259364,0.010467459,-0.0016316507,0.015388954,1.9587535,-0.07297651,-0.038930207,0.13769801,0.18051359,0.3184876,0.33526462,1.4165304,0.62527424,0.6336964,0.6587649,35.748863,33.58586,33.752464,33.825447,0,0,0,0,0,0,0,0,0,0,0,0,-0.011257151,-0.0073278295,-0.0145104565,-0.010032531,1.4165751,0.62531716,0.6338625,0.6588413,-0.015775466,-0.010523431,0.00897323,0.010967892,164,6,231,2,0,-7069.4185,281.57364,4328.9014,10.259905,238228.34,1546.6406,102.21904,94.34637,98.092926,98.092926,0,1,-54.032505,0,0,1.4054552,1.4054551,0,8,255,0,0,0,1,0,49,0
True,23085890,15999.99,0,1709.9019,-0.09571743,-0.371457,15.316305,0.009126186,-0.121305674,11.8041115,0.028788846,-0.0008258034,0.013243538,1.9585499,-0.07084527,-0.03737108,0.12919974,0.16086191,0.32033983,0.3295676,1.7757033,0.56058073,0.6514504,0.71188277,42.238396,38.43949,38.93099,39.128754,0,0,0,0,0,0,0,0,0,0,0,0,-0.01276074,-0.008832648,-0.013240001,-0.009283087,1.7757491,0.56065035,0.6515849,0.7119433,-0.016817918,-0.012934035,0.0091934465,0.010290559,164,6,231,2,0,-7068.36,281.64417,4328.4688,11.804739,275731.47,1546.6406,104.04787,94.54812,98.3008,98.3008,0,1,-53.220715,0,0,1.5090896,1.5090895,0,8,255,0,0,0,1,0,49,0
True,23086015,15999.99,0,1946.0557,0.20005178,-0.36710817,15.128698,0.012188435,-0.1264685,13.571397,0.026869554,0.0017926801,0.012046992,1.9584289,-0.06752148,-0.035837926,0.13387725,0.14913814,0.3027295,0.32127577,0.9078643,0.7907846,0.6827117,0.67408293,45.406002,45.00213,44.8183,44.785984,0,0,0,0,0,0,0,0,0,0,0,0,-0.015997121,-0.012695485,-0.010567324,-0.008020493,0.9080052,0.7908865,0.6827935,0.6741307,-0.016244145,-0.014372144,0.0070997067,0.009304721,164,6,231,2,0,-7067.004,281.73114,4327.914,13.571991,314292.8,1546.6406,105.254196,94.79556,98.5753,98.5753,0,1,-52.180897,0,0,1.6246203,1.6246201,0,8,255,0,0,0,1,0,49,0
True,23086125,15999.99,0,2182.8767,0.2005167,-0.4402801,15.166052,0.012702465,-0.14350268,15.291082,0.014581708,0.002559801,0.012266438,1.9586254,-0.06501878,-0.034632668,0.13486801,0.16270359,0.29525363,0.3007026,0.86406016,0.5908606,0.64575464,0.6690392,51.03143,49.87221,50.349033,50.433384,0,0,0,0,0,0,0,0,0,0,0,0,-0.015374401,-0.012298355,-0.008818842,-0.007625112,0.86419696,0.5909886,0.64581484,0.66908264,-0.016122611,-0.012708122,0.0062108785,0.006858725,164,6,231,2,0,-7065.504,281.82318,4327.3003,15.291762,352664.44,1546.6406,105.08934,95.0832,98.84769,98.84769,0,1,-51.03074,0,0,1.7369307,1.7369304,0,8,255,0,0,0,1,0,49,0
True,23086234,15999.99,0,2381.5764,-0.065896034,-0.29621306,15.427854,0.01069212,-0.16266775,16.786976,-0.008082708,0.0051914607,0.011034873,1.9589748,-0.06462619,-0.03339571,0.16310595,0.19258307,0.29516095,0.2890526,0.72271216,0.49937832,0.5765903,0.62573963,55.38638,54.37869,54.972103,55.159115,0,0,0,0,0,0,0,0,0,0,0,0,-0.014820363,-0.011744667,-0.0049717776,-0.0040631266,0.7228641,0.49951643,0.57661176,0.6257528,-0.012658764,-0.009042911,0.006199859,0.005473625,164,6,231,2,0,-7064.0576,281.9094,4326.7085,16.787766,384861.9,1546.6406,104.97519,95.265594,99.07246,99.07246,0,1,-49.921883,0,0,1.8343841,1.8343836,0,8,255,0,0,0,1,0,49,0
True,23086343,15999.99,0,2620.94,0.4506197,-0.13628906,15.07795,0.010332584,-0.2035932,18.516348,-0.007963084,0.003931045,0.013770738,1.9595712,-0.06617932,-0.032072302,0.15111859,0.16809255,0.3125185,0.3321721,0.6629713,0.6805578,0.5283829,0.5219079,60.81077,60.89177,60.37857,60.331894,0,0,0,0,0,0,0,0,0,0,0,0,-0.013082875,-0.009819683,-0.006531481,-0.0021785928,0.66310036,0.68062866,0.52842325,0.52191246,-0.014129212,-0.012047075,0.008263543,0.010600213,164,6,231,2,0,-7062.2075,282.01968,4325.9507,18.51747,423534.47,1546.6406,104.814445,95.47593,99.30935,99.30935,0,1,-48.503216,0,0,1.9476806,1.94768,0,8,255,0,0,0,1,0,49,0
True,23086453,15999.99,0,2866.7612,0.25047827,-0.13745144,15.105029,0.010189056,-0.19900128,20.25927,0.01345666,0.0038348485,0.011279419,1.959957,-0.065263145,-0.03062554,0.12999323,0.14534566,0.32589898,0.33102039,0.661285,0.53727794,0.5520417,0.57503533,66.48897,65.80536,66.18766,66.28941,0,0,0,0,0,0,0,0,0,0,0,0,-0.011272205,-0.008453452,-0.006476016,-0.0015927698,0.66138107,0.53734446,0.5520797,0.57503754,-0.016720582,-0.014837354,0.009854384,0.0104632825,164,6,231,2,0,-7060.1567,282.14267,4325.11,20.260248,463322.84,1546.6406,104.69219,95.72135,99.54574,99.54574,0,1,-46.930405,0,0,2.0620465,2.0620458,0,8,255,0,0,0,1,0,49,0
True,23086578,15999.99,0,3101.674,0.2074461,-0.068178095,15.249274,0.0070796013,-0.22075225,22.017017,-0.020334527,0.0041962275,0.021188362,1.9604318,-0.0656409,-0.028833678,0.14039198,0.1785701,0.294429,0.2952283,0.5931208,0.43575525,0.5060443,0.53834987,71.9032,70.95863,71.66233,71.81812,0,0,0,0,0,0,0,0,0,0,0,0,-0.010409377,-0.0079125175,-0.0041696834,-0.0027497876,0.5932122,0.43582708,0.5060615,0.5383569,-0.015445005,-0.010761831,0.0061128363,0.006207872,164,6,231,2,0,-7057.9062,282.27737,4324.186,22.018126,501438.22,1546.6406,104.58308,95.92361,99.804214,99.804214,0,1,-45.204144,0,0,2.177184,2.177183,0,8,255,0,0,0,1,0,49,0
True,23086687,15999.99,0,3330.9312,0.44830227,0.20386514,15.46156,0.0027275085,-0.2514527,23.715248,-0.017018279,0.0044779936,0.028494075,1.9610288,-0.06828276,-0.026069064,0.16277316,0.20425068,0.30917692,0.32431528,0.6020045,0.47849917,0.45080528,0.46858814,77.47431,76.67713,76.805664,76.88515,0,0,0,0,0,0,0,0,0,0,0,0,-0.0094999615,-0.006127305,-0.0035051266,0.00016957676,0.60207945,0.4785384,0.4508189,0.46858817,-0.012699585,-0.007611688,0.00786626,0.009666093,164,6,231,2,0,-7055.5396,282.42252,4323.2134,23.716581,526626,1511.9614,104.4948,96.10303,100.03766,100.03766,0,1,-43.38829,0,0,2.2891445,2.2891433,0,8,255,0,0,0,1,0,49,0
True,23086781,15999.99,0,3510.3262,-0.070334435,-0.0576114,14.326759,0.00047397614,-0.25407332,25.06765,0.020637784,0.004218938,0.029696785,1.9614058,-0.06806742,-0.023128388,0.19716938,0.24154848,0.32918295,0.3396143,0.551722,0.4701237,0.4262268,0.44408363,81.48319,80.93543,80.9497,81.03739,0,0,0,0,0,0,0,0,0,0,0,0,-0.008726931,-0.0041385964,-0.0038131904,0.0015073352,0.551791,0.47014192,0.42624384,0.44408616,-0.008480325,-0.0030365027,0.010244824,0.011485033,164,6,231,2,0,-7053.4175,282.55576,4322.341,25.068937,519305.47,1414.6326,104.43884,96.26016,100.21858,100.21858,0,1,-41.759888,0,0,2.3832693,2.383268,0,8,255,0,0,0,1,0,49,0
True,23086890,15999.99,0,3707.4402,-0.07718563,-0.5486913,13.1269455,8.010864E-05,-0.23960932,26.548775,0.031110525,0.0029462448,0.027974121,1.9616967,-0.064661995,-0.01994059,0.15902372,0.21710986,0.3572267,0.37755767,0.4381708,0.39678508,0.43221405,0.45280933,85.499176,85.1997,85.71159,85.825806,0,0,0,0,0,0,0,0,0,0,0,0,-0.0066267783,-0.00303994,-0.005504563,0.0032950144,0.4382209,0.39679673,0.4322491,0.45282134,-0.013159517,-0.0060342997,0.013579018,0.015996218,164,6,231,2,0,-7050.792,282.7173,4321.26,26.549858,520901.62,1343.2797,104.359764,96.43747,100.42274,100.42274,0,1,-39.74571,0,0,2.49337,2.4933686,0,8,255,0,0,0,1,0,49,0
True,23087000,15999.99,0,3903.51,0.24232149,-0.4012084,13.234623,0.00047588348,-0.24178874,28.014254,-0.0014315546,0.001959887,0.020182354,1.9620134,-0.062908925,-0.01737945,0.14168943,0.17414102,0.29923144,0.33740762,0.37249106,0.36960235,0.41627178,0.4168607,89.78857,89.73954,90.35764,90.35882,0,0,0,0,0,0,0,0,0,0,0,0,-0.0043908022,-0.0022833452,-0.0020911428,0.001667448,0.37251693,0.36960942,0.41627702,0.41686404,-0.015285851,-0.011305131,0.0066838115,0.011222675,164,6,231,2,0,-7048.001,282.8825,4320.1094,28.015297,565727.25,1385.7239,104.27739,96.59505,100.625175,100.625175,0,1,-37.603695,0,0,2.604126,2.6041245,0,8,255,0,0,0,1,0,49,0
True,23087125,15999.99,0,4113.2905,0.28239822,0.090007074,13.598224,0.0010375977,-0.27500898,29.53891,-0.016124332,0.002035449,0.018176857,1.9622451,-0.06466443,-0.015203429,0.20336594,0.22568847,0.28481558,0.31089988,0.41174024,0.39944598,0.38395825,0.38005984,94.96615,94.88962,95.05099,95.00991,0,0,0,0,0,0,0,0,0,0,0,0,-0.0048557273,-0.0016593863,-0.0014634121,0.00020024288,0.41176888,0.39944944,0.38396105,0.3800599,-0.007720217,-0.004981991,0.0049698725,0.008071102,164,6,231,2,0,-7045.013,283.05978,4318.877,29.54019,599374.7,1393.1997,104.21209,96.75224,100.83275,100.83275,0,1,-35.310402,0,0,2.716527,2.7165256,0,8,255,0,0,0,1,0,49,0
True,23087234,15999.99,0,4326.2446,0.013718605,-0.22907718,13.450242,0.0025978088,-0.26998216,31.039219,0.019102827,0.0008677605,0.012307064,1.9623959,-0.06375318,-0.013514678,0.2171203,0.24131724,0.35308012,0.36007553,0.40352255,0.3946499,0.41125616,0.4124759,99.709625,99.60798,100.043785,100.05568,0,0,0,0,0,0,0,0,0,0,0,0,-0.0043468988,-0.00058971456,-0.0050747236,0.0023450174,0.40354595,0.3946503,0.4112875,0.4124826,-0.006033018,-0.003064867,0.013086025,0.013917722,164,6,231,2,0,-7041.854,283.24945,4317.573,31.040392,618581.56,1366.9011,104.1752,96.92861,101.03978,101.03978,0,1,-32.885296,0,0,2.8294456,2.8294442,0,8,255,0,0,0,1,0,49,0
True,23087343,15999.99,0,4532.8843,-0.0090909,-0.45678324,12.911,0.0026540756,-0.2775723,32.532413,0.012143923,0.0013011013,0.0097711915,1.9625424,-0.062111426,-0.0123090055,0.15538953,0.17430967,0.33112147,0.35288078,0.3915011,0.4024194,0.4060081,0.4039149,104.40535,104.47273,104.82721,104.808105,0,0,0,0,0,0,0,0,0,0,0,0,-0.0036176108,-0.001031516,-0.0035885114,0.0025068037,0.3915178,0.4024207,0.40602395,0.40392268,-0.01360531,-0.011284446,0.010475304,0.013062324,164,6,231,2,0,-7038.537,283.44434,4316.203,32.533596,651179.56,1373.293,104.15984,97.098785,101.256744,101.256744,0,1,-30.338964,0,0,2.9424605,2.9424589,0,8,255,0,0,0,1,0,49,0
True,23087453,15999.99,0,4710.7593,-0.038915634,-0.23771772,13.228464,0.0022583008,-0.29351616,33.857697,-0.0136107225,0.0015726163,0.012667017,1.9626606,-0.061914597,-0.011236066,0.19253442,0.2121876,0.27974638,0.30142942,0.36971268,0.33248055,0.39512056,0.3997664,108.48026,108.16206,109.035736,109.05973,0,0,0,0,0,0,0,0,0,0,0,0,-0.0037675009,-0.0012273061,-0.0014272663,-0.00020489727,0.3697319,0.3324828,0.39512315,0.39976645,-0.009048879,-0.006638095,0.00436718,0.006945133,164,6,231,2,0,-7035.505,283.61923,4314.9507,33.85897,692080.1,1404.397,104.16065,97.246185,101.450294,101.450294,0,1,-28.011297,0,0,3.0413768,3.041375,0,8,255,0,0,0,1,0,49,0
True,23087562,15999.99,0,4918.149,-0.0772357,0.29312265,13.13159,-0.00237751,-0.32001436,35.404037,0.0057499623,0.0018108352,0.025048137,1.9628406,-0.063919395,-0.008899241,0.21295282,0.2433645,0.36092153,0.37836167,0.42181787,0.37124327,0.34546497,0.3483518,113.875305,113.43431,113.53797,113.54809,0,0,0,0,0,0,0,0,0,0,0,0,-0.004122086,-0.00040960783,-0.004507495,0.003986348,0.421838,0.3712435,0.3454944,0.34837463,-0.0065442286,-0.0028137378,0.014018305,0.016091812,164,6,231,2,0,-7031.824,283.83514,4313.4297,35.405483,701135.5,1362.8068,104.17581,97.40816,101.67413,101.67413,0,1,-25.186705,0,0,3.156461,3.1564593,0,8,255,0,0,0,1,0,49,0
True,23087671,15999.99,0,5121.978,-0.1056633,-1.4223073,12.122716,-0.008234024,-0.30304813,36.728294,0.074951455,0.0020536652,0.042095855,1.9629562,-0.05887666,-0.004887431,0.16521455,0.20433505,0.32856706,0.34593195,0.5150021,0.431979,0.40146536,0.40650228,118.83143,118.13785,118.17263,118.195625,0,0,0,0,0,0,0,0,0,0,0,0,-0.0042020297,-9.608548E-05,-0.0026245785,0.0027119983,0.5150192,0.43197903,0.40147394,0.40651134,-0.012400109,-0.0076013394,0.0101716,0.012236156,164,6,231,2,0,-7028.101,284.05014,4311.891,36.729546,630909.1,1177.0554,104.23624,97.57416,101.88095,101.88095,0,1,-22.328358,0,0,3.2682047,3.2682025,0,8,255,0,0,0,1,0,49,0
True,23087796,15999.99,0,5281.1724,0.1339469,-1.4554113,12.06457,-0.010270119,-0.29389215,38.061935,-0.006540685,9.328929E-05,0.02917002,1.9630858,-0.053437002,-0.000786731,0.25436085,0.26368564,0.30184722,0.30255446,0.28667778,0.28394842,0.38920763,0.39494005,121.12027,121.095764,122.401474,122.45895,0,0,0,0,0,0,0,0,0,0,0,0,-0.001018592,0.0018113275,-0.0003264139,0.0014856126,0.2866796,0.2839542,0.38920778,0.39494282,-0.0014648549,-0.00032101572,0.006994806,0.007078897,164,6,231,2,0,-7024.211,284.2502,4310.2827,38.063072,721317.5,1305.2242,104.28171,97.74642,102.099594,102.099594,0,1,-19.34251,0,0,3.3808954,3.3808935,0,8,255,0,0,0,1,0,49,0
True,23087890,15999.99,0,5428.337,0.15270567,2.2679632,12.565503,-0.0075292587,-0.33872423,39.341534,-0.16294676,-0.0006903338,0.016933188,1.9631486,-0.061366104,0.0014118874,0.41529286,0.41586515,0.4600855,0.45149076,0.21885596,0.24252133,0.29602623,0.28385013,124.66007,124.92857,125.7423,125.60437,0,0,0,0,0,0,0,0,0,0,0,0,-0.00031292922,0.0023511436,-0.0136813065,0.013525382,0.21885619,0.24253273,0.29634222,0.28417218,0.018276095,0.018346295,0.02580817,0.024786316,164,6,231,2,0,-7020.6504,284.43713,4308.8105,39.34299,753142.6,1326.541,104.31163,97.87352,102.28543,102.28543,0,1,-16.60949,0,0,3.4805002,3.4804978,0,8,255,0,0,0,1,0,49,0
True,23088015,15999.99,0,5653.214,2.0163662,0.51047546,11.973543,0.039378166,-0.2378971,40.694675,0.06654388,0.10378059,0.008321579,1.9670258,-0.062444046,0.0023159513,0.31116647,0.29815447,0.4735792,0.46769518,0.28627062,0.5234301,0.3425199,0.39005294,129.6022,131.5417,130.54314,130.55849,0,0,0,0,0,0,0,0,0,0,0,0,0.30872938,0.33564895,0.003615002,0.03642608,0.42102814,0.6218033,0.34253898,0.39175013,0.0055032857,0.0039071515,0.027412467,0.026712902,164,6,231,2,0,-7016.352,284.70154,4307.025,40.695385,680063.25,1149.7222,104.369675,98.04907,102.490906,102.490906,0,1,-13.306591,0,0,3.5968633,3.5968611,0,8,255,0,0,0,1,127,48,0
True,23088109,15999.99,0,5790.485,3.595569,-1.5527948,11.124594,-0.2721424,-0.25166357,41.738506,0.04080675,0.16700204,-0.00590868,1.9858215,-0.05788933,0.0015895523,0.26717314,0.23526883,0.36888486,0.3484245,0.32003346,0.41786256,0.31302717,0.4015655,133.47456,133.71414,133.747,133.85493,0,0,0,0,0,0,0,0,0,0,0,0,0.0072097573,0.010799551,0.10804281,0.11964895,0.32011467,0.4180021,0.3311484,0.4190116,0.00010678172,-0.0038068034,0.014965091,0.012532502,164,6,231,2,0,-7012.5273,284.92673,4305.3916,41.740154,704698.06,1162.9349,104.47275,98.27529,102.66777,102.66777,0,1,-10.355741,0,0,3.6979024,3.6979003,0,8,255,0,0,0,1,0,47,0
True,23088234,15999.99,0,5938.617,3.8803134,-0.95577735,11.248619,-0.2620859,-0.27663517,43.042202,-0.033462103,0.041407533,0.0048088683,1.9964483,-0.05525369,0.0011520742,0.26028347,0.23233971,0.33765954,0.30598333,0.20505829,0.24910246,0.3007752,0.3446999,136.16458,136.43318,137.49634,137.7227,0,0,0,0,0,0,0,0,0,0,0,0,0.0474574,0.050309747,0.0688389,0.074761555,0.21047828,0.25413206,0.3085523,0.3527142,-0.0007383488,-0.0041661076,0.011252627,0.0074865595,164,6,231,2,0,-7007.9746,285.17368,4303.3896,43.043888,752539.8,1210.5916,104.54207,98.45096,102.88718,102.88718,0,1,-6.82839,0,0,3.8153641,3.8153622,0,8,255,0,0,0,1,0,45,0
True,23088343,15999.99,0,6100.589,1.941495,1.4694948,11.077431,-0.060035706,-0.32733986,44.333553,-0.0029822928,-0.0040628044,-0.0015909309,1.997971,-0.06152988,0.0011355953,0.3090298,0.28596213,0.39645165,0.36740154,0.29602215,0.29377058,0.23138697,0.23915382,141.10359,141.1009,140.73549,140.81532,0,0,0,0,0,0,0,0,0,0,0,0,0.014428713,0.0181978,0.006304382,0.01605825,0.29637358,0.2943337,0.23147285,0.23969235,0.0052411854,0.0024115592,0.018242579,0.014788732,164,6,231,2,0,-7003.3423,285.43655,4301.302,44.334805,752932,1179.5841,104.60593,98.59267,103.09143,103.09143,0,1,-3.2252314,0,0,3.9317534,3.9317515,0,8,255,0,0,0,1,0,42,0
True,23088437,15999.99,0,6258.098,0.5050001,-0.917204,10.26175,-0.012994766,-0.2912544,45.192356,0.054485474,-0.004654951,-0.00022413395,1.9975235,-0.05777127,0.0012051504,0.26795548,0.25477886,0.39093807,0.3680072,0.30013987,0.32692164,0.3616229,0.3571355,143.80244,144.13988,144.84473,144.81277,0,0,0,0,0,0,0,0,0,0,0,0,0.0029569413,0.006590822,-0.004317631,0.005946604,0.30015445,0.32698807,0.36164868,0.357185,0.00020274892,-0.00141358,0.01758705,0.0148607455,164,6,231,2,0,-6999.9487,285.63483,4299.7607,45.1933,730082.9,1114.6162,104.666794,98.70329,103.23009,103.23009,0,1,-0.5823264,0,0,4.0151086,4.0151067,0,8,255,0,0,0,1,0,39,0
True,23088546,15999.99,0,6376.0093,0.36827874,-1.2068032,10.34986,0.00815773,-0.30823416,46.290257,0.0101100635,-0.0021406368,-0.016787095,1.9971411,-0.05483412,0.00039187257,0.26121745,0.2487807,0.35264778,0.34210128,0.25171784,0.26120263,0.28401265,0.28538978,146.79128,146.87943,147.45245,147.49866,0,0,0,0,0,0,0,0,0,0,0,0,-0.0013831907,0.0014039222,-0.0044519524,0.0014732828,0.25172165,0.26120642,0.28404754,0.28539357,-0.00062378123,-0.002149351,0.013034619,0.0117807165,164,6,231,2,0,-6995.6157,285.8698,4297.7915,46.291286,752286.6,1127.2073,104.74344,98.84165,103.41328,103.41328,0,1,2.79135,0,0,4.119255,4.1192536,0,8,255,0,0,0,1,0,36,0
True,23088671,15999.99,0,6530.461,-0.30152726,0.620336,9.773752,0.008901596,-0.31631312,47.61855,-0.033513512,0.00014790823,-0.006916455,1.9970267,-0.056463208,-0.0011419711,0.287105,0.28083378,0.36058626,0.35408324,0.19680718,0.19607563,0.23071484,0.2297049,150.38124,150.3815,151.05746,151.05026,0,0,0,0,0,0,0,0,0,0,0,0,-0.002626665,-0.00040356154,-0.004857571,0.0017772006,0.1968247,0.19607605,0.23076597,0.22971177,0.002551753,0.0017824844,0.013978444,0.013205282,164,6,231,2,0,-6990.096,286.1639,4295.2837,47.6196,752284.7,1100.5919,104.834595,98.99782,103.6236,103.6236,0,1,7.089088,0,0,4.248469,4.2484674,0,8,255,0,0,0,1,0,32,0
True,23088781,15999.99,0,6701.04,0.15083528,-0.3577065,10.164547,0.0072898865,-0.29724213,48.64099,0.04363981,0.00020951423,-0.0095849,1.9970574,-0.055571314,-0.0020599638,0.28452468,0.27715036,0.37597325,0.37439764,0.27438894,0.26497892,0.28392005,0.2879331,154.47258,154.33989,154.92181,154.97243,0,0,0,0,0,0,0,0,0,0,0,0,-0.0026930086,0.0007288504,-0.005112287,0.0034902452,0.27440214,0.2649799,0.28396606,0.28795427,0.0022352338,0.0013306513,0.015807845,0.015620515,164,6,231,2,0,-6985.4634,286.42017,4293.179,48.641907,752254.94,1072.6575,104.90747,99.120026,103.791275,103.791275,0,1,10.696601,0,0,4.354282,4.35428,0,8,255,0,0,0,1,0,28,0
True,23088890,15999.99,0,6818.3125,-0.18731141,0.44932795,9.857328,0.0047397614,-0.31400147,49.796295,-0.042283177,0.0001997258,-0.008583429,1.9971278,-0.05613997,-0.002704821,0.28197527,0.27238733,0.35915846,0.34142628,0.17553626,0.1846117,0.21184519,0.20960873,156.9772,157.09055,157.70564,157.69258,0,0,0,0,0,0,0,0,0,0,0,0,-0.0014510747,0.00042545388,-0.0038458798,0.0020568538,0.17554225,0.18461218,0.2118801,0.20961882,0.0019225068,0.000746388,0.013808694,0.01170047,164,6,231,2,0,-6980.179,286.7034,4290.779,49.797283,752594.75,1054.5927,105.00152,99.262436,103.97943,103.97943,0,1,14.811069,0,0,4.472311,4.472309,0,8,255,0,0,0,1,0,24,0
True,23089000,15999.99,0,7012.209,-0.13928509,-0.99210846,9.000719,-0.008890152,-0.27858227,50.849865,0.0330664,-0.008138831,0.001950941,1.9970865,-0.053654943,-0.003440489,0.24511151,0.23766734,0.36061597,0.3489998,0.2344575,0.19959478,0.34404814,0.3259429,160.97673,160.55804,162.69977,162.45956,0,0,0,0,0,0,0,0,0,0,0,0,-0.06761754,-0.06368346,-0.0041075964,0.0028928781,0.2440132,0.20950814,0.34407267,0.32595575,-0.0025994368,-0.0035125874,0.013981976,0.0126009025,164,6,231,2,0,-6974.8604,286.99506,4288.363,50.850628,752791.3,1025.8085,105.09196,99.39726,104.16283,104.16283,0,1,18.952717,0,0,4.588507,4.588505,0,8,255,0,0,0,1,-8,20,0
True,23089109,15999.99,0,7105.1567,-3.740291,-0.023294656,8.913586,0.017313004,-0.32022992,51.754143,0.0026591117,-0.18914847,0.004841523,1.9884751,-0.054556016,-0.0026038988,0.26696756,0.3131198,0.31787503,0.34843692,0.34427416,0.19024138,0.24925578,0.19074649,164.8276,163.71155,163.9415,164.0447,0,0,0,0,0,0,0,0,0,0,0,0,-0.3873225,-0.3507408,-0.046706546,-0.040756144,0.5182118,0.3990124,0.25359407,0.195052,8.156523E-05,0.0057428926,0.0089003965,0.012533978,164,6,231,2,0,-6970.232,287.2387,4286.2793,51.75514,752722.56,1012.2711,105.19798,99.54608,104.32068,104.32068,0,1,22.551296,0,0,4.6875134,4.687511,0,8,255,0,0,0,1,-108,17,0
True,23089218,15999.99,0,7236.8354,-5.8414497,-0.23206569,8.890809,0.5538502,-0.30462098,52.74998,0.012579084,-0.12824474,0.0039115855,1.9634064,-0.05369129,-0.00035442595,0.2506712,0.30994228,0.37337428,0.417546,0.2787549,0.18621771,0.2553293,0.19918549,167.2926,166.67802,167.24933,167.17088,0,0,0,0,0,0,0,0,0,0,0,0,-0.07801603,-0.071398854,-0.1388395,-0.11974117,0.28946638,0.19943628,0.2906363,0.23240656,-0.0019174479,0.005353119,0.015498847,0.020750538,164,6,231,2,0,-6964.7793,287.5252,4283.9097,52.75376,752654.75,993.6455,105.35266,99.739525,104.514854,104.514854,0,1,26.767824,0,0,4.8013997,4.8013973,0,8,255,0,0,0,1,0,14,0
True,23089343,15999.99,0,7362.7686,-4.590228,-1.0936491,9.163084,0.31764984,-0.30330685,53.739033,-0.025967091,-0.019204099,0.01496414,1.9572232,-0.05083499,0.0010473207,0.22495592,0.28511575,0.25709715,0.31545982,0.18906501,0.15077074,0.2511327,0.22563197,169.49066,169.08372,170.53171,170.36127,0,0,0,0,0,0,0,0,0,0,0,0,-0.058007907,-0.054628562,-0.0657381,-0.061934743,0.19776373,0.1603624,0.25959417,0.23397799,-0.0050718524,0.002307739,0.0016743578,0.008613244,164,6,231,2,0,-6959.1953,287.80548,4281.568,53.74082,752405.7,976.0413,105.462234,99.87929,104.69983,104.69983,0,1,31.062086,0,0,4.915227,4.915225,0,8,255,0,0,0,1,0,14,0
True,23089437,15999.99,0,7478.774,-2.2031107,-0.09227919,8.505655,0.07739639,-0.29693028,54.577263,0.03241355,0.010905796,0.032332975,1.957307,-0.05132425,0.003442464,0.2267206,0.28568226,0.34138525,0.39744097,0.19359945,0.17497289,0.23864731,0.23600832,172.17525,171.88377,173.12486,173.05788,0,0,0,0,0,0,0,0,0,0,0,0,-0.020816313,-0.018369243,-0.016472656,-0.007292156,0.19471534,0.17593448,0.23921515,0.23612094,-0.004855383,0.0023772307,0.01169559,0.018360201,164,6,231,2,0,-6954.225,288.0525,4279.5273,54.578125,752274.94,960.9646,105.54316,99.99175,104.85317,104.85317,0,1,34.872684,0,0,5.014507,5.014505,0,8,255,0,0,0,1,0,14,0
True,23089531,15999.99,0,7570.211,-0.99332595,0.8447645,8.504492,-0.010505676,-0.32592732,55.42412,-0.025509665,0.00424788,0.041328806,1.958035,-0.05320744,0.00711138,0.3198062,0.37079158,0.31944984,0.3730233,0.17301938,0.16997248,0.1765783,0.17700098,174.628,174.5711,174.96024,174.95018,0,0,0,0,0,0,0,0,0,0,0,0,-0.0029595082,-9.999173E-05,-0.00043969424,0.004227906,0.1730447,0.16997251,0.17657885,0.17705147,0.00656309,0.012817282,0.009087633,0.015457116,164,6,231,2,0,-6949.0947,288.30814,4277.4346,55.42508,752629.25,949.8001,105.62778,100.10808,105.00409,105.00409,0,1,38.802475,0,0,5.115331,5.1153297,0,8,255,0,0,0,1,0,14,0
True,23089656,15999.99,0,7731.7407,2.0207903,-1.4576956,7.9896164,0.02335167,-0.27017373,56.360474,-0.013667658,0.102297984,0.06214813,1.9609613,-0.048953973,0.013155409,0.2458614,0.28514177,0.3457868,0.3766198,0.1453228,0.20043835,0.24249828,0.293768,177.42813,177.73438,179.04524,179.13594,0,0,0,0,0,0,0,0,0,0,0,0,0.22219509,0.23833974,0.010903215,0.018953947,0.26549837,0.3114183,0.24274327,0.29437882,-0.002507452,0.002310928,0.0122189,0.015884716,164,6,231,2,0,-6942.977,288.61246,4274.935,56.361126,752251.25,929.1043,105.73863,100.24928,105.18033,105.18033,0,1,43.489277,0,0,5.2336893,5.233689,0,8,255,0,0,0,1,117,14,0
True,23089765,15999.99,0,7835.6743,2.9119198,0.28615594,7.7656107,-0.27196693,-0.30399734,57.275352,0.023464326,0.043101117,0.04786417,1.9727925,-0.051430084,0.017993882,0.2642382,0.3043586,0.31029528,0.35257986,0.17873542,0.20820527,0.18998742,0.21384352,180.5624,180.78252,181.06694,181.16747,0,0,0,0,0,0,0,0,0,0,0,0,0.034338832,0.037689637,0.051367402,0.05666573,0.18200414,0.21158908,0.19680913,0.221224,-0.00025323406,0.0046681874,0.007999223,0.013026547,164,6,231,2,0,-6936.9204,288.91116,4272.414,57.276814,752636.25,917.6244,105.85458,100.3954,105.36653,105.36653,0,1,48.142643,0,0,5.349221,5.3492208,0,8,255,0,0,0,1,0,14,0
True,23089890,15999.99,0,7958.1104,1.9210494,-0.9218323,7.5263805,-0.14553833,-0.30436808,58.13159,0.03963905,-0.0032342633,0.035215702,1.9745333,-0.04921809,0.022263784,0.27275607,0.31711367,0.3787317,0.3844658,0.22485842,0.2073661,0.1964588,0.21265301,183.82314,183.56622,183.74048,183.93866,0,0,0,0,0,0,0,0,0,0,0,0,0.024448708,0.027242918,0.018171124,0.02743541,0.22618365,0.20914797,0.19729736,0.21441549,0.00079162046,0.0062328056,0.016135804,0.016817551,164,6,231,2,0,-6930.9653,289.20233,4269.8984,58.13257,752626.75,903.47186,105.94829,100.52084,105.537796,105.537796,0,1,52.727848,0,0,5.4613414,5.4613404,0,8,255,0,0,0,1,0,13,0
True,23090000,15999.99,0,8046.709,0.533371,-0.39861828,7.7551694,-0.049318314,-0.3163346,58.989582,-0.031854134,-0.0061416216,0.051927082,1.9738569,-0.047901668,0.027700858,0.25234836,0.31180507,0.27947646,0.3250012,0.14258392,0.14229101,0.17180482,0.17321438,185.35164,185.3917,186.07628,186.0944,0,0,0,0,0,0,0,0,0,0,0,0,0.0066163703,0.008332783,0.004462591,0.0059285597,0.14273734,0.14253479,0.17186277,0.17331581,-0.0017117187,0.005581621,0.0043350942,0.0097476505,164,6,231,2,0,-6924.935,289.48083,4267.3345,58.990444,752468.1,893.2372,106.047104,100.649734,105.70528,105.70528,0,1,57.3749,0,0,5.5733166,5.5733147,0,8,255,0,0,0,1,0,11,0
True,23090109,15999.99,0,8157.262,-0.15481591,0.28162834,7.4226866,-0.005502701,-0.2976997,59.81095,-0.03263902,-0.009998674,0.030235354,1.972474,-0.04836228,0.03207515,0.27988222,0.3128197,0.34939983,0.37346423,0.12887034,0.12759899,0.17865397,0.17830846,187.72333,187.7506,188.72488,188.75531,0,0,0,0,0,0,0,0,0,0,0,0,0.0011716068,0.0025064822,-0.005239822,0.0014485879,0.12887566,0.1276236,0.17873079,0.17831434,0.0016657598,0.0057060793,0.012648467,0.015509542,164,6,231,2,0,-6918.845,289.76508,4264.745,59.811687,752396,880.9784,106.140755,100.77272,105.870895,105.870895,0,1,62.067398,0,0,5.6848135,5.6848116,0,8,255,0,0,0,1,0,10,0
True,23090203,15999.99,0,8291.577,-0.58093905,-0.9253965,7.0133,-0.0073394775,-0.2785902,60.587486,0.03208908,-0.0042376155,0.020279564,1.971844,-0.04682771,0.034849226,0.23674937,0.26497042,0.33434993,0.37044808,0.17722495,0.16851947,0.2249416,0.22675025,190.83852,190.73016,191.84344,191.8997,0,0,0,0,0,0,0,0,0,0,0,0,0.00024741923,0.0021505407,-0.0028233726,0.0032852467,0.17722511,0.16853319,0.22495931,0.22677405,-0.0036251917,-0.00016341731,0.010859143,0.015150946,164,6,231,2,0,-6912.761,290.05292,4262.163,60.58812,752484.06,866.8358,106.228226,100.89061,106.03254,106.03254,-2.6231346,1,66.754524,0,0,5.794686,5.794684,0,8,255,0,0,0,1,0,8,0
True,23090328,15999.99,0,8369.239,-0.20997286,-0.07420269,7.189806,-0.020706177,-0.31871462,61.370987,0.012963217,-0.00310928,0.032049246,1.9714699,-0.047298443,0.037972443,0.237317,0.2785548,0.33071697,0.36027694,0.16143905,0.16799417,0.16053368,0.16006513,193.07498,193.16405,193.36775,193.37671,0,0,0,0,0,0,0,0,0,0,0,0,0.0015267773,0.0036416992,-0.00034123237,0.003994298,0.16144626,0.16803364,0.16053405,0.16011496,-0.0035555623,0.0015029311,0.010427207,0.013941672,164,6,231,2,0,-6906.683,290.3291,4259.5874,61.37182,752480.7,858.80927,106.32135,101.012115,106.192,106.192,-7.412361,1,71.43576,0,0,5.9030147,5.9030123,0,8,255,0,0,0,1,0,7,0
True,23090421,15999.99,0,8453.686,0.21926618,0.58396196,6.8371677,-0.027179718,-0.32143366,62.034367,-0.01104987,-0.0031224259,0.03991785,1.9711486,-0.04815806,0.041040257,0.3344738,0.37217095,0.3630765,0.38497397,0.16069078,0.14417303,0.1487362,0.15392907,195.18542,194.9427,195.28586,195.36526,0,0,0,0,0,0,0,0,0,0,0,0,0.0017464411,0.004579023,-0.0012433094,0.0059728227,0.16070028,0.14424573,0.1487414,0.15404491,0.008362312,0.012986485,0.014274515,0.016877964,164,6,231,2,0,-6901.299,290.57642,4257.3086,62.035206,752536,850.37524,106.40317,101.12066,106.331085,106.331085,-11.735693,1,75.58117,0,0,5.997837,5.9978347,0,8,255,0,0,0,1,0,6,0
True,23090546,15999.99,0,8590.151,-0.005092144,-1.5411144,7.0939445,-0.027980804,-0.29589713,62.845623,0.031242909,-0.0047343774,0.024118613,1.9708257,-0.04448979,0.04548899,0.2256215,0.26423812,0.3151737,0.3609259,0.18543544,0.19807151,0.19154768,0.1920693,198.13567,198.35658,198.44733,198.47408,0,0,0,0,0,0,0,0,0,0,0,0,0.0034738623,0.0057977736,0.0011485699,0.0056832912,0.18546797,0.19815634,0.19155112,0.19215336,-0.004990205,-0.00025324523,0.008579224,0.014018826,164,6,231,2,0,-6894.382,290.8893,4254.385,62.84632,752261.5,836.56805,106.50055,101.24666,106.50335,106.50335,-14.7,1,80.90619,0,0,6.118194,6.118191,0,8,255,0,0,0,1,0,5,0
True,23090656,15999.99,0,8674.875,-0.37640643,-1.7387025,7.3052707,-0.027639389,-0.3256266,63.676353,-0.038816217,-0.0031883,0.021129645,1.9704926,-0.04048098,0.047465444,0.24437992,0.2651658,0.2897017,0.310684,0.12091205,0.11792674,0.16467486,0.16669963,199.71902,199.69333,200.66801,200.7038,0,0,0,0,0,0,0,0,0,0,0,0,0.0035144538,0.004431802,0.002684032,0.003568277,0.12096312,0.118009984,0.16469674,0.16673782,-0.002689179,-0.00013944879,0.005550798,0.008045435,164,6,231,2,0,-6887.382,291.1679,4251.428,63.677193,752308.1,828.2417,106.60658,101.38492,106.67166,106.67166,-14.7,1,86.29338,0,0,6.2384024,6.2384,0,8,255,0,0,0,1,0,3,0
True,23090765,15999.99,0,8761.861,-0.029340267,1.7383218,6.560462,-0.026197433,-0.2971393,64.40956,-0.062123176,-0.0032145584,0.0045846347,1.9699268,-0.044067748,0.04938045,0.34272066,0.34018645,0.3355208,0.34619507,0.09149401,0.09637853,0.1495475,0.1489055,201.57169,201.65742,202.747,202.75146,0,0,0,0,0,0,0,0,0,0,0,0,0.0038726956,0.0046147574,0.0009703755,0.0055488157,0.091575935,0.096488945,0.14955066,0.14900886,0.009373926,0.009063061,0.01099835,0.012267444,164,6,231,2,0,-6880.9014,291.43042,4248.694,64.41025,752425.1,820.2437,106.70935,101.51238,106.83712,106.83712,-14.7,1,91.28021,0,0,6.3482895,6.348286,0,8,255,0,0,0,1,0,2,0
True,23090875,15999.99,0,8890.591,-0.54598236,0.45779994,6.143401,-0.024274826,-0.25064933,64.99667,0.06890972,-0.0033139726,-0.010657433,1.9695846,-0.044675443,0.048941296,0.29085276,0.2625349,0.38971514,0.37980092,0.16161019,0.19009574,0.22248009,0.21829571,204.30869,204.86835,205.76344,205.67978,0,0,0,0,0,0,0,0,0,0,0,0,0.00384307,0.006228785,-0.0022480458,0.0079986295,0.16165587,0.19019777,0.22249144,0.2184422,0.0030114762,-0.00046217442,0.017441656,0.016262926,164,6,231,2,0,-6875.2065,291.68646,4246.295,64.99717,752592.75,808.58563,106.79023,101.61664,106.98724,106.98724,-14.7,1,95.66216,0,0,6.443853,6.44385,0,8,255,0,0,0,1,0,1,0
True,23090984,15999.99,0,8931.189,-0.40497172,4.0433917,6.2310314,-0.014911652,-0.2814877,65.75592,-0.06811248,-0.002155919,-0.031588044,1.9689333,-0.051230643,0.04639748,0.4141613,0.3626333,0.409918,0.3971111,0.10002963,0.104154624,0.11305278,0.11322388,205.90308,205.99648,206.42638,206.43379,0,0,0,0,0,0,0,0,0,0,0,0,0.0031391135,0.004697985,-0.0035397673,0.007767944,0.10007888,0.10426053,0.11310818,0.11349004,0.018137287,0.011816535,0.019843627,0.018320978,164,6,231,2,0,-6868.2485,292.00717,4243.366,65.75653,752496.5,804.82495,106.92053,101.76893,107.16542,107.16542,-14.7,1,101.01571,0,0,6.5593977,6.559395,0,8,255,0,0,0,1,0,1,0
True,23091093,15999.99,0,9045.105,-0.09179711,0.87472093,6.1708274,-0.022554398,-0.24186754,66.43572,-0.025445733,-0.000942701,-0.03316062,1.968729,-0.051903013,0.043146852,0.38964614,0.3364205,0.42707533,0.3849884,0.10676525,0.11892555,0.16226645,0.15921403,208.13393,208.32504,209.26218,209.23949,0,0,0,0,0,0,0,0,0,0,0,0,0.0040595247,0.0056207394,-0.004575466,0.009088642,0.1068424,0.119058296,0.16233094,0.15947323,0.015130103,0.008601107,0.021883503,0.016879678,164,6,231,2,0,-6861.3564,292.36716,4240.469,66.43617,752345.94,794.3431,107.01999,101.892654,107.33386,107.33386,-14.7,1,106.32095,0,0,6.672629,6.6726265,0,8,255,0,0,0,1,0,0,0
True,23091218,15999.99,0,9115.054,0.08011258,3.5609515,5.961229,-0.023195267,-0.24509835,67.11167,-0.06352554,0.0009981852,-0.047854483,1.9685374,-0.058176376,0.038815267,0.42849407,0.34872547,0.43057927,0.4077057,0.08718977,0.10247059,0.12024764,0.11818194,209.92712,210.2001,210.76561,210.73024,0,0,0,0,0,0,0,0,0,0,0,0,0.0043198573,0.0056834905,-0.0038492358,0.011296587,0.08729672,0.10262809,0.12030923,0.118720606,0.019895438,0.010110512,0.022300094,0.019580599,164,6,231,2,0,-6854.456,292.74915,4237.5713,67.11212,752426.1,788.4642,107.13812,102.034775,107.5087,107.5087,-14.7,1,111.63092,0,0,6.7848434,6.784841,0,8,255,0,0,0,1,0,0,0
True,23091328,15999.99,0,9212.735,0.3136921,2.8540614,6.075635,-0.022819519,-0.23411524,67.729004,0.003075241,0.0014942593,-0.050804056,1.9684529,-0.06314636,0.03287126,0.4042007,0.3311784,0.44332746,0.37659448,0.12612851,0.13545264,0.13480307,0.13336222,212.46103,212.60469,212.89459,212.88231,0,0,0,0,0,0,0,0,0,0,0,0,0.0041327435,0.0064101727,-0.004889094,0.008870676,0.1261962,0.13560423,0.1348917,0.13365692,0.01691546,0.007958077,0.023815759,0.015881706,164,6,231,2,0,-6847.6577,293.17563,4234.717,67.729416,752483.4,780.17694,107.24745,102.16369,107.68268,107.68268,-14.7,1,116.86603,0,0,6.894366,6.8943634,0,8,255,0,0,0,1,0,0,0
True,23091437,15999.99,0,9280.485,0.049678802,2.8842509,6.0970945,-0.029159546,-0.25289774,68.35087,-0.07105618,0.0028028875,-0.03197684,1.968641,-0.06692399,0.028866345,0.42072904,0.3513626,0.4082895,0.37971577,0.0870472,0.10465256,0.11344392,0.11155585,213.80402,214.12036,214.54736,214.50533,0,0,0,0,0,0,0,0,0,0,0,0,0.004100172,0.0055262214,-0.0011456226,0.0085842395,0.087143704,0.10479837,0.1134497,0.111885644,0.01894293,0.010433998,0.019650009,0.0162528,164,6,231,2,0,-6840.7905,293.6269,4231.834,68.35133,752426.06,774.4,107.35683,102.30138,107.84529,107.84529,-14.7,1,122.152824,0,0,7.004014,7.0040116,0,8,255,0,0,0,1,0,0,0
True,23091531,15999.99,0,9380.073,-0.2380389,0.4903615,5.469659,-0.021615982,-0.2383368,68.93959,-0.06306775,0.003366319,-0.059209004,1.968808,-0.06743925,0.021425284,0.41245636,0.34217265,0.43285054,0.37054628,0.09064191,0.08792519,0.1629234,0.15962404,215.73991,215.6879,217.13614,217.10942,0,0,0,0,0,0,0,0,0,0,0,0,0.0042368383,0.0046732128,-0.0040800553,0.009675152,0.090740874,0.08804929,0.16297448,0.159917,0.01792815,0.009306703,0.022570133,0.015162621,164,6,231,2,0,-6833.821,294.11124,4228.9067,68.94001,752199.44,765.7393,107.460205,102.422104,108.00755,108.00755,-14.7,1,127.520096,0,0,7.114367,7.1143656,0,8,255,0,0,0,1,0,0,0
True,23091640,15999.99,0,9446.3545,-0.189206,3.0919034,5.148751,-0.023204803,-0.22640657,69.500206,-0.013127214,0.0019924946,-0.038869884,1.9690359,-0.07356319,0.017374203,0.4641166,0.42698115,0.46500045,0.41934562,0.10188457,0.11151576,0.13135761,0.13496052,217.60985,217.74788,218.39296,218.4443,0,0,0,0,0,0,0,0,0,0,0,0,0.0032461202,0.0056631532,-0.0075922636,0.013090641,0.10193627,0.11165947,0.13157684,0.1355939,0.024265125,0.019709855,0.02639252,0.020964496,164,6,231,2,0,-6827.071,294.60886,4226.07,69.50058,752480.56,760.8393,107.57277,102.560425,108.18326,108.18326,-14.7,1,132.72173,0,0,7.220367,7.2203655,0,8,255,0,0,0,1,0,0,0
True,23091765,15999.99,0,9523.109,0.13610351,3.9735854,4.9148407,-0.014127731,-0.2146132,70.11997,-0.028886054,0.0015059893,-0.053689674,1.9691983,-0.07981947,0.012649983,0.44618112,0.38567373,0.48640576,0.43191248,0.098224245,0.11174465,0.11738506,0.116424106,219.50325,219.71773,220.1145,220.09608,0,0,0,0,0,0,0,0,0,0,0,0,0.0029217768,0.004835053,-0.011605507,0.0129170865,0.09826769,0.1118492,0.11795736,0.117138475,0.022065043,0.0146428235,0.028937452,0.022458605,164,6,231,2,0,-6819.3384,295.22458,4222.818,70.1203,752451.6,754.72485,107.704506,102.71533,108.37552,108.37552,-14.7,1,138.68092,0,0,7.340826,7.3408246,0,8,255,0,0,0,1,0,0,0
True,23091875,15999.99,0,9597.23,0.4883356,1.1721491,4.7658634,-0.008216858,-0.21180129,70.63814,-0.057135344,0.0026627278,-0.0589548,1.969418,-0.08058623,0.006404386,0.42605639,0.36161122,0.4105369,0.387975,0.08406894,0.08781787,0.13632245,0.13509262,220.90422,220.9585,222.0417,222.01526,0,0,0,0,0,0,0,0,0,0,0,0,0.002428369,0.0031685836,-0.003489892,0.0085355695,0.084104,0.087875016,0.13636713,0.135362,0.019596417,0.0116911605,0.019917205,0.017234769,164,6,231,2,0,-6812.6274,295.7865,4219.993,70.63846,752260.5,748.5311,107.80083,102.83359,108.523994,108.523994,-14.7,1,143.85623,0,0,7.444591,7.444589,0,8,255,0,0,0,1,0,255,0
True,23091984,15999.99,0,9689.305,0.4316907,1.2410479,4.9698753,-0.012329102,-0.21638829,71.20371,0.013634391,0.0047270544,-0.047213417,1.9698362,-0.08447915,-0.00022174045,0.39697132,0.32627988,0.4264767,0.3757477,0.11010978,0.120644934,0.15486236,0.15381522,223.05084,223.24246,224.12941,224.08418,0,0,0,0,0,0,0,0,0,0,0,0,0.0017764891,0.0036668987,-0.0048570973,0.008018069,0.11012411,0.12070065,0.1549385,0.15402406,0.016028658,0.0073571913,0.021812327,0.015781034,164,6,231,2,0,-6804.918,296.46292,4216.7456,71.20403,752430.8,741.6928,107.91691,102.97525,108.710785,108.710785,-14.7,1,149.80264,0,0,7.5629077,7.5629053,0,8,255,0,0,0,1,0,254,0
True,23092093,15999.99,0,9744.902,0.22753811,0.5230768,5.1007004,-0.011922836,-0.23787206,71.698875,-0.008157145,0.005375607,-0.052000128,1.9702784,-0.085260645,-0.006396301,0.40628868,0.33566877,0.4495929,0.36475313,0.09995618,0.09699509,0.13924704,0.13946769,224.44809,224.37733,225.40701,225.39401,0,0,0,0,0,0,0,0,0,0,0,0,0.0018289463,0.0032749097,-0.0069793593,0.0075794053,0.09997291,0.09705037,0.13942185,0.13967349,0.017171584,0.008508895,0.024560675,0.014473859,164,6,231,2,0,-6798.226,297.05673,4213.9233,71.69927,752398.8,737.39624,108.013756,103.09132,108.854904,108.854904,0,1,154.96547,0,0,7.664879,7.664876,0,8,255,0,0,0,1,0,253,0
True,23092203,15999.99,0,9817.651,0.21619165,2.6737096,4.6489086,-0.008575439,-0.23515624,72.24273,0.020274231,0.004927957,-0.07979182,1.9709722,-0.09031276,-0.013892919,0.4312403,0.35269624,0.46671426,0.39164045,0.12480696,0.11882827,0.124408,0.125533,226.5721,226.42712,226.86101,226.86023,0,0,0,0,0,0,0,0,0,0,0,0,0.0021843999,0.004765642,-0.007910451,0.009701759,0.12482607,0.11892379,0.12465924,0.12590735,0.020232309,0.010597594,0.026596278,0.01767056,164,6,231,2,0,-6790.4756,297.77142,4210.65,72.24311,752508.9,732.1384,108.140816,103.23742,109.0403,109.0403,0,1,160.94781,0,0,7.7821803,7.782177,0,8,255,0,0,0,1,0,251,0
True,23092328,15999.99,0,9878.776,0.90014935,1.2126269,4.3946257,0.0016975403,-0.2595152,72.79514,-0.06518145,0.0039430573,-0.07806234,1.9715604,-0.09088897,-0.021428553,0.37762505,0.29750693,0.39403042,0.33171356,0.081482254,0.085239984,0.11319042,0.11469262,227.60155,227.64273,228.4236,228.43364,0,0,0,0,0,0,0,0,0,0,0,0,0.001642105,0.0021794,-0.0019037374,0.0047648195,0.0814988,0.08526784,0.11320643,0.11479156,0.013655521,0.0038277209,0.01795471,0.010545693,164,6,231,2,0,-6782.569,298.51367,4207.3037,72.7956,752312.75,727.3012,108.2559,103.375595,109.20203,109.20203,0,1,167.053,0,0,7.9010153,7.9010115,0,8,255,0,0,0,1,0,248,0
True,23092421,15999.99,0,9961.972,0.550287,0.5992573,4.318306,0.009183884,-0.2470425,73.23735,0.0146004995,0.004376885,-0.046204843,1.9720038,-0.09236001,-0.027618147,0.34042943,0.2816974,0.3947031,0.32626444,0.106122084,0.10941196,0.15253767,0.15184854,229.35388,229.39078,230.45645,230.42871,0,0,0,0,0,0,0,0,0,0,0,0,-0.0009870097,0.00041547354,-0.004496261,0.002773926,0.10612667,0.10941275,0.15260392,0.15187387,0.009092867,0.0018884204,0.018034685,0.009897836,164,6,231,2,0,-6775.703,299.1795,4204.3926,73.23776,752403.75,721.3386,108.34808,103.49466,109.36171,109.36171,0,1,172.35582,0,0,8.003543,8.003539,0,8,255,0,0,0,1,0,246,0
True,23092531,15999.99,0,10020.326,0.40888095,0.5863919,4.218353,0.012428284,-0.27798706,73.693214,0.03001468,0.003765658,-0.027732732,1.9724568,-0.09360514,-0.03145475,0.32605386,0.27104804,0.36611933,0.30507272,0.12610155,0.14020182,0.13310632,0.12941737,231.12077,231.37392,231.53992,231.47017,0,0,0,0,0,0,0,0,0,0,0,0,-0.0024038763,-0.00028187197,-0.0032164666,0.0004209188,0.12612446,0.1402021,0.13314517,0.12941806,0.0073294677,0.0005821027,0.014636289,0.007378299,164,6,231,2,0,-6768.688,299.86374,4201.4146,73.69374,752502.1,717.317,108.445114,103.61714,109.51267,109.51267,0,1,177.77629,0,0,8.107681,8.1076765,0,8,255,0,0,0,1,0,243,0
True,23092656,15999.99,0,10069.682,0.30678952,1.3431729,4.8296328,0.02166748,-0.30000407,74.22525,-0.046753228,0.0035861707,-0.04919185,1.9729357,-0.09444723,-0.037350733,0.3663904,0.29775247,0.37065142,0.32100686,0.08784289,0.088259295,0.10647407,0.10664368,232.16049,232.14839,232.77188,232.76962,0,0,0,0,0,0,0,0,0,0,0,0,-0.002256258,-0.0011277922,-0.003516891,0.0006601007,0.08787186,0.0882665,0.10653214,0.10664572,0.012277406,0.0038578399,0.015175123,0.0092727505,164,6,231,2,0,-6760.5356,300.6533,4197.9487,74.22586,752377.1,713.6156,108.56355,103.759735,109.67836,109.67836,0,1,184.0764,0,0,8.2279215,8.227916,0,8,255,0,0,0,1,0,239,0
True,23092765,15999.99,0,10159.1,1.8747072,-1.2849567,4.2898426,-0.031822205,-0.26416656,74.64698,0.0025666081,0.079291254,-0.0067540943,1.9762365,-0.09215969,-0.04063254,0.30965036,0.27354708,0.36839494,0.34216595,0.095248364,0.10706385,0.15647168,0.17827106,233.75212,233.61273,235.11551,235.13702,0,0,0,0,0,0,0,0,0,0,0,0,0.08137885,0.084624715,0.0124493055,0.01895238,0.12527876,0.13646983,0.15696615,0.17927566,0.0053173117,0.0008886531,0.014906839,0.011788409,164,6,231,2,0,-6753.4414,301.35077,4194.9224,74.64745,752250.25,707.0757,108.6552,103.87635,109.82794,109.82794,0,1,189.55678,0,0,8.331963,8.331958,0,8,255,0,0,0,1,20,234,0
True,23092859,15999.99,0,10207.915,3.3673096,1.2508352,3.954421,-0.26075363,-0.27198339,75.08845,0.04123423,0.036013283,-0.03824801,1.9846109,-0.09458969,-0.043768458,0.36656386,0.31394827,0.42069212,0.3843542,0.12592769,0.14461975,0.1207636,0.13346277,235.54759,235.72334,235.7849,235.82927,0,0,0,0,0,0,0,0,0,0,0,0,0.029141767,0.03239245,0.031059153,0.044735633,0.12925565,0.14820305,0.1246937,0.14076075,0.012298685,0.0058445185,0.021124586,0.016804282,164,6,231,2,0,-6746.1694,302.06747,4191.7812,75.08939,752495.9,704.1304,108.77861,104.00813,109.998764,109.998764,0,1,195.18915,0,0,8.438178,8.438171,0,8,255,0,0,0,1,0,227,0
True,23092984,15999.99,0,10242.991,4.240938,2.3872705,4.514443,-0.08381653,-0.28798234,75.544044,-0.06812869,0.08438726,-0.0071179867,1.9882125,-0.0966771,-0.04727655,0.34103101,0.27791965,0.37648293,0.32111666,0.07376078,0.092643395,0.090082385,0.10533011,236.20844,236.17879,236.80087,236.70593,0,0,0,0,0,0,0,0,0,0,0,0,0.16713396,0.17701899,0.017890554,0.022827996,0.18268666,0.1997962,0.09184176,0.107775465,0.009166662,0.0014250167,0.015868444,0.0092858,164,6,231,2,0,-6738.7134,302.80743,4188.518,75.54463,752384.06,701.552,108.90669,104.15044,110.15949,110.15949,0,1,201.05147,0,0,8.546677,8.546671,0,8,255,0,0,0,1,127,223,0
True,23093093,15999.99,0,9816.278,12.926495,3.5508237,-7.809767,-0.53804207,-0.09835764,74.802826,0.016362082,0.35854676,0.07686217,2.01393,-0.09862673,-0.045400783,0.4179964,0.3643712,0.37810805,0.32409644,-0.2979329,-0.51063395,-0.1298994,-0.12738283,224.38806,223.45016,228.87608,227.53862,0,0,0,0,0,0,0,0,0,0,0,0,0.5107422,0.5910945,0.10563991,0.12325743,0.5912881,0.7811144,0.1674325,0.17725343,0.018607728,0.012029719,0.016061656,0.009640079,164,6,231,2,0,-6730.9443,303.62326,4185.0024,74.80482,751437.2,731.6471,109.22577,104.43613,110.35997,110.35997,0,1,207.1235,0,0,8.660111,8.660106,0,8,255,255,0,0,1,127,221,129
True,23093203,15999.99,0,9456.934,21.735455,3.5633354,-19.349804,-2.1235733,0.31891617,72.26959,0.0001451429,0.56165206,0.07869277,2.0695112,-0.096351266,-0.03965897,0.47784448,0.39963356,0.4067801,0.34532678,-0.36581087,-0.110624194,-0.1831772,-0.20028542,215.73631,214.80905,221.26355,218.92938,0,0,0,0,0,0,0,0,0,0,0,0,0.69452876,0.8700305,0.3237714,0.3939925,0.7849763,0.87703526,0.37199703,0.44197777,0.025949076,0.016355224,0.01947055,0.012164209,164,6,231,2,0,-6723.5015,304.45197,4181.388,72.30149,514163.88,517.49677,109.85797,104.93017,110.64002,110.64002,0,1,213.01718,0,0,8.773192,8.773186,0,8,113,255,0,0,1,127,221,129
True,23093312,15999.99,0,9681.388,28.371422,3.5018237,-10.780355,-3.9018288,0.40665358,70.612686,-0.10958859,0.69269687,0.09808087,2.1378205,-0.09773378,-0.03831346,0.56800896,0.4138531,0.4488898,0.29230818,0.12079892,0.34444427,0.11884122,0.32029295,222.66953,223.33653,223.78873,224.01683,0,0,0,0,0,0,0,0,0,0,0,0,0.90543634,1.1494924,0.52988017,0.67326295,0.913459,1.1999894,0.5430435,0.7455673,0.037009224,0.018099483,0.02447708,0.0058606863,164,6,231,2,0,-6716.5913,305.26358,4177.709,70.72157,752698.94,742.8516,110.64322,105.53906,111.088554,111.088554,-14.7,1,218.75214,0,0,8.883732,8.883725,0,8,255,0,0,0,1,127,225,0
True,23093421,15999.99,0,9776.38,28.609219,2.3362005,1.9502611,-5.5611,0.1269815,70.66335,-0.053832397,0.5568846,0.048059333,2.2073836,-0.103614904,-0.037919506,0.5155112,0.36097506,0.4903611,0.34208435,0.21185498,0.55270076,0.20106202,0.42670348,223.95105,226.97893,225.5246,226.37839,0,0,0,0,0,0,0,0,0,0,0,0,1.1792103,1.4367443,0.7240588,0.9102654,1.19809,1.539387,0.7514567,1.0053153,0.030569516,0.011613127,0.02940771,0.011778705,164,6,231,2,0,-6709.869,306.10526,4173.7163,70.88195,668558.8,653.02783,112.19075,107.011505,111.77955,111.77955,-14.7,1,224.3246,0,0,8.994799,8.994791,0,8,255,0,0,0,1,127,229,0
True,23093531,15999.99,0,9836.731,26.142147,0.7923995,3.193223,-6.4674854,0.034733534,70.66574,0.027442157,0.40303892,0.048850767,2.2641516,-0.105828345,-0.03546269,0.46856108,0.31014127,0.46903706,0.32843283,0.2791625,0.77072686,0.27531418,0.47373214,224.53966,230.45816,226.52498,227.47327,0,0,0,0,0,0,0,0,0,0,0,0,1.4041042,1.7085826,0.8737051,1.0412338,1.4315866,1.8743731,0.9160559,1.1439362,0.024810314,0.0053775273,0.026872441,0.010155641,164,6,231,2,0,-6703.268,306.97406,4169.375,70.96108,582519.25,565.6526,114.80123,109.31006,112.58577,112.58577,-14.7,1,230.06143,0,0,9.106855,9.106848,0,8,255,0,0,0,1,127,236,0
True,23093640,15999.99,0,9775.468,28.673443,2.402587,3.882597,-6.64942,0.016118765,70.71645,-0.0658705,0.4073701,0.037115403,2.3113148,-0.107753,-0.036439106,0.51391697,0.314373,0.49190676,0.2779291,0.20833701,0.523097,0.19548789,0.40668154,223.6306,226.90236,225.4584,226.59447,0,0,0,0,0,0,0,0,0,0,0,0,1.283744,1.5949669,0.78348917,1.0371603,1.3005395,1.6785558,0.807509,1.1140428,0.030373953,0.0058966167,0.029591478,0.004151121,164,6,231,2,0,-6696.8667,307.836,4164.781,71.02837,680892.3,665.1039,118.16089,112.13512,113.39917,113.39917,-14.7,1,235.66217,0,0,9.218511,9.218502,0,8,255,0,0,0,1,127,244,0
True,23093765,15999.99,0,9804.76,29.728264,2.2682872,4.118971,-6.107731,-0.030413866,70.837006,-0.019449018,0.29276034,0.10562671,2.3511956,-0.11210093,-0.033129428,0.46426934,0.3360915,0.49524298,0.31394535,0.27699894,0.6578861,0.2182013,0.35935885,224.8411,229.5115,225.737,226.3348,0,0,0,0,0,0,0,0,0,0,0,0,1.3702309,1.7042074,0.7573988,0.91229147,1.3979489,1.8267832,0.7882035,0.98051745,0.024283864,0.008560747,0.029988132,0.008433189,164,6,231,2,0,-6690.782,308.71967,4159.942,71.09983,657240.9,640.2585,121.1792,114.66998,114.26305,114.26305,-14.7,1,241.20638,0,0,9.328624,9.328616,0,8,255,0,0,0,1,127,253,0
True,23093875,15999.99,0,8963.536,21.323559,-1.9898307,-6.3578043,-5.513035,-0.006949663,70.01561,0.0138013465,0.23150514,0.022385038,2.3743813,-0.106690966,-0.032609314,0.4332275,0.23978451,0.41301912,0.24276808,-0.26899227,-0.9339101,-0.29887605,-0.42281568,206.49901,199.23587,210.33867,208.15767,0,0,0,0,0,0,0,0,0,0,0,0,1.2059072,1.4600953,0.72797227,0.88975227,1.235544,1.7332243,0.7869375,0.98510516,0.020476073,-0.0032528825,0.020212326,-2.9262155E-05,164,6,231,2,0,-6684.8,309.59863,4154.8066,70.23232,749371.8,797.40735,123.581345,116.61003,114.857994,114.857994,-14.7,1,246.7997,0,0,9.440562,9.440554,0,8,255,255,0,0,1,127,8,129
True,23093984,15999.99,0,8633.474,25.673021,1.2440212,-15.534199,-4.414898,0.3347516,67.832924,0.017059946,0.2694327,0.01076706,2.4030895,-0.10494092,-0.031432148,0.52276593,0.36588,0.4855763,0.27556744,-0.58267015,-0.34134746,-0.4131825,-0.62844074,195.0378,202.36191,201.5498,197.96397,0,0,0,0,0,0,0,0,0,0,0,0,1.1175321,1.3219527,0.6190176,0.7608954,1.2603105,1.3653121,0.7442463,0.9868635,0.03145942,0.0122147985,0.028838836,0.0038703382,164,6,231,2,0,-6679.1035,310.46252,4149.531,67.977264,302899.97,334.41135,125.75722,118.49364,115.48239,115.48239,-14.7,1,252.31445,0,0,9.553693,9.553684,0,8,0,255,0,0,1,127,22,129
True,23094093,15999.99,0,8488.786,25.038805,1.9861761,-25.533775,-4.1834297,0.5969095,63.65767,0.038525898,0.24868737,0.022035317,2.435839,-0.10284235,-0.029891128,0.5661663,0.42523265,0.5004845,0.32917732,-0.07120606,-0.27943784,-0.043700967,0.017195761,195.67021,191.15456,197.52724,197.40854,0,0,0,0,0,0,0,0,0,0,0,0,1.1897743,1.4156307,0.6309119,0.7655448,1.1919032,1.4429469,0.6324236,0.7657379,0.03678319,0.019495372,0.030611314,0.010244157,164,6,231,2,0,-6674.052,311.25534,4144.5757,63.797775,632848.06,713.3921,127.68617,120.02524,116.10338,116.10338,-14.7,1,257.1691,0,0,9.663619,9.6636095,0,8,255,40,0,0,1,127,37,236
True,23094203,15999.99,0,8829.811,21.646336,-1.4394066,-1.1610727,-4.2058754,0.14235687,63.756462,-0.09950946,0.38414416,0.041764773,2.4696615,-0.10435567,-0.03225116,0.46327305,0.32637265,0.36093098,0.2272943,0.22965991,0.56459993,0.22079131,0.4246339,202.24094,205.49274,203.4566,204.44148,0,0,0,0,0,0,0,0,0,0,0,0,1.1212405,1.3549128,0.6182852,0.76082057,1.1445191,1.4678426,0.6565252,0.87129897,0.024161652,0.007368572,0.014019433,-0.0018689819,164,6,231,2,0,-6669.3384,312.0161,4139.575,63.89519,655847.6,709.19135,128.72424,121.030914,116.54237,116.54237,-14.7,1,262.008,0,0,9.772019,9.77201,0,8,255,0,0,0,1,127,53,0
True,23094312,15999.99,0,8681.433,22.147581,-0.6571993,3.2061348,-3.6805058,-0.071992874,64.04008,-0.022008713,0.26494703,0.0528346,2.5017595,-0.10687426,-0.030710848,0.38289306,0.26054764,0.39638105,0.24293196,-0.019622194,0.14762497,0.14059664,0.26255906,197.34238,198.38966,201.724,202.10498,0,0,0,0,0,0,0,0,0,0,0,0,1.0735224,1.2906413,0.54899037,0.6686338,1.0737017,1.2990566,0.5667079,0.7183373,0.014301728,-0.0007059425,0.018234178,-9.778887E-06,164,6,231,2,0,-6664.7666,312.7729,4134.327,64.14579,750071.3,822.90924,129.65054,122.06495,117.08765,117.08765,-14.7,1,266.93546,0,0,9.881352,9.881342,0,8,255,94,0,0,1,127,70,209
True,23094421,15999.99,0,8088.588,21.142769,-1.1964052,-10.658476,-2.835701,0.08571601,62.55606,0.051934846,0.22146934,0.043519758,2.5246499,-0.10244778,-0.028085848,0.33645314,0.21427372,0.35648468,0.22877206,-0.060703974,-0.66370994,-0.28512797,-0.418489,192.36652,177.54514,189.01276,186.58827,0,0,0,0,0,0,0,0,0,0,0,0,0.9762646,1.1420602,0.4684729,0.5529775,0.97815007,1.3209134,0.54842025,0.6934819,0.008605111,-0.006382197,0.0134908,-0.001693286,164,6,231,2,0,-6660.4727,313.50497,4129.003,62.620354,590101.6,694.8423,130.26233,122.50868,117.475464,117.475464,-14.7,1,271.3626,0,0,9.989867,9.989857,0,8,87,255,0,0,1,127,88,129
True,23094531,15999.99,0,7699.3545,19.026688,-1.5873643,-15.613227,-2.7107716,0.24657416,60.55818,0.0855017,0.3067747,0.010601703,2.5569904,-0.09700874,-0.02668739,0.39428717,0.26134187,0.31433117,0.17116411,-0.1256235,-0.8134964,-0.4997633,-0.70439917,185.01007,173.82272,178.68066,175.21059,0,0,0,0,0,0,0,0,0,0,0,0,1.007239,1.16552,0.4888727,0.561855,1.0150427,1.421342,0.6991136,0.9010323,0.015699401,-0.0006085187,0.008479059,-0.008542445,164,6,231,2,0,-6656.388,314.2144,4123.572,60.61932,261720.83,324.32214,130.49779,122.77762,117.82736,117.82736,-14.7,1,276.12415,0,0,10.100805,10.100798,0,7,149,249,0,0,1,127,107,132
True,23094640,15999.99,0,8344.376,19.235321,-2.412483,-3.3567643,-3.088602,0.15782261,59.993484,-0.067192934,0.40392858,0.20292777,2.596773,-0.09270093,-0.024392294,0.16436183,0.28234738,0.19179304,0.17552263,0.10569936,0.36616316,0.5622366,0.4446428,188.32108,190.55609,196.10869,192.8478,0,0,0,0,0,0,0,0,0.120000005,0,0.120000005,0,0.8058678,1.1399287,0.68173176,0.6334404,0.8127701,1.197294,0.88366747,0.77392113,-0.012504708,0.0019681528,-0.0060898177,-0.008024249,164,6,231,2,0,-6652.64,314.85925,4118.2534,60.073143,650092.1,745.2755,130.36281,123.10719,118.12236,118.12236,-14.7,1,280.70483,0,0,10.209543,10.209536,0,7,255,0,0,0,1,127,127,0
True,23094765,15999.99,0,7728.1,24.279888,-0.32460147,-5.180032,-2.9569855,-0.11945534,59.325924,-0.07260239,0.39913368,0.15630527,2.6404805,-0.09862991,-0.005557639,0.41540346,0.21493715,0.21993862,0.2885537,-0.48561415,0,-0.33522838,-0.44971153,173.00945,183.69037,182.26938,174.82126,0,0,0,0,0,0,0,0,0.120000005,0.120000005,0.120000005,0,0.9991577,0,0.52337813,0.5753631,1.1109173,0,0.62153256,0.7302624,0.01828966,-0.006300818,-0.0027435161,0.005414311,164,6,231,2,0,-6649.0737,315.49628,4112.7305,59.39969,755138.2,935.948,130.17796,123.32477,118.32689,118.32689,-9.9226265,1,285.3577,0,0,10.319664,10.319658,0,7,255,255,0,0,1,127,127,129
True,23094875,15999.99,0,7584.3545,11.737306,-2.344058,-26.111347,-3.695507,0.13139868,55.371506,0.06789824,0.32378137,-0.06740237,2.6745124,-0.08916722,-0.020745585,0.20922765,0.1068503,0.23294383,0.106845036,0.74865776,-0.3737288,0.30328032,0,183.44672,160.94942,176.799,176.71555,0,0,0,0,0,0,0,0,0.120000005,0.120000005,0.120000005,0,1.2274723,1.3953382,0.83930314,0,1.437768,1.4445213,0.8924174,0,-0.00700118,-0.019559441,-0.0011972934,-0.016189506,164,6,231,2,0,-6645.821,316.11118,4107.3066,55.49484,631982.25,789.41656,129.87273,122.66145,118.45297,118.45297,-11.76,1,289.00262,0,0,10.432097,10.432091,0,7,255,255,0,0,1,127,127,129
True,23094984,15999.99,0,7601.1553,18.221899,-0.9368831,-10.688632,-3.8968124,0.19005728,54.180237,-0.02010856,0.4058878,-0.06355473,2.7149217,-0.085871145,-0.0135802645,0.18928625,0.054411907,0.1530251,0.0469076,0.12608612,0.8918107,0.27709323,0,170.52875,178.70796,174.38794,177.70438,0,0,0,0,0,0,0,0,0.120000005,0.120000005,0.120000005,0,0.966676,1.5994502,0.69466895,0,0.9748642,1.8312749,0.7478941,0,-0.009447321,-0.02599187,-0.010699037,-0.023315623,164,6,231,2,0,-6642.822,316.65863,4102.0615,54.320526,754329.75,950.27515,129.96664,122.61794,118.48082,118.48082,-11.76,1,293.21698,0,0,10.543027,10.543021,0,7,255,0,0,0,1,127,127,0
True,23095093,15999.99,0,8228.5625,15.428913,1.7511697,-0.13972569,-4.988575,0.02932787,54.12413,-0.026120141,0.5031499,-0.35924575,2.7603395,-0.08996752,-0.024081249,0.4186103,0.08416652,0.4677321,0.072023086,0.23732339,0.46985823,0.3063483,0.3896336,183.96063,194.94096,190.19235,190.50854,0,0,0,0,0,0,0,0,0.120000005,0.120000005,0.120000005,0.120000005,0.52045405,0.5367096,0.33316422,0.36335853,0.57200944,0.713319,0.452601,0.5327699,0.018683031,-0.02234198,0.02671729,-0.020329578,164,6,231,2,0,-6640.365,317.13797,4097.4062,54.353546,754534.7,878.2006,129.75607,122.36145,118.59265,118.59265,-7.2391567,1,296.91187,0,0,10.640313,10.640307,0,7,255,0,0,0,1,127,127,0
True,23095203,15999.99,0,8834.076,9.320882,-2.4104042,1.5762265,-6.6469345,0.19874501,54.038986,0.15187457,0.47321922,-0.44295835,2.8072228,-0.07636473,-0.057139628,0.23946781,0.065776914,0.43674827,0.079010904,0.40882915,0,0.5981209,0,192.1057,208.78793,206.68637,205.21463,0,0,0,0,0,0,0,0,0.120000005,0,0.120000005,0,0.6029652,0,0.45518982,0,0.72849727,0,0.7516292,0,-0.0032917298,-0.024597766,0.023033544,-0.019498779,164,6,231,2,0,-6637.864,317.64313,4092.4116,54.44661,752257.75,815.48737,129.35669,121.88495,118.7225,118.7225,-6.774868,1,299.89145,0,0,10.743394,10.743386,0,7,255,0,0,0,1,127,127,0
True,23095312,15999.99,0,8376.422,18.141764,5.752339,5.9205313,-8.334989,0.05102563,54.125797,-0.15182513,0.5999785,-0.36783227,2.8757138,-0.07586111,-0.10536971,0.8623283,0.3142636,0.74119085,0.32915267,0.32372198,0.62832314,0.31240207,0.4339989,187.5391,202.02492,190.18619,195.27121,0,0,0,0,0,0,0,0,0.120000005,0.120000005,0.120000005,0.120000005,0.7131638,0.73593163,0.48292136,0.5762766,0.78319764,0.9676701,0.5751592,0.721422,0.07311231,0.005883202,0.059229515,0.010241225,164,6,231,2,0,-6635.025,318.20834,4086.4197,54.763824,630608.2,717.8535,129.1048,121.54643,118.88234,118.88234,-10.651112,1,304.47495,0,0,10.865365,10.865358,0,7,255,0,0,0,1,127,127,0
True,23095406,15999.99,0,8536.223,15.246947,2.9369254,3.8736436,-9.778989,0.12977147,53.891716,0.11192591,0.5258672,-0.24660398,2.932213,-0.06838684,-0.13982035,0.34948722,0.26118854,0.7318444,0.28308937,0.60375494,0.5347051,0.34976622,0.5449779,202.87714,196.07184,192.52911,199.22554,0,0,0,0,0,0,0,0,0.120000005,0.120000005,0.120000005,0.120000005,0.8484934,0.8712661,0.5848707,0.6580082,1.0413746,1.0222594,0.6814765,0.85438615,0.010203954,-0.0006273277,0.05811829,0.004764639,164,6,231,2,0,-6632.856,318.74216,4081.2927,54.771915,578941.06,648.5321,128.82,121.35953,119.08824,119.08824,-11.76,1,308.36224,0,0,10.967441,10.967435,0,7,255,0,0,0,1,127,127,0
True,23095515,15999.99,0,8705.929,14.178625,0.70913064,2.7562244,-11.641386,0.17594767,53.411396,-0.030278012,0.61400384,-0.18799084,2.9961982,-0.05735736,-0.15223223,0.4263332,0.19833362,0.43578404,0.2775677,0.4349296,0.6998446,0.55390126,0.6413512,191.1075,203.33513,202.35579,203.91393,0,0,0,0,0,0,0,0,0.120000005,0.120000005,0.120000005,0.120000005,0.92153823,0.99527043,0.7631778,0.77092206,1.0190175,1.2166946,0.9429989,1.0028222,0.019630373,-0.008337513,0.022918902,0.0041081533,164,6,231,2,0,-6630.6147,319.321,4075.5432,54.66562,515202.44,565.61664,128.63391,121.227325,119.29001,119.29001,-11.76,1,312.69308,0,0,11.080693,11.080688,0,7,255,0,0,0,1,127,127,0
True,23095640,15999.99,0,8673.49,16.348,1.6002448,-0.8918962,-14.013563,-0.03604293,52.32519,-0.012777381,0.65249217,0.012249459,3.076635,-0.05037792,-0.15776315,0.31248167,0.42954284,0.24205948,0.1607339,0.71357,0.7691496,0.53188366,0.62645435,203.0006,202.46268,199.85078,198.15004,0,0,0,0,0,0,0,0,0.120000005,0.120000005,0.120000005,0.120000005,1.0900123,1.1371698,0.8871891,0.92067546,1.3028082,1.3728607,1.0344104,1.1135925,0.005664617,0.020024087,-0.000113509595,-0.009782519,164,6,231,2,0,-6628.3057,319.93634,4069.0613,54.169247,473248.78,520.8994,128.63449,121.314804,119.52942,119.52942,-11.76,1,317.03217,0,0,11.207393,11.207388,0,7,255,0,0,0,1,112,127,0
True,23095734,15999.99,0,8414.072,19.870893,4.8313413,4.709623,-15.305862,0.34776282,51.753933,-0.05791622,0.68123174,-0.13551709,3.139649,-0.045024548,-0.15225248,0.5502632,0.48191434,0.6617689,0.31093603,0.39465466,0.63134867,0.48650643,0.61376095,187.43628,197.14415,195.86745,194.96474,0,0,0,0,0,0,0,0,0.120000005,0.120000005,0.120000005,0.120000005,0.88298476,0.91755384,0.9828968,0.98817086,0.9671682,1.1137801,1.0967108,1.1632645,0.034832418,0.02644831,0.04978683,0.008075401,164,6,231,2,0,-6626.7573,320.39505,4064.1836,53.970917,567918.2,643.79175,128.54446,121.27234,119.82758,119.82758,-11.76,1,320.63345,0,0,11.302408,11.302403,0,7,255,0,0,0,1,0,127,0
True,23095859,15999.99,0,8344.507,16.97734,4.140025,5.900451,-17.375694,0.14205575,50.842407,-0.082495585,0.6329034,-0.038004577,-3.05777,-0.037765212,-0.17037852,0.4185607,0.20472781,0.4694465,0.25896236,0.3690313,0.42628244,0.5541492,0.62620455,191.96281,192.14197,193.60873,192.52985,0,0,0,0,0,0,0,0,0.120000005,0.120000005,0.120000005,0.120000005,-0.14103483,0.07716084,1.1205342,1.1347709,0.39506322,0.43320954,1.2500713,1.2960854,0.018676952,-0.00755316,0.026921123,0.0018961169,164,6,231,2,0,-6625.004,321.0217,4057.6423,53.72974,651104.9,745.915,128.2088,121.01516,120.204666,120.204666,-11.446917,1,325.42728,0,0,11.429094,11.42909,0,7,255,0,0,0,1,-127,127,0
True,23095984,15999.99,0,8655.842,7.7406654,-0.86807585,4.495246,-19.691963,0.07306695,50.11745,-0.001798261,0.4311696,-0.017271329,-2.998962,-0.024184646,-0.17267823,0.21751869,0.107197896,0.32358438,0.19425884,0.48076054,0.34829476,0.78361505,0.8926289,194.84317,188.16887,202.43724,206.44986,0,0,0,0,0,0,0,0,0.120000005,0.120000005,0.120000005,0.120000005,-0.3800365,-0.04096525,1.291686,1.3123124,0.61282825,0.35069558,1.5107963,1.58712,-0.00598415,-0.019516803,0.009579197,-0.0057966523,164,6,231,2,0,-6623.629,321.5563,4051.848,53.84735,562102.4,620.2565,127.7854,120.61802,120.7719,120.7719,-11.76,1,329.74353,0,0,11.540332,11.540326,0,7,255,0,0,0,1,-127,127,0
True,23096093,15999.99,0,8525.661,6.3713036,1.1842749,4.441841,-20.662663,-0.25929618,49.99287,0.017234283,0.16522345,0.103498556,-2.965978,-0.021636667,-0.19276707,0.46498972,0.22412932,0.45478675,0.3326535,0.46434718,0.4608868,0.7710737,0.6318309,198.13104,194.51945,200.35611,194.05325,0,0,0,0,0,0,0,0,0.120000005,0.120000005,0.120000005,0.120000005,0.00063612586,0.23315807,1.3356535,1.2317007,0.46434763,0.51650685,1.5422467,1.3843037,0.024372227,-0.0051732473,0.025178187,0.010657445,164,6,231,2,0,-6622.318,322.08633,4045.9836,54.095287,596184.25,667.2484,127.482254,120.258446,121.52013,121.52013,-11.76,1,334.01157,0,0,11.652057,11.65205,0,7,255,0,0,0,1,0,127,0
True,23096187,15999.99,0,8396.792,15.402674,4.38967,6.800273,-19.545368,0.46476173,50.463665,0.06028186,0.10456321,-0.017619982,-2.9554908,-0.016752988,-0.18966518,0.38671696,0.2081713,0.3252546,0.2562284,0.517021,0.6474194,0.5484899,0.7180104,189.84253,196.0129,191.25688,197.65596,0,0,0,0,0,0,0,0,0.120000005,0.120000005,0.120000005,0.120000005,1.1951092,1.1855389,1.1597437,1.2594593,1.3021508,1.3507977,1.2829056,1.4497505,0.014770791,-0.0071307607,0.009777769,0.0015710667,164,6,231,2,0,-6621.3564,322.54074,4041.085,54.118557,581020.06,660.6433,127.2986,120.072784,122.137985,122.137985,-11.76,1,337.56183,0,0,11.744612,11.744606,0,7,255,0,0,0,1,0,127,0
True,23096312,15999.99,0,8866.41,12.729987,-1.3354814,3.3406966,-18.766254,0.3770008,50.486893,-0.00055587385,0.12624504,0.07720041,-2.942286,-0.011490477,-0.18615131,0.102965936,0.10361027,0.18737966,0.13726164,0.5160104,0,0.82695854,0.82761383,195.39265,210.36957,205.38205,206.18703,0,0,0,0,0,0,0,0,0.120000005,0,0.120000005,0.120000005,0.74286145,0,1.2170976,1.190544,0.9044943,0,1.4714575,1.4499447,-0.020035923,-0.019956885,-0.006614536,-0.0125731975,164,6,231,2,0,-6620.3105,323.10413,4034.709,53.863163,612495.6,660.6856,127.6741,120.25859,122.77048,122.77048,-11.76,1,342.1666,0,0,11.864785,11.86478,0,7,255,0,0,0,1,-63,127,0
True,23096421,15999.99,0,10097.0205,5.221114,-9.653093,0.08677089,-18.826836,-0.510061,50.22882,0.086587384,0.093986,-0.11017695,-2.9336567,-0.0012338762,-0.19660152,0.025614576,0.028487314,0.05130569,0.054326326,0,0,0,0,231.76872,231.90216,234.04707,233.78511,0,0,0,0,0,0,0,0,0,0,0,0,0,0,0,0,0,0,0,0,-0.029524334,-0.029171947,-0.022792723,-0.022433592,164,6,231,2,0,-6619.4834,323.5144,4029.108,53.64368,754608.75,715.8895,127.211914,119.755646,122.921104,122.921104,-2.947916,1,346.18723,0,0,11.970401,11.970395,0,7,255,0,0,0,1,-127,127,0
True,23096531,15999.99,0,9027.162,6.4617033,2.900213,10.778967,-18.435205,-0.5116813,51.280823,-0.33004904,-0.028995203,0.14334905,-2.9247987,-0.009683998,-0.1892693,0.39914006,0.60073256,0.2201238,0.23115674,0.37825677,0.31400383,0.85671055,1.0586884,192.62198,188.93814,212.74701,223.35197,0,0,0,0,0,0,0,0,0.120000005,0.120000005,0.120000005,0.120000005,-0.25633162,0.005839599,1.0594413,1.1289526,0.45692897,0.31405813,1.3624862,1.5476935,0.016294688,0.041023307,-0.0027214997,-0.0014097653,164,6,231,2,0,-6618.706,323.842,4023.462,54.49625,505673.8,531.0149,127.088425,119.67297,122.97307,122.97307,-11.76,1,350.22787,0,0,12.076269,12.0762615,0,7,255,0,0,0,1,-11,127,0
True,23096625,15999.99,0,8316.261,18.252344,8.368106,8.080837,-15.351112,-0.24257827,52.518364,-0.12653746,-0.21141465,0.028053172,-2.9363616,-0.035788774,-0.17532317,0.5149894,0.4851509,0.66291076,0.71027833,0.29904348,0.5995194,0.4471243,0.46990073,181.6368,201.46419,191.11583,193.55534,0,0,0,0,0,0,0,0,0.120000005,0.120000005,0.120000005,0.120000005,0.85598344,0.94423646,0.86095566,0.89960647,0.9067164,1.1184838,0.97013646,1.0149376,0.0305055,0.026845329,0.049922585,0.05555424,164,6,231,2,0,-6618.115,324.2659,4017.6265,54.71648,633837.1,725.2669,127.023315,119.56723,123.69502,123.69502,-11.76,1,354.38474,0,0,12.183796,12.18379,0,7,255,0,0,0,1,0,127,0
True,23096750,15999.99,0,8851.225,12.980498,-0.7824652,2.2064521,-11.74836,0.44211054,53.15991,0.104533195,-0.27001947,0.13653055,-2.9705184,-0.031096242,-0.16494116,0.07570875,0.08739524,0.1617808,0.17419788,0.5367823,0.62665087,0.62831575,0,196.84656,203.50085,204.5618,208.8551,0,0,0,0,0,0,0,0,0.120000005,0.120000005,0.120000005,0,0.8549509,0.85932046,0.7036963,0,1.0094931,1.0635426,0.9433818,0,-0.023379464,-0.021945924,-0.00965805,-0.008181751,164,6,231,2,0,-6617.7524,324.79117,4010.985,54.44442,648304.8,700.0257,126.94996,119.58374,123.83296,123.83296,-11.256154,1,359.078,0,0,12.306173,12.306169,0,7,255,0,0,0,1,127,127,0
True,23096859,15999.99,0,9141.525,9.725738,-3.269333,3.026314,-9.620387,-0.022810698,53.627346,0.010682974,-0.19138668,0.04194267,-2.9908488,-0.035275534,-0.16398934,0.06612203,0.023874205,0.08751565,0.064725876,0.7526703,0.74394655,0.7034393,0,209.56369,210.40387,212.19559,211.27061,0,0,0,0,0,0,0,0,0.120000005,0.120000005,0.120000005,0,0.81174904,0.8233645,0.590675,0,1.107,1.1096781,0.91854435,0,-0.024555432,-0.029737819,-0.018487627,-0.021197163,164,6,231,2,0,-6617.558,325.185,4005.213,54.483433,532937.75,557.8525,126.91928,119.5513,123.746704,123.746704,-11.76,1,363.1423,0,0,12.412479,12.412475,0,7,255,0,0,0,1,127,127,0
True,23096968,15999.99,0,8810.458,12.021008,-0.64611256,3.8312752,-7.559676,-0.61476374,54.12274,-0.12328726,-0.12701863,0.28591967,-3.003271,-0.048241198,-0.1578531,0.16587803,0.10605054,0.18071549,0.20445561,0.6371943,0.60533404,0.5531174,0.53060186,205.48958,202.99994,203.35951,202.75252,0,0,0,0,0,0,0,0,0.120000005,0.120000005,0.120000005,0.120000005,0.69391906,0.6840272,0.4589693,0.45036066,0.94209355,0.9134126,0.71874315,0.69596195,-0.012318723,-0.019657545,-0.007406857,-0.004584331,164,6,231,2,0,-6617.484,325.5409,3999.3174,54.651608,498229.16,540.6387,127.008354,119.615005,123.7226,123.7226,-11.46622,1,367.27585,0,0,12.520844,12.520841,0,7,255,0,0,0,1,127,127,0
True,23097078,15999.99,0,8741.869,10.998,-0.28042644,3.9723105,-5.6865,-0.8114641,54.628887,0.10404478,-0.141867,-0.08158079,-3.0152075,-0.053872827,-0.14854486,0.058931906,0.03642721,0.32982478,0.27545258,0,0.54633987,0.34741548,0.5960449,205.10646,204.43077,193.03531,207.62865,0,0,0,0,0,0,0,0,0.120000005,0.120000005,0.120000005,0.120000005,0,0.3668067,0.33019054,0.34621274,0,0.65805346,0.4792946,0.68929875,-0.025437418,-0.028197989,0.010321137,0.003856685,164,6,231,2,0,-6617.5464,325.8764,3993.364,54.930046,754232.75,826.0523,126.9756,119.597305,123.75466,123.75466,-7.247525,1,371.43024,0,0,12.629668,12.629665,0,7,255,0,0,0,1,0,127,0
True,23097187,15999.99,0,8860.32,8.019464,-1.7164174,3.9474156,-3.865181,-0.4643762,55.177635,0.042784486,-0.18001498,0.31609824,-3.0334542,-0.048293136,-0.13205172,0.05745271,0.119233795,0.24738544,0.26980928,0,0.4150184,0.4088561,0.60877293,213.47456,198.91689,196.06229,211.48813,0,0,0,0,0,0,0,0,0,0.120000005,0.120000005,0.120000005,0,0.24517888,0.20373483,0.2187411,0,0.48203006,0.45680544,0.6468788,-0.025618866,-0.018040404,0.0005197078,0.0031857379,164,6,231,2,0,-6617.728,326.18658,3987.3264,55.314796,745720,801.9884,126.86501,119.55562,123.72638,123.72638,-6.2885675,1,375.63138,0,0,12.739424,12.739421,0,7,255,0,0,0,1,0,127,0
True,23097296,15999.99,0,8563.31,7.258441,3.1216161,3.5408418,-1.934001,0.16144419,55.656067,-0.011427231,-0.173453,0.4459259,-3.054161,-0.047993686,-0.09672237,0.15342914,0.41748238,0.12083905,0.37967226,0.4569976,0.21048376,0.35363784,0.44969836,201.49365,187.11563,196.70816,202.56628,0,0,0,0,0,0,0,0,0.120000005,0.120000005,0.120000005,0.120000005,0.122282624,0.12320611,0.091184996,0.098892614,0.47307488,0.2438917,0.36520463,0.46044368,-0.013845783,0.018544674,-0.014525721,0.01624763,164,6,231,2,0,-6618.016,326.5014,3981.097,55.68989,748809.06,834.7519,126.74077,119.53688,123.79041,123.79041,-5.099843,1,379.95392,0,0,12.851859,12.851856,0,7,255,0,0,0,1,0,127,0
True,23097406,15999.99,0,8628.869,3.8233798,2.9652448,4.3751593,-0.6503351,0.003009081,56.214626,0.033878814,-0.15638217,0.5178341,-3.069729,-0.05826757,-0.05625196,0.21746269,0.52971536,0.2820277,0.5740555,0.37862495,0.2786979,0.3682186,0.42275938,198.03943,193.31721,199.55257,202.90182,0,0,0,0,0,0,0,0,0.120000005,0.120000005,0.120000005,0.120000005,0.042986225,0.044549562,0.019952754,0.031404022,0.3810573,0.28223604,0.3687588,0.42392418,-0.0059910193,0.032311887,0.004638415,0.039358355,164,6,231,2,0,-6618.3706,326.85593,3974.9321,56.218384,755066.75,838.5395,126.68297,119.50672,123.81937,123.81937,-4.5276937,1,384.22595,0,0,12.962341,12.9623375,0,7,255,0,0,0,1,0,127,0
True,23097531,15999.99,0,8507.023,0.6682086,0.38747317,5.7777348,0.24619174,-0.08648133,56.852627,-0.13376401,-0.1552119,0.23632255,-3.084542,-0.06057726,-0.030711863,0.19558781,0.42108274,0.18051869,0.32784164,0.28159508,0.9084411,2.9007592,0.3427754,192.87311,190.32628,218.9573,179.23715,0,0,0,0,0,0,0,0,0.120000005,0.120000005,0.120000005,0.120000005,-0.0032440403,-0.017849952,-0.10657852,-0.06833533,0.28161377,0.9086165,2.9027164,0.34952065,-0.008674331,0.018986318,-0.0074302554,0.0100853555,164,6,231,2,0,-6618.756,327.22433,3968.6565,56.85322,0,0,126.630005,119.488495,123.8013,123.8013,-11.76,1,388.56805,0,0,13.073855,13.073853,0,7,255,0,0,0,1,0,127,0
True,23097640,15999.99,0,8016.8926,-3.635927,-1.4280438,6.340336,0.470196,-0.68902135,57.721912,0.008625795,-0.1286583,0.23756288,-3.0977058,-0.07022799,-0.011817772,0.12514743,0.15368482,0.17319106,0.34305856,0,0.41813564,0.11384305,0.3521877,193.51352,184.65514,180.06714,185.96568,0,0,0,0,0,0,0,0,0,0.120000005,0.120000005,0.120000005,0,-0.4014228,-0.0987911,-0.105217,0,0.5796358,0.1507313,0.36756876,-0.017314998,-0.0138144195,-0.0083014555,0.011894535,164,6,231,2,0,-6619.12,327.60587,3962.254,57.72794,715019.9,850.06946,126.51828,119.51387,124.104355,124.104355,-6.1812096,1,393.0073,0,0,13.185815,13.18581,0,7,255,0,0,0,1,-127,127,0
True,23097734,15999.99,0,8326.642,-4.4434805,-6.3842835,5.2958965,0.8336009,-0.71575737,58.22177,0.17364271,-0.17302506,0.18972446,-3.1122177,-0.056620087,0.0018726212,0.035972044,0.1678342,0.09144036,0.334829,0,0.3543355,0.9993109,0.3993496,201.06404,185.78154,194.66393,188.72081,0,0,0,0,0,0,0,0,0.120000005,0,0.120000005,0,0,-0.747926,-0.23069924,-0.185991,0,0.8276152,1.0255947,0.44053692,-0.028253822,-0.012078766,-0.018021008,0.010916099,164,6,231,2,0,-6619.4233,327.93326,3955.9172,58.23214,664437.9,763.5447,126.262085,119.68767,124.08534,124.08534,-8.15101,1,397.40543,0,0,13.295392,13.295389,0,7,255,0,0,0,1,-127,127,0
True,23097859,15999.99,0,8135.53,-14.850816,-0.5754876,7.3881507,1.1644933,-0.27420878,59.127975,0.022703202,-0.41272697,-0.043839,3.1342041,-0.04777939,0.0066159577,0.22006412,0.27118567,0.30060208,0.33568943,0.4849781,0.18137468,0.31993705,0.15812048,189.60995,187.15375,187.7425,187.49353,0,0,0,0,0,0,0,0,0,0,0,0,-0.8358414,-0.7055173,-0.2865194,-0.24616611,0.9663512,0.7284583,0.42948005,0.2925745,-0.005671911,0.0005989857,0.0068467706,0.011018399,164,6,231,2,0,-6619.6333,328.23895,3948.7668,59.140076,752732.9,884.1288,126.46029,120.05416,124.143555,124.143555,0,1,402.38016,0,0,13.417308,13.417306,0,7,255,0,0,0,1,-127,105,0
True,23097968,15999.99,0,8330.633,-11.970667,-4.026524,5.409153,2.3454018,-0.19525552,59.571404,0.060820643,-0.43047258,-0.014468651,3.0925589,-0.038666964,0.007598295,0.1444092,0.20895217,0.22438607,0.29982334,0.61492765,0.29320714,0.6158667,0.40356055,192.72627,190.14912,193.35172,192.4643,0,0,0,0,0,0,0,0,0,0,0,0,-1.0666878,-0.93822396,-0.53152263,-0.47423783,1.2312428,0.9829723,0.8135159,0.6227059,-0.014952229,-0.0070349723,-0.0022147484,0.0067541823,164,6,231,2,0,-6619.636,328.4929,3942.4443,59.617874,545627.56,625.24316,126.934784,120.38843,124.25595,124.25595,0,1,406.8009,0,0,13.523833,13.523831,0,7,255,0,0,0,1,-127,85,0
True,23098078,15999.99,0,8362.404,-16.321667,-2.6860764,5.34966,3.383286,-0.2176888,59.960964,0.06323217,-0.4140966,0.015478877,3.0457652,-0.034634076,0.007127897,0.13405384,0.25768065,0.19091246,0.29598364,0.9469945,0.2815103,0.47508246,0.26704937,198.175,190.92668,192.7316,191.97815,0,0,0,0,0,0,0,0,0,0,0,0,-1.3525591,-1.1243995,-0.69126517,-0.60169834,1.6511253,1.1591041,0.8387794,0.658298,-0.016222483,-0.0010576248,-0.0061945133,0.0062976703,164,6,231,2,0,-6619.4834,328.6994,3936.2788,60.05673,547318.6,625.2301,127.79695,120.93289,124.46199,124.46199,0,1,411.12918,0,0,13.626925,13.626924,0,7,255,0,0,0,1,-127,68,0
True,23098187,15999.99,0,8390.725,-17.145836,-2.8574562,5.5648394,4.103643,-0.18522811,60.329144,0.0043159523,-0.40367356,0.004073425,3.0034616,-0.027927374,0.011150318,0.12349258,0.28176433,0.14263535,0.28658798,0.45721963,0.16013475,0.56578463,0.30000436,193.58005,191.08434,195.27592,193.84923,0,0,0,0,0,0,0,0,0,0,0,0,-0.6371017,-0.54250133,-0.8329884,-0.682423,0.7841864,0.56564194,1.0069667,0.7454554,-0.017517993,0.001896631,-0.011934303,0.005180601,164,6,231,2,0,-6619.136,328.87872,3929.8752,60.468834,655371.4,745.81116,128.98785,121.81763,124.71521,124.71521,0,1,415.64294,0,0,13.733415,13.733412,0,7,255,0,0,0,1,0,54,0
True,23098296,15999.99,0,8475.744,-22.383574,-0.9753003,6.5900536,3.3359408,-0.18800783,60.93708,0.063737065,-0.14816935,0.01761522,2.9710443,-0.027168807,0.01052199,0.17108056,0.3417998,0.20705947,0.37541848,0.8816588,0.16736089,0.4131561,0.25157323,202.28825,192.21791,195.52602,194.32721,0,0,0,0,0,0,0,0,0,0,0,0,-0.6086833,-0.51135653,-0.62022746,-0.5213164,1.0713625,0.53804755,0.74523824,0.5788436,-0.011680549,0.009260964,-0.004274752,0.015741888,164,6,231,2,0,-6618.482,329.05685,3922.968,61.02861,631222,711.5276,129.0805,122.09999,125.01172,125.01172,0,1,420.54788,0,0,13.847634,13.847631,0,7,255,0,0,0,1,0,44,0
True,23098406,15999.99,0,8505.154,-17.148129,-2.911904,6.8518267,1.9508028,-0.26125097,61.639378,0.023844007,0.015954852,0.06318348,2.9644985,-0.021877063,0.014913481,0.11589885,0.30867657,0.16893344,0.339388,0.52862203,0.14927731,0.32992706,0.24085785,199.60498,193.8129,196.78172,195.75323,0,0,0,0,0,0,0,0,0,0,0,0,-0.3694011,-0.31690538,-0.34057733,-0.29809344,0.6449019,0.35030377,0.47417802,0.3832391,-0.018449489,0.0051978603,-0.008807655,0.011458129,164,6,231,2,0,-6617.5986,329.19876,3916.277,61.67079,731337,821.1743,129.16432,122.27101,125.18592,125.18592,-2.8790712,1,425.32788,0,0,13.957704,13.9577,0,7,255,0,0,0,1,0,39,0
True,23098515,15999.99,0,8526.394,-10.558872,-0.88358915,7.2954473,0.3796072,-0.3563378,62.480892,0.008689145,0.08128739,0.09036545,2.971171,-0.021924064,0.024372153,0.15597035,0.3272985,0.22617397,0.42078918,0.17994514,0.16509956,0.17220198,0.16611703,197.05757,196.47838,197.17621,196.80643,0,0,0,0,0,0,0,0,0,0,0,0,-0.091132104,-0.0881847,-0.051448572,-0.04045454,0.201706,0.1871748,0.17972334,0.17097203,-0.013534062,0.0074821413,-0.0020021796,0.021136127,164,6,231,2,0,-6616.5415,329.3131,3909.5881,62.48306,752522,843.102,129.13853,122.33919,125.26199,125.26199,-7.2486267,1,430.1259,0,0,14.066784,14.066781,0,7,255,0,0,0,1,0,38,0
True,23098640,15999.99,0,8642.255,-0.9093702,-1.7067894,7.14797,-0.19497108,-0.36541712,63.3815,-0.016877484,0.036500122,0.1019986,2.9793031,-0.018085184,0.03616531,0.16908851,0.28393435,0.20352784,0.3224103,0.12332549,0.14124519,0.17135912,0.18361181,198.90302,199.02177,199.9272,199.92758,0,0,0,0,0,0,0,0,0,0,0,0,0.016986096,0.018747201,0.030457122,0.033592213,0.12448978,0.14248389,0.17404477,0.1866594,-0.011924904,0.0021628216,-0.004694637,0.0094396025,164,6,231,2,0,-6615.222,329.42432,3901.6897,63.382847,752326.56,831.3941,129.04608,122.328125,125.31261,125.31261,-11.588606,1,435.8,0,0,14.194041,14.194039,0,7,255,0,0,0,1,0,38,0
True,23098750,15999.99,0,8753.692,0.7943074,-0.87630504,6.82376,-0.13077259,-0.31577587,64.13709,0.019586902,-0.0031104465,0.048381932,2.980646,-0.016812785,0.04314762,0.2334683,0.31481037,0.32335377,0.41869807,0.13762419,0.13423838,0.19247891,0.20162004,201.38051,201.352,202.53503,202.6506,0,0,0,0,0,0,0,0,0,0,0,0,0.018580163,0.020365797,0.015931776,0.02665377,0.13887274,0.13577448,0.19313714,0.20337419,-0.0040276684,0.0059502684,0.009551782,0.020887509,164,6,231,2,0,-6614.0747,329.51212,3894.749,64.138,752449.7,821.0269,128.9751,122.31604,125.370895,125.370895,0,1,440.78445,0,0,14.304364,14.304362,0,7,255,0,0,0,1,0,37,0
True,23098859,15999.99,0,8859.868,0.13710326,-1.142463,6.770246,-0.05158329,-0.30421793,64.893555,0.03083022,-0.011114821,0.04352149,2.9799035,-0.014975349,0.04874354,0.24839604,0.29248425,0.29536048,0.33546045,0.1427763,0.15310869,0.19947372,0.19642805,203.79935,204.01382,204.99892,204.99538,0,0,0,0,0,0,0,0,0,0,0,0,-0.0027549602,-0.0006852172,0.0037790646,0.0060920366,0.14280286,0.15311022,0.19950952,0.19652249,-0.0021965355,0.0032116063,0.0062235855,0.010991175,164,6,231,2,0,-6612.9087,329.59393,3887.6301,64.894295,752512.6,811.2749,128.90787,122.308655,125.42637,125.42637,0,1,445.8952,0,0,14.416161,14.41616,0,7,255,0,0,0,1,0,37,0
True,23098968,15999.99,0,8942.901,-4.7965765,0.07226862,6.6229615,0.04519272,-0.3058796,65.61528,-0.0035570282,-0.214211,-0.017748127,2.9697165,-0.014640617,0.05029585,0.29279965,0.34233397,0.32625613,0.38319188,0.18885723,0.12496445,0.18632114,0.12916149,206.32063,206.2851,206.62999,206.68181,0,0,0,0,0,0,0,0,0,0,0,0,-0.39729288,-0.36359656,-0.044975225,-0.036349155,0.43989623,0.38447183,0.19167247,0.13417882,0.0032502934,0.0093264915,0.009896848,0.016666085,164,6,231,2,0,-6611.7397,329.66382,3880.6223,65.616005,752499.9,803.7961,128.88818,122.35603,125.476616,125.476616,0,1,450.92917,0,0,14.525014,14.525013,0,7,255,0,0,0,1,-127,37,0
True,23099078,15999.99,0,9108.17,-10.727849,-1.2660043,5.882016,1.136837,-0.25853682,66.21173,0.06785104,-0.40896136,-0.024790633,2.9331958,-0.010293621,0.047284998,0.265222,0.31725,0.366348,0.41124314,0.55329585,0.18755803,0.28245127,0.1709444,213.3862,209.41313,209.72179,209.83899,0,0,0,0,0,0,0,0,0,0,0,0,-0.81064,-0.68030274,-0.24900591,-0.2206412,0.981465,0.70568395,0.3765404,0.27911383,-0.00013255328,0.006249532,0.014663473,0.020001173,164,6,231,2,0,-6610.4478,329.72928,3873.558,66.22199,752643.1,789.49414,129.0094,122.5815,125.544945,125.544945,0,1,456.00732,0,0,14.633934,14.633934,0,7,255,0,0,0,1,-127,39,0
True,23099187,15999.99,0,9191.752,-15.05147,-2.7534814,6.629733,2.397295,-0.25054127,66.810036,0.017228443,-0.31203005,-0.0031428495,2.8896472,-0.002801869,0.04693022,0.18619004,0.2948339,0.2461679,0.3430693,0.29457098,0.11972189,0.38696647,0.21739091,211.6898,210.37578,213.3833,212.52289,0,0,0,0,0,0,0,0,0,0,0,0,-0.31572026,-0.27564535,-0.44760364,-0.38018763,0.43180013,0.30052236,0.5916858,0.43795142,-0.009827122,0.0034998283,0.00037495047,0.011895806,164,6,231,2,0,-6608.987,329.75558,3866.4663,66.8535,752287.4,781.57654,129.13419,122.79346,125.685455,125.685455,0,1,461.13297,0,0,14.742774,14.742774,0,7,255,0,0,0,1,0,45,0
True,23099296,15999.99,0,9226.146,-19.053871,0.62314075,6.473896,1.6201305,-0.2759061,67.48297,0.028265523,-0.123821095,0.013945025,2.868016,-0.0039843335,0.046221215,0.20015104,0.35545167,0.27071932,0.44244975,0.32097432,0.13909031,0.21245064,0.13909583,214.51721,212.12558,213.17863,212.69992,0,0,0,0,0,0,0,0,0,0,0,0,-0.53873533,-0.4745991,-0.2675061,-0.22501777,0.6271047,0.49456084,0.3416062,0.26453856,-0.008114576,0.010935593,0.0032939315,0.023711406,164,6,231,2,0,-6607.299,329.76077,3859.3738,67.50298,752597.2,779.30225,129.18683,122.98248,125.836296,125.836296,0,1,466.28458,0,0,14.8512745,14.851274,0,7,255,0,0,0,1,-127,56,0
True,23099406,15999.99,0,8601.703,-15.655753,-1.6106031,-9.057459,1.283392,-0.04766673,66.335884,0.08844741,-0.2609188,0.025848705,2.8488142,0.003659169,0.048921637,0.21882302,0.37525722,0.21525045,0.38217887,-0.20566761,-0.57220155,-0.33608434,-0.2809868,200.83914,193.2467,198.67712,200.36787,0,0,0,0,0,0,0,0,0,0,0,0,-0.7950064,-0.69023305,-0.2618938,-0.23098755,0.8211786,0.89656913,0.42607635,0.36374277,-0.0058241524,0.013365068,-0.0033009052,0.016545646,164,6,231,2,0,-6605.407,329.75217,3852.3123,66.34831,433010.6,480.12518,129.37454,123.31032,125.89668,125.89668,-13.871366,1,471.54514,0,0,14.960181,14.96018,0,7,138,255,0,0,1,-127,69,129
True,23099531,15999.99,0,8910.889,-20.164991,2.2117684,-3.801948,1.6845722,0.1671874,65.57298,-0.10085836,-0.3598451,0.006911006,2.8084536,0.005850545,0.049734153,0.30871546,0.45603868,0.21101962,0.37574714,0.10674897,0.060127802,0.18658885,0.083684035,204.60422,205.5704,206.14041,206.20782,0,0,0,0,0,0,0,0,0,0,0,0,-0.17858961,-0.16114226,-0.3229505,-0.265212,0.2080615,0.17199472,0.3729778,0.27810147,0.0052026287,0.023274235,-0.00380392,0.015780967,164,6,231,2,0,-6603.3223,329.72217,3845.3145,65.594826,621891.4,666.5988,129.62163,123.71668,125.97368,125.97368,-14.7,1,476.70157,0,0,15.071363,15.0713625,0,7,255,0,0,0,1,0,85,109
True,23099625,15999.99,0,9012.333,-19.134518,2.7856216,4.787731,1.3156395,-0.0982517,66.16642,-0.08158282,-0.11641276,0.020486463,2.7848086,-0.0017570506,0.049445406,0.32632148,0.4745377,0.2688444,0.41230553,0.18127435,0.091966055,0.173693,0.120348506,208.26353,207.39114,208.39642,208.20781,0,0,0,0,0,0,0,0,0,0,0,0,-0.18708174,-0.16489564,-0.2167551,-0.18645176,0.26049945,0.18880765,0.27776256,0.22191896,0.007362295,0.025543444,0.0030710176,0.020127483,164,6,231,2,0,-6601.249,329.72165,3839.1296,66.179565,752340.3,797.2577,129.62715,123.82205,126.09623,126.09623,-14.7,1,481.2921,0,0,15.170379,15.170378,0,7,255,0,0,0,1,0,100,115
True,23099750,15999.99,0,9097.83,-14.727235,3.7041993,6.141498,0.34874344,-0.20463574,66.92651,-0.1308791,-0.18695761,-0.0012996383,2.7739618,-0.008857072,0.052527327,0.34522504,0.49042854,0.3223557,0.43330333,0.115091205,0.07080534,0.1612066,0.10760627,209.38348,209.52748,210.45792,210.47002,0,0,0,0,0,0,0,0,0,0,0,0,-0.35873547,-0.3147653,-0.085086845,-0.066746235,0.37674543,0.32263073,0.18228368,0.1266261,0.009681128,0.027492717,0.009433113,0.022623964,164,6,231,2,0,-6598.531,329.74646,3831.6753,66.927734,752253.44,789.74963,129.66977,123.966385,126.19011,126.19011,-14.7,1,487.49756,0,0,15.28958,15.289579,0,7,255,0,0,0,1,-127,110,118
True,23099859,15999.99,0,8961.605,-17.90592,4.6865234,3.8369558,0.8337784,-0.12514877,67.30128,-0.033146508,-0.46893084,0.069497295,2.7349248,-0.015252002,0.057895724,0.34970373,0.5312243,0.38528407,0.5530542,-0.17488094,-0.12982959,0.01908124,-0.037348956,203.22903,206.30568,207.64268,208.66112,0,0,0,0,0,0,0,0,0,0,0,0,-0.65514374,-0.55638736,-0.21429703,-0.15515676,0.67808306,0.57133406,0.21514486,0.15958874,0.010230511,0.03249698,0.01691483,0.036861457,164,6,231,2,0,-6595.633,329.8345,3824.3792,67.30655,398110.28,423.5689,129.84833,124.32439,126.28784,126.28784,-14.7,1,493.0681,0,0,15.406398,15.406398,0,7,37,99,0,0,1,-127,116,65
True,23099953,15999.99,0,7292.963,-37.262608,4.729743,-112.56821,0.99502563,0.15566206,56.545147,-0.055921733,-0.6405362,0.0097661475,2.6788685,-0.014302718,0.062494677,0.3528257,0.4803749,0.30388212,0.4436162,-0.47541156,-0.20443535,-0.50104934,-0.3189444,167.41724,173.7844,163.94128,170.56274,0,0,0,0,0,0,0,0,0,0,0,0,-0.6693642,-0.59820306,-0.33160624,-0.27675667,0.82101434,0.63217145,0.60084367,0.42227927,0.010613475,0.026259474,0.0072367415,0.02385009,164,6,231,2,0,-6593.1587,329.93518,3818.8418,56.55411,5856.0605,7.6474485,130.13583,124.751,126.41327,126.41327,-14.7,1,497.365,0,0,15.504751,15.50475,0,7,0,255,0,0,1,-127,115,221
True,23100078,15999.99,0,6361.053,-32.563126,6.254059,-49.648895,2.0373116,0.43446696,50.226433,-0.033670004,-0.8138548,-0.04194224,2.591861,-0.015946917,0.055030607,0.49995783,0.635409,0.3367582,0.48836634,-0.23140563,-0.48206198,-1.0639127,-0.24974062,149.9316,148.50839,137.99396,153.31337,0,0,0,0,0,0,0,0,0,0,0,0,-0.891604,-0.7294613,-0.6259555,-0.50406724,0.921144,0.8743555,1.2343948,0.5625426,0.028661638,0.04527694,0.011145465,0.02917055,164,6,231,2,0,-6590.4,330.0546,3813.5525,50.26961,-52183.836,-78.08196,130.52406,125.3175,126.65318,126.65318,-14.7,1,502.53653,0,0,15.619935,15.619937,0,7,0,255,0,0,1,-127,112,175
True,23100187,15999.99,0,5903.504,-26.484943,3.5494127,-21.93553,4.3685226,0.5205822,47.652386,-0.0673006,-0.95683473,-0.05101863,2.487706,-0.016012572,0.052810837,0.44762206,0.61484516,0.27685282,0.44554546,-0.9530567,-0.16687448,-1.2826896,-0.48133522,133.52428,146.89546,126.38934,142.10031,0,0,0,0,0,0,0,0,0,0,0,0,-1.3593545,-1.1600274,-1.2431179,-0.9947411,1.6601691,1.1719687,1.7862347,1.1050762,0.022241801,0.04275445,0.004023161,0.024079464,164,6,231,2,0,-6587.4927,330.2205,3808.6624,47.85504,-45004.63,-72.51813,131.68716,126.41823,127.95137,127.95137,-14.7,1,506.57193,0,0,15.73603,15.736032,0,7,0,255,0,0,1,-127,107,134
True,23100296,15999.99,0,5545.502,-22.91613,1.5505841,-15.013229,6.986021,0.4741236,45.3302,-0.03104572,-1.0065856,-0.014504583,2.3790128,-0.015625803,0.050486628,0.386487,0.5475319,0.22775273,0.39040098,-0.72486,-0.27656928,-1.8444808,-0.57531273,127.1986,137.26308,116.04238,135.59909,0,0,0,0,0,0,0,0,0,0,0,0,-2.0788264,-1.7154056,-1.9579339,-1.6641095,2.201577,1.7375578,2.6899097,1.7607514,0.014742583,0.034497373,-0.0018144771,0.017523196,164,6,231,2,0,-6584.62,330.39236,3804.358,45.867813,-39059.79,-67.3796,134.79237,129.8954,131.26193,131.26193,-14.7,1,510.24857,0,0,15.84668,15.846681,0,7,0,255,0,0,1,-127,101,129
True,23100421,15999.99,0,5449.8315,-22.573732,2.03121,-9.4527855,10.241631,0.35280848,42.82631,-0.100653015,-1.1212082,0.008880795,2.2444503,-0.016083369,0.05284046,0.34852913,0.53455436,0.19730417,0.3535419,-0.32594916,-0.23218143,-0.7885784,-0.3991219,124.3877,130.24403,119.96767,130.18129,0,0,0,0,0,0,0,0,0,0,0,0,-2.8738132,-2.3830855,-2.8622532,-2.3787644,2.8922389,2.3943694,2.9688969,2.4120154,0.010086428,0.032905467,-0.005434584,0.013140928,164,6,231,2,0,-6581.2744,330.58356,3799.8286,44.03531,264318.38,462.1274,141.0574,138.12596,137.61288,137.61288,-12.875245,1,515.06036,0,0,15.9721,15.972103,0,7,106,255,0,0,1,-127,92,129
True,23100515,15999.99,0,5900.5127,-23.744137,3.3739676,-3.9002876,12.312492,0.40728366,41.22797,-0.02874171,-1.0224912,0.0074697956,2.1428087,-0.017427418,0.054791898,0.34798163,0.54027086,0.26946148,0.43315694,1.1715807,0.53076136,0.97055215,0.44522768,135.66504,134.72398,136.80922,136.89249,0,0,0,0,0,0,0,0,0,0,0,0,-3.644933,-3.042425,-3.3262274,-2.6995728,3.828595,3.0883746,3.4649332,2.736041,0.010019269,0.033606693,0.0031443872,0.02260656,164,6,231,2,0,-6578.709,330.74197,3796.6943,43.029163,307923.2,498.82306,147.70026,146.35397,144.41212,144.41212,0,1,517.90826,0,0,16.065454,16.065456,0,7,255,0,0,0,1,-127,85,0
True,23100640,15999.99,0,5795.03,-19.20002,0.8779756,2.9300275,15.078164,0.32508552,39.77731,-0.0366144,-0.99600524,0.0071849376,2.0147307,-0.013838387,0.058441345,0.30307847,0.47415715,0.23968373,0.3814701,1.6918483,0.71070987,1.2022537,0.68174624,134.74316,131.17511,134.33853,134.27397,0,0,0,0,0,0,0,0,0,0,0,0,-4.5213456,-3.8631225,-4.1088295,-3.632641,4.8275166,3.9279542,4.281109,3.69606,0.004511159,0.025496766,-0.00039596856,0.01646138,164,6,231,2,0,-6575.019,330.97177,3792.6426,42.540466,130956.7,215.64421,156.85461,157.97575,153.9901,153.9901,0,1,521.7865,0,0,16.193657,16.193657,0,7,255,0,0,0,1,-127,74,0
True,23100765,15999.99,0,5689.016,-20.119915,2.0114026,3.8491,17.096527,0.31310642,38.352684,-0.12516771,-1.0344646,0.0010769293,1.9065267,-0.013066443,0.060113616,0.29859856,0.4647187,0.22119355,0.3597373,1.31275,0.5497495,1.518808,0.84754497,130.66025,128.80856,132.41924,132.13637,0,0,0,0,0,0,0,0,0,0,0,0,-4.086475,-3.3302794,-4.8178782,-4.0459437,4.2921543,3.3753495,5.0516067,4.133763,0.0039616264,0.024338983,-0.0025943145,0.013877515,164,6,231,2,0,-6571.7153,331.16666,3789.3713,41.99187,174340.92,292.4102,164.59799,167.59702,161.69528,161.69528,0,1,525.0881,0,0,16.303757,16.303759,0,7,255,0,0,0,1,0,64,0
True,23100859,15999.99,0,5589.9595,-20.749933,2.9336605,4.930633,18.666866,0.27995455,36.97907,-0.02763993,-0.9320519,-0.010915961,1.809932,-0.017033963,0.06070852,0.26661125,0.39681718,0.26548994,0.41508284,1.0414149,0.40189,1.641495,0.90561146,129.6509,128.5956,129.36029,128.80656,0,0,0,0,0,0,0,0,0,0,0,0,-3.3369668,-2.83005,-5.252164,-4.2062526,3.4956963,2.8584433,5.502702,4.3026376,3.78564E-05,0.016009748,0.0026721992,0.020457689,164,6,231,2,0,-6568.747,331.35403,3786.722,41.42441,241143.84,412.2085,170.66861,175.673,168.90802,168.90802,0,1,528.3952,0,0,16.39929,16.399294,0,7,255,0,0,0,1,127,55,0
True,23100968,15999.99,0,5631.139,-12.0542,-0.04098153,4.459621,20.926273,0.21110475,35.45619,-0.028219702,-0.81588435,0.0318756,1.7087958,-0.011877373,0.061554264,0.30783162,0.41536626,0.2650472,0.37174696,0.26131243,0.28993687,2.2768517,1.7364097,126.73906,129.92723,131.1299,130.8223,0,0,0,0,0,0,0,0,0,0,0,0,-0.37634,1.4123025,-5.7047825,-5.346411,0.45816588,1.4417565,6.142361,5.6213193,0.0050942115,0.0182851,0.0026195608,0.01530537,164,6,231,2,0,-6565.1436,331.57758,3783.7832,41.171528,242910.55,411.62497,172.7074,175.94624,176.27452,176.27452,0,1,531.6452,0,0,16.51215,16.512152,0,7,255,0,0,0,1,127,43,0
True,23101078,15999.99,0,5605.961,-13.268781,1.6582679,5.8547697,22.328674,0.14651203,34.26925,-0.061079994,-0.65169656,-0.016587226,1.6298028,-0.012884813,0.065288454,0.2933811,0.41282332,0.30019933,0.37501183,1.2004044,0.3897187,2.5133862,1.8905002,131.11458,128.16902,129.62793,129.11687,0,0,0,0,0,0,0,0,0,0,0,0,-3.2477925,-2.148237,-6.0412197,-5.431622,3.4625318,2.183301,6.5431986,5.751218,0.0033216178,0.017973166,0.0067988858,0.015693538,164,6,231,2,0,-6561.482,331.8006,3780.9573,40.901985,286484.3,488.0328,171.8408,174.94066,184.05722,184.05722,0,1,534.89294,0,0,16.624924,16.624924,0,7,255,0,0,0,1,-127,30,0
True,23101187,15999.99,0,5545.6357,-17.858662,1.8189601,6.83778,22.645014,0.20149875,33.340706,-0.042096816,-0.6417895,0.0014828771,1.5575513,-0.013225583,0.06619746,0.26692823,0.39499295,0.33426702,0.45040768,3.153969,1.9462456,2.9468803,2.27333,128.89995,124.02235,129.06227,128.82957,0,0,0,0,0,0,0,0,0,0,0,0,-6.4743314,-5.5747013,-6.550425,-5.8067164,7.2017,5.904673,7.1827693,6.2358627,7.674098E-05,0.015785977,0.010849286,0.024657547,164,6,231,2,0,-6557.7476,332.0371,3778.36,40.304344,291436.78,501.78632,178.5611,182.8312,191.19221,191.19221,0,1,538.1085,0,0,16.73711,16.737108,0,7,255,0,0,0,1,-127,16,0
True,23101296,15999.99,0,5427.198,-18.116268,1.9796567,6.2384644,22.984962,0.20817089,32.3273,-0.027553268,-0.613629,0.004107343,1.487036,-0.014658088,0.06698827,0.24156089,0.3620874,0.32674524,0.44217232,4.0644817,2.615691,3.0310287,2.1369019,127.8005,122.11818,126.071976,125.01522,0,0,0,0,0,0,0,0,0,0,0,0,-7.3179026,-6.459185,-6.769181,-5.573139,8.370885,6.9687095,7.4168015,5.9687715,-0.003034979,0.011749573,0.009954996,0.023678422,164,6,231,2,0,-6554.092,332.27167,3776.0796,39.666183,295953.3,520.64343,185.107,191.35179,197.8064,197.8064,-5.879999,1,541.1901,0,0,16.845043,16.845043,0,7,255,0,0,0,1,-127,3,0
True,23101406,15999.99,0,5451.355,-15.50627,0.51841974,5.7019806,23.303339,0.2347194,31.421192,0.022747666,-0.5573944,-0.00693653,1.4259887,-0.010643314,0.06822538,0.2468126,0.34631625,0.2899713,0.4025493,4.609711,3.1572974,3.436642,2.772596,128.02321,122.57733,126.44644,125.99114,0,0,0,0,0,0,0,0,0,0,0,0,-7.6571107,-6.850971,-6.866001,-6.204474,8.937605,7.543496,7.678052,6.7957916,-0.002390772,0.009814981,0.0055828504,0.018967543,164,6,231,2,0,-6550.506,332.50223,3774.0654,39.120228,305360.25,534.99695,191.04686,198.34888,203.49205,203.49205,-5.879999,1,544.0337,0,0,16.949667,16.949669,0,7,255,0,0,0,1,-127,246,0
True,23101546,15999.99,0,5357.1377,-16.2688,0.9491242,6.049621,23.485607,0.26783156,30.44108,-0.08960146,-0.6289591,0.017360684,1.3528774,-0.006151517,0.06960834,0.22224537,0.3655439,0.21232948,0.32200876,4.611927,2.6229818,3.8828287,2.972885,125.42229,116.77528,125.56476,124.71203,0,0,0,0,0,0,0,0,0,0,0,0,-7.462905,-6.292684,-7.181476,-6.2523966,8.77296,6.8174706,8.163943,6.9231863,-0.0054043457,0.012173571,-0.003648188,0.009391867,164,6,231,2,0,-6545.998,332.7742,3771.7986,38.44873,305288.66,543.4598,198.33401,207.25052,209.964,209.964,-5.879999,1,547.5565,0,0,17.079945,17.079945,0,7,255,0,0,0,1,-127,230,0
True,23101640,15999.99,0,5101.7856,-35.332237,2.1865382,13.092748,21.228481,0.26784593,30.43172,-0.034449715,-0.5682629,0.00036501233,1.2924461,-0.0093289595,0.07022547,0.25072402,0.39635095,0.2619719,0.42320698,3.8598223,2.50614,3.0043654,2.2268634,119.51088,114.27781,118.44622,118.205055,0,0,0,0,0,0,0,0,0,0,0,0,-7.0504355,-6.363178,-6.6037145,-5.671813,8.03784,6.838916,7.255016,6.0933065,-0.0019109733,0.015952557,0.0022539273,0.021423586,164,6,231,2,0,-6542.558,332.97122,3770.4602,37.105385,299212.28,560.06995,203.62653,214.04988,215.28317,215.28317,-5.879999,1,550.16876,0,0,17.17829,17.178291,0,7,255,0,0,0,1,-101,222,0
True,23101765,15999.99,0,5210.2134,-19.185038,0.06489527,7.6387405,21.191189,0.2362485,29.780888,-0.0085432585,-0.5432107,-0.007903368,1.2291945,-0.006043783,0.070213586,0.2040999,0.32119218,0.25579962,0.36939672,1.995609,0.8970104,3.6131768,2.849117,122.21776,117.731346,120.779274,120.25707,0,0,0,0,0,0,0,0,0,0,0,0,-3.864206,-2.9085,-6.793471,-6.014995,4.3490853,3.0436819,7.6945624,6.6556463,-0.0076301843,0.0067331046,0.0015200898,0.015025947,164,6,231,2,0,-6538.565,333.19806,3769.2153,36.551655,304036.78,557.5448,208.54465,220.18712,220.42378,220.42378,-5.879999,1,553.14136,0,0,17.292122,17.292124,0,7,255,0,0,0,1,127,215,0
True,23101875,15999.99,0,5085.2275,-15.602055,0.36136854,8.448205,21.102898,0.09655455,29.517372,-0.041127488,-0.41703206,0.02744211,1.1700271,-0.006839677,0.071563624,0.2508702,0.37591663,0.2572399,0.34053123,0.46445125,0.5788951,3.1506522,2.8454456,115.04336,117.179886,118.094505,118.22502,0,0,0,0,0,0,0,0,0,0,0,0,-0.73678714,1.5266144,-6.31818,-6.0919313,0.87095934,1.6326883,7.0601707,6.7237034,-0.0018930398,0.013445955,0.0016913302,0.011594053,164,6,231,2,0,-6534.5283,333.4076,3768.2112,36.285213,311883.12,585.3026,209.58517,218.24165,225.31224,225.31224,-5.879999,1,555.7423,0,0,17.406559,17.40656,0,7,255,0,0,0,1,127,209,0
True,23101984,15999.99,0,5055.42,-13.860083,0.21768117,5.628323,20.414646,0.0121616125,29.436537,-0.031286776,-0.13448644,0.021112446,1.1382996,-0.0065844688,0.074716136,0.24419746,0.32066977,0.29663843,0.34986284,0.5590599,0.23164566,3.2279692,2.9495368,115.49862,113.3108,118.24841,117.79602,0,0,0,0,0,0,0,0,0,0,0,0,-1.4139665,0.25555253,-6.280976,-6.0626674,1.5204767,0.34491566,7.0619006,6.7420845,-0.0027115606,0.006669022,0.006375525,0.012703512,164,6,231,2,0,-6530.428,333.61212,3767.4072,35.82272,334418.94,631.6226,205.29227,215.74475,230.67023,230.67023,-5.879999,1,558.6866,0,0,17.52267,17.522673,0,7,255,0,0,0,1,0,204,0
True,23102093,15999.99,0,5065.793,-25.964302,1.4678686,9.617665,18.058517,0.060378015,30.242447,-0.059815794,-0.085625716,-0.017894814,1.1278082,-0.011667484,0.072765954,0.21041468,0.28538945,0.25298014,0.35568115,1.8501978,1.2462505,2.8866217,2.2498143,118.31957,114.9858,117.886375,116.464745,0,0,0,0,0,0,0,0,0,0,0,0,-3.9639413,-3.4917724,-5.7900896,-4.8219037,4.3744783,3.7075078,6.4697547,5.3209414,-0.0068555735,0.0023413114,0.001184877,0.013395265,164,6,231,2,0,-6526.9097,333.78638,3766.9346,35.223843,326726.97,615.96497,206.56161,214.24103,234.64972,234.64972,-5.879999,1,561.2034,0,0,17.622896,17.622898,0,7,255,0,0,0,1,0,201,0
True,23102203,15999.99,0,4991.749,-19.233137,1.0130494,9.109278,16.171541,0.056489855,31.089466,-0.030396717,-0.02474788,0.008852836,1.1197668,-0.016202373,0.070375785,0.25193223,0.36967582,0.25594297,0.3845434,1.0541713,0.14792758,2.2324657,1.9334619,117.55847,110.34653,116.43763,115.56452,0,0,0,0,0,0,0,0,0,0,0,0,-0.9834499,0.18287393,-4.92008,-4.415332,1.4416834,0.23521362,5.4028783,4.820107,-0.0017627627,0.012680415,0.001537133,0.016826771,164,6,231,2,0,-6522.9023,333.98184,3766.6953,35.04393,288738.94,551.70856,210.12717,216.97989,238.55835,238.55835,-5.879999,1,564.0563,0,0,17.737444,17.737448,0,7,255,0,0,0,1,127,201,0
True,23102328,15999.99,0,4886.7754,-13.679184,0.28507894,4.785152,14.282452,-0.05893451,31.826487,-0.020844895,0.24894555,0.012941091,1.1328363,-0.019388178,0.07387794,0.27828878,0.35187918,0.33186734,0.3591022,0.15494661,0.3446891,1.5063742,1.678411,110.89358,111.07718,113.99904,113.74161,0,0,0,0,0,0,0,0,0,0,0,0,-0.23592435,0.9059814,-4.0209737,-4.1773767,0.2822565,0.96933633,4.2938786,4.5019484,0.0014702976,0.010497365,0.010563981,0.013801999,164,6,231,2,0,-6518.892,334.16928,3766.6877,34.88434,327276.53,639.76166,206.0597,215.53094,242.66196,242.66196,0,1,566.90045,0,0,17.852343,17.852346,0,7,255,0,0,0,1,0,202,0
True,23102421,15999.99,0,4929.918,-19.095394,0.8964963,7.02715,11.388426,0.015649661,33.00088,-0.03221178,0.3166166,-0.034290683,1.1638184,-0.0242217,0.070217565,0.2801174,0.33630818,0.2942556,0.3711517,0.9619416,0.5518903,1.2552427,1.2309316,115.28785,110.69646,114.609184,114.031265,0,0,0,0,0,0,0,0,0,0,0,0,-2.6119409,-2.2664733,-3.4485793,-3.0725958,2.7834451,2.332699,3.6699228,3.3099906,0.0016946085,0.008587327,0.0060922205,0.015234601,164,6,231,2,0,-6515.4556,334.3291,3766.8489,34.910667,245019.31,474.60715,203.66647,212.37863,245.6304,245.6304,0,1,568.9919,0,0,17.951021,17.951025,0,7,255,0,0,0,1,-127,203,0
True,23102531,15999.99,0,4859.6553,-22.545813,1.3099691,4.8895674,7.653374,-0.0054451823,33.92234,-0.05448536,0.28786072,-0.010812908,1.1970931,-0.0322041,0.066087715,0.25419956,0.37398776,0.2884387,0.41098484,1.101276,0.5824313,0.7807006,0.620752,114.55577,109.28708,113.26074,111.53729,0,0,0,0,0,0,0,0,0,0,0,0,-3.0772486,-2.6480286,-2.2939708,-1.8901266,3.2683737,2.7113247,2.423179,1.9894501,-0.00148464,0.013209347,0.0054006353,0.019970465,164,6,231,2,0,-6511.4233,334.5139,3767.308,34.774986,285994.94,562.2431,207.76431,218.35966,246.94864,246.94864,0,1,571.8218,0,0,18.067654,18.067656,0,6,255,0,0,0,1,-127,207,0
True,23102656,15999.99,0,4913.542,-21.176748,1.0988452,4.8873634,4.071898,-0.050771266,34.72851,-0.047957208,0.33652836,-0.024459876,1.2322973,-0.039701317,0.06311275,0.22695224,0.37308842,0.25409585,0.38353804,0.99259925,0.5142169,0.577468,0.4808077,116.72232,111.232414,114.06821,112.341095,0,0,0,0,0,0,0,0,0,0,0,0,-2.10339,-1.8401272,-1.1255455,-0.96347815,2.3258338,1.9106249,1.2650383,1.0767851,-0.0048269704,0.013099026,0.0013175271,0.016707245,164,6,231,2,0,-6507.5474,334.69342,3768.0476,34.966446,382681.2,743.94604,210.22678,221.30888,243.61597,243.61597,0,1,574.62225,0,0,18.181072,18.181072,0,6,255,0,0,0,1,-127,214,0
True,23102765,15999.99,0,4986.857,-17.46257,0.4472761,7.3795853,0.7590847,-0.1296455,35.763157,-0.014508195,0.27273005,0.014257044,1.2699655,-0.045928776,0.060360596,0.19886819,0.33399278,0.25727135,0.4108458,0.88476115,0.40558642,0.3264783,0.3151571,119.42713,113.97201,114.94054,113.742065,0,0,0,0,0,0,0,0,0,0,0,0,-1.1486752,-1.021299,-0.13268687,-0.11632205,1.4499162,1.0988867,0.35241154,0.3359387,-0.00827194,0.008303307,0.0016950704,0.019953929,164,6,231,2,0,-6503.6743,334.8724,3769.0547,35.771442,555919.5,1065.1614,208.8888,219.15776,237.5365,237.5365,0,1,577.4474,0,0,18.294489,18.294493,0,6,255,0,0,0,1,-127,223,0
True,23102875,15999.99,0,5116.0464,-8.717176,0.070154876,10.181889,-0.4872427,-0.20452228,36.809147,-0.03959655,0.03381981,0.029099135,1.28469,-0.04879454,0.062288743,0.21358573,0.31229234,0.2634267,0.36856014,0.5187001,0.33624676,0.35592392,0.34313607,119.3082,117.440315,118.15482,117.910675,0,0,0,0,0,0,0,0,0,0,0,0,-0.7269695,-0.6548302,0.1367637,0.13828614,0.89304787,0.73611444,0.38129535,0.36995327,-0.00646659,0.0056413934,0.0024268925,0.014926478,164,6,231,2,0,-6500.2354,335.02557,3770.084,36.812935,662790.2,1238.0316,205.92628,215.2809,232.32635,232.32635,0,1,579.96936,0,0,18.393496,18.393497,0,6,255,0,0,0,1,-127,231,0
True,23102984,15999.99,0,5285.2446,-5.7530146,1.6965872,11.843491,-0.61166,-0.26784003,38.184654,-0.07125353,-0.24419774,0.014431558,1.2717419,-0.055368204,0.06571513,0.19200599,0.2760249,0.30162776,0.38265708,0.4606369,0.27471405,0.33315703,0.24739431,122.67419,122.031,121.76635,122.03766,0,0,0,0,0,0,0,0,0,0,0,0,-0.5839752,-0.52000815,0.07913142,0.081636764,0.7437831,0.5881125,0.34242573,0.26051584,-0.009113699,0.0011925958,0.0069687143,0.016602505,164,6,231,2,0,-6496.1245,335.218,3771.3867,38.19049,728076.4,1316.647,202.20708,210.89404,226.70078,226.70078,0,1,582.9916,0,0,18.508568,18.508568,0,6,255,0,0,0,1,-127,238,0
True,23103093,15999.99,0,5417.146,-16.943325,1.3056022,5.0521584,-1.0211468,-0.22581041,38.68415,-0.010238645,-0.5357255,0.012774526,1.2262433,-0.05699317,0.070988044,0.17591289,0.20417564,0.2396065,0.29387805,0.5964685,0.56210506,0.48984808,0.31120396,124.984726,127.08486,124.351845,124.85665,0,0,0,0,0,0,0,0,0,0,0,0,-0.43138137,-0.39842138,0.051449448,0.051411934,0.7361145,0.688986,0.49254256,0.3154221,-0.011087783,-0.0076208934,-0.0004051514,0.0060473345,164,6,231,2,0,-6492.039,335.4367,3772.8542,38.698288,537874.8,947.5648,198.78354,206.84052,221.56056,221.56056,0,1,585.9433,0,0,18.62156,18.62156,0,6,255,0,0,0,1,-127,245,0
True,23103203,15999.99,0,5531.872,-17.331936,0.34135774,7.247268,-0.018752098,-0.27974182,39.524765,-0.012476454,-0.6911016,-0.035535093,1.1543717,-0.052596048,0.072013944,0.14892553,0.1828927,0.26911664,0.2951509,0.85054636,0.24103351,0.56102794,0.2514261,129.74074,127.09784,127.2896,127.504684,0,0,0,0,0,0,0,0,0,0,0,0,-0.6838629,-0.58494663,-0.2726566,-0.24358107,1.0913742,0.6326608,0.623774,0.35006687,-0.014398225,-0.0102315955,0.0031033866,0.006198667,164,6,231,2,0,-6487.8955,335.6461,3774.5518,39.525753,563547.8,972.9706,195.56357,203.0068,216.74161,216.74161,0,1,589.1232,0,0,18.736086,18.736086,0,5,255,0,0,0,1,-127,252,0
True,23103328,15999.99,0,5613.1846,-21.547401,-0.15627986,5.9024625,0.56209373,-0.31556726,40.03871,-0.006950807,-0.712333,-0.041378453,1.075812,-0.047535293,0.07333557,0.12377916,0.18448417,0.2005451,0.25658613,0.79705185,0.29703873,0.6776072,0.25912583,130.56602,129.0602,129.85088,129.2227,0,0,0,0,0,0,0,0,0,0,0,0,-0.81502986,-0.71469676,-0.3983996,-0.3416411,1.1399848,0.7739661,0.7860494,0.42879462,-0.01748284,-0.010036375,-0.005049262,0.001613602,164,6,231,2,0,-6483.892,335.84152,3776.5068,40.043903,523760.56,891.3574,192.75323,199.5595,212.38914,212.38914,0,1,592.27216,0,0,18.848358,18.848358,0,5,255,0,0,0,1,-127,5,0
True,23103421,15999.99,0,5688.1836,-17.987282,0.59288913,9.28475,1.5852394,-0.28852558,40.830635,-0.047483813,-0.6273786,-0.06555651,1.0087849,-0.043742485,0.06951495,0.17828105,0.26525158,0.23670582,0.3308846,0.35354102,0.13318582,0.6701487,0.2765633,129.111,129.90285,132.80925,131.93321,0,0,0,0,0,0,0,0,0,0,0,0,-0.18220212,-0.15603311,-0.6044907,-0.5039511,0.39772964,0.20514579,0.9025011,0.5748512,-0.01079729,-0.00012892857,-0.00075002015,0.010447141,164,6,231,2,0,-6480.45,335.99585,3778.3936,40.862415,686531.56,1153.3541,190.58029,196.81824,208.90897,208.90897,0,1,595.02905,0,0,18.945486,18.945486,0,5,255,0,0,0,1,0,12,0
True,23103531,15999.99,0,5828.309,-21.65154,3.4520068,11.538201,1.319025,-0.28236574,42.03395,-0.0630752,-0.34784156,-0.048747383,0.95281297,-0.051117785,0.064544626,0.3229479,0.39476293,0.3055697,0.45341292,0.60161495,0.16963595,0.42347562,0.19764523,136.28859,133.38676,134.76813,134.18088,0,0,0,0,0,0,0,0,0,0,0,0,-0.22490722,-0.19453211,-0.42131576,-0.33822793,0.64228016,0.25810677,0.59735966,0.39174196,0.006948471,0.015757762,0.0074373856,0.025014848,164,6,231,2,0,-6476.4346,336.1989,3780.8853,42.055588,714064.8,1170.7955,187.83412,193.61981,205.12999,205.12999,0,1,598.4942,0,0,19.059574,19.059574,0,5,255,0,0,0,1,0,22,0
True,23103656,15999.99,0,5981.5293,-14.016146,0.28655726,10.8823595,0.74254227,-0.23535329,43.243458,-0.006010243,-0.09830146,-0.016113054,0.9289435,-0.048878267,0.062050052,0.2623248,0.34019092,0.38182223,0.46130377,0.3262096,0.17331362,0.41800952,0.3051764,137.70966,136.58244,138.98415,138.37256,0,0,0,0,0,0,0,0,0,0,0,0,-0.1519209,-0.13775218,-0.21451741,-0.1807246,0.3598509,0.22138941,0.46984005,0.35467452,-0.00048794597,0.009063609,0.016503248,0.02595301,164,6,231,2,0,-6472.4033,336.4244,3783.6921,43.250473,742888.3,1186.54,185.28186,190.56549,201.46606,201.46606,0,1,601.9832,0,0,19.174854,19.174854,0,5,255,0,0,0,1,0,32,0
True,23103765,15999.99,0,6104.0464,-7.350272,2.7326136,10.965537,0.1446724,-0.30358294,44.554512,-0.0945079,-0.0042599416,0.010674875,0.9235079,-0.05723904,0.062424764,0.32583544,0.37258655,0.35773036,0.42580476,0.18849304,0.18767734,0.2114733,0.19498979,140.6764,140.68465,141.19109,141.062,0,0,0,0,0,0,0,0,0,0,0,0,-0.034704383,-0.032645166,-0.03690562,-0.023537003,0.19166122,0.19049539,0.21466948,0.19640522,0.0073026754,0.0130374655,0.013638902,0.021732442,164,6,231,2,0,-6468.3037,336.6625,3786.7185,44.555782,752726.56,1178.4231,182.80441,187.6825,197.95578,197.95578,-12.102073,1,605.5979,0,0,19.29099,19.29099,0,5,255,0,0,0,1,0,39,0
True,23103875,15999.99,0,6315.874,-3.8298602,0.07368332,10.355652,-0.06912613,-0.25599584,45.689095,0.04569848,-0.089454174,-0.00048959255,0.9212545,-0.05657201,0.06317123,0.27182785,0.30747938,0.39361656,0.42278317,0.34396246,0.2231447,0.36754307,0.31676385,145.66602,144.72038,146.30315,146.14441,0,0,0,0,0,0,0,0,0,0,0,0,-0.27595752,-0.25553966,-0.015481116,0.0010031387,0.44097927,0.33925518,0.36786896,0.31676543,0.0006777607,0.0050510056,0.017905504,0.021373197,164,6,231,2,0,-6464.334,336.92175,3789.7168,45.68986,748119.3,1131.8065,180.60553,185.1189,194.82375,194.82375,0,1,609.1251,0,0,19.401346,19.401346,0,5,255,0,0,0,1,-127,42,0
True,23103984,15999.99,0,6424.53,-9.249111,1.3313185,10.294715,-0.030513763,-0.28368747,46.783867,-0.08170765,-0.35236064,-0.04747874,0.8967997,-0.058136407,0.062085655,0.2768974,0.3299681,0.3408672,0.38524783,0.30052844,0.15128641,0.2978385,0.1725474,148.11604,148.0455,148.44269,148.61449,0,0,0,0,0,0,0,0,0,0,0,0,-0.52107024,-0.4524118,-0.08411455,-0.06860592,0.60152435,0.47703668,0.30948833,0.18568625,0.0012996234,0.007809613,0.011633992,0.016910523,164,6,231,2,0,-6460.3853,337.17404,3792.7876,46.784733,752561.6,1119.1456,178.6925,182.89008,191.9675,191.9675,-0.95410633,1,613.0095,0,0,19.509628,19.509628,0,5,255,0,0,0,1,-127,40,0
True,23104078,15999.99,0,6590.301,-12.582289,1.6775197,9.502571,0.59358406,-0.2674985,47.607864,0.035434105,-0.45868388,-0.058588386,0.8562297,-0.059474245,0.059305046,0.25347364,0.30518803,0.35866627,0.41989806,0.6875198,0.22365062,0.36965725,0.18991108,154.81133,151.56154,151.65839,151.67398,0,0,0,0,0,0,0,0,0,0,0,0,-0.7093696,-0.60991293,-0.24486482,-0.2079804,0.9878708,0.64962554,0.44340193,0.28164172,-0.0015736856,0.0047699325,0.013750173,0.02103018,164,6,231,2,0,-6456.998,337.4116,3795.5757,47.612316,688620.2,998.51544,177.20508,181.15355,189.67886,189.67886,-3.5892467,1,616.1074,0,0,19.602667,19.602665,0,5,255,0,0,0,1,-127,35,0
True,23104187,15999.99,0,6246.775,-16.413874,0.3677726,3.8812733,1.3423653,-0.2036607,47.82132,-0.0005839616,-0.5552925,-0.06117192,0.8050029,-0.055139095,0.056243878,0.24794935,0.3278232,0.28363696,0.37688512,-0.29535747,-0.39114815,-0.22967295,-0.23021899,144.47655,142.81529,143.51979,145.68364,0,0,0,0,0,0,0,0,0,0,0,0,-0.8396659,-0.69916296,-0.4540912,-0.37512457,0.8900982,0.80114025,0.5088698,0.44013548,-0.0022513308,0.007546507,0.0048297457,0.015916258,164,6,231,2,0,-6453.4263,337.66342,3798.7,47.840588,711404.6,1087.4468,175.78726,179.50899,187.40897,187.40897,-7.0613203,1,619.46857,0,0,19.701841,19.70184,0,5,242,252,0,0,1,-127,29,130
True,23104312,15999.99,0,5914.196,-21.265308,1.8603163,-14.666581,1.7053509,0.16916426,45.60409,0.026493661,-0.54445505,-0.05372924,0.7417487,-0.04975456,0.052952215,0.33408618,0.43252763,0.23561697,0.36965135,-0.19664459,-0.13255262,-0.5207071,-0.3587453,136.92184,140.1681,133.74686,137.30458,0,0,0,0,0,0,0,0,0,0,0,0,-0.98101234,-0.8262927,-0.5705767,-0.46991166,1.000527,0.83685714,0.77245945,0.5911981,0.008314762,0.02039022,-0.0008794777,0.015056215,164,6,231,2,0,-6449.4224,337.96414,3802.545,45.63628,237494.84,383.19666,174.30106,177.92397,184.84563,184.84563,-11.004248,1,623.4128,0,0,19.820824,19.82082,0,5,0,255,0,0,1,-127,19,129
True,23104421,15999.99,0,5363.272,-18.06797,-0.3722582,-15.64787,2.7899513,0.2814363,43.518524,0.01905806,-0.68791753,-0.020235173,0.6727485,-0.042511187,0.052219138,0.3067187,0.4303619,0.1976662,0.31279305,-0.9015134,-0.15730609,-1.1067896,-0.88264346,123.62307,128.40059,120.71654,124.68264,0,0,0,0,0,0,0,0,0,0,0,0,-1.2249155,-1.0324767,-0.91846806,-0.7940389,1.5209024,1.0443914,1.4382513,1.1872478,0.0049576946,0.020124558,-0.005391542,0.008296188,164,6,231,2,0,-6445.917,338.24017,3806.2551,43.60877,169331.42,300.07028,173.66528,176.79996,183.10117,183.10117,-14.7,1,627.1159,0,0,19.935463,19.93546,0,5,157,255,0,0,1,-127,8,129
True,23104531,15999.99,0,5620.404,-20.208166,-0.107889816,-12.084156,4.1632233,0.29605347,41.698692,-0.013116494,-0.7836718,-0.02843029,0.58896184,-0.03765414,0.05371434,0.2747963,0.4125446,0.15936524,0.28843006,-0.016083442,-0.1168831,0.26791888,-0.034734827,126.58621,128.80313,130.77821,131.10056,0,0,0,0,0,0,0,0,0,0,0,0,-1.5877333,-1.3130552,-1.3763654,-1.1167158,1.5878147,1.3182471,1.4021991,1.1172558,0.0010418892,0.017938975,-0.009945244,0.005399607,164,6,231,2,0,-6442.788,338.4841,3809.8708,41.907047,614465.06,1046.8047,174.13596,176.88371,182.07349,182.07349,-14.7,1,630.4533,0,0,20.047802,20.047798,0,5,255,79,0,0,1,-127,252,217
True,23104640,15999.99,0,5918.586,-21.380486,0.48767334,2.3406649,5.4997597,0.1078282,41.70361,-0.06507661,-0.77808726,-0.023469636,0.50179833,-0.039027497,0.05495822,0.28291896,0.4143043,0.19787435,0.35502273,1.0493258,0.37278333,0.8572114,0.3812177,137.66211,134.79462,137.30649,136.56323,0,0,0,0,0,0,0,0,0,0,0,0,-1.9821148,-1.6706179,-1.6497954,-1.3442335,2.2427359,1.7117044,1.8592032,1.397244,0.0020382665,0.01815483,-0.0053667948,0.0133169815,164,6,231,2,0,-6440.0146,338.7054,3813.4463,42.06483,350073.25,564.83655,175.606,178.2119,182.24904,182.24904,-14.7,1,633.6397,0,0,20.155767,20.155762,0,5,255,0,0,0,1,-127,241,0
True,23104750,15999.99,0,5928.365,-21.185646,0.6323764,4.707184,6.345148,0.05758941,41.713234,0.0030124933,-0.60358584,-0.036874715,0.4257123,-0.03873585,0.054390587,0.2755375,0.39373064,0.27272904,0.41554093,1.1124705,0.46750864,0.81646395,0.42636442,138.3853,135.14584,137.29617,136.68843,0,0,0,0,0,0,0,0,0,0,0,0,-2.2802498,-1.9737077,-1.7919784,-1.5066082,2.53715,2.028321,1.969213,1.5657761,0.0011328086,0.015631136,0.0035328753,0.020512149,164,6,231,2,0,-6437.407,338.92807,3817.2292,42.193108,320427.2,516.19525,178.38435,180.87895,183.59128,183.59128,0,1,636.8952,0,0,20.264948,20.264942,0,5,255,0,0,0,1,-127,230,0
