IsRaceOn,TimestampMS,EngineMaxRpm,EngineIdleRpm,CurrentEngineRpm,AccelerationX,AccelerationY,AccelerationZ,VelocityX,VelocityY,VelocityZ,AngularVelocityX,AngularVelocityY,AngularVelocityZ,Yaw,Pitch,Roll,NormalizedSuspensionTravelFrontLeft,NormalizedSuspensionTravelFrontRight,NormalizedSuspensionTravelRearLeft,NormalizedSuspensionTravelRearRight,TireSlipRatioFrontLeft,TireSlipRatioFrontRight,TireSlipRatioRearLeft,TireSlipRatioRearRight,WheelRotationSpeedFrontLeft,WheelRotationSpeedFrontRight,WheelRotationSpeedRearLeft,WheelRotationSpeedRearRight,WheelOnRumbleStripFrontLeft,WheelOnRumbleStripFrontRight,WheelOnRumbleStripRearLeft,WheelOnRumbleStripRearRight,WheelInPuddleDepthFrontLeft,WheelInPuddleDepthFrontRight,WheelInPuddleDepthRearLeft,WheelInPuddleDepthRearRight,SurfaceRumbleFrontLeft,SurfaceRumbleFrontRight,SurfaceRumbleRearLeft,SurfaceRumbleRearRight,TireSlipAngleFrontLeft,TireSlipAngleFrontRight,TireSlipAngleRearLeft,TireSlipAngleRearRight,TireCombinedSlipFrontLeft,TireCombinedSlipFrontRight,TireCombinedSlipRearLeft,TireCombinedSlipRearRight,SuspensionTravelMetersFrontLeft,SuspensionTravelMetersFrontRight,SuspensionTravelMetersRearLeft,SuspensionTravelMetersRearRight,CarOrdinal,CarClass,CarPerformanceIndex,DrivetrainType,NumCylinders,PositionX,PositionY,PositionZ,Speed,Power,Torque,TireTempFl,TireTempFr,TireTempRl,TireTempRr,Boost,Fuel,Distance,BestLapTime,LastLapTime,CurrentLapTime,CurrentRaceTime,Lap,RacePosition,Accelerator,Brake,Clutch,Handbrake,Gear,Steer,NormalDrivingLine,NormalAiBrakeDifference
True,33774250,15999.99,0,10635.65,-0.20187889,4.565188,-3.110254,-0.022938728,0.025397122,79.2727,-0.084174186,-0.0041290647,0.029200736,-1.7304136,0.027322352,0.049873766,0.3808408,0.40303147,0.33497822,0.35573068,-0.0043663816,-0.0041642208,-0.0077326912,-0.007885148,245.67719,245.70044,245.58298,245.59854,0,0,0,0,0,0,0,0,0,0,0,0,0.002987042,0.0015857832,8.045259E-05,0.003034508,0.005290341,0.004455945,0.00773311,0.008448893,0.0140499845,0.016772032,0.010933839,0.013401151,164,6,231,2,0,-3134.7852,228.88174,635.5775,79.2727,-111386.98,-100,154.0296,152.31573,153.8899,153.8899,0,1,141.67041,0,0,0.7393953,20.153637,0,8,0,0,0,0,1,0,35,0
True,33793203,15999.99,0,115.368935,0.04906267,-0.041638136,4.9924235,0.0018165484,-0.0044292924,0.549202,-0.024330758,-0.0024185672,-0.010373967,-1.6942294,-0.0029241515,-0.0007974269,0.2572123,0.26062924,0.25036457,0.25423917,1.140037,1.0367546,0.012522255,-0.034790475,1.5234222,1.5991808,3.1413474,3.3806024,0,0,0,0,0,0,0,0,0,0,0,0,0.006217201,0.0062959217,-0.0035905414,-0.0035351675,1.1400539,1.0367738,0.013026851,0.034969624,-0.0011150762,-0.00069593266,0.0008739047,0.0013345666,164,6,231,2,0,-1745.3,191.87933,753.8776,0.5492229,7702.086,747.44275,121.09508,121.09412,121.081665,121.081665,0,1,-54.21119,0,0,0.09673664,0.09673664,0,7,255,0,0,0,1,0,49,0
True,33793328,15999.99,0,358.908,-0.02271247,0.059870645,12.713958,0.0030661821,-0.00043172308,2.1241293,-0.03394961,-0.0042967005,-0.01770421,-1.6943859,-0.0067455904,-0.0026692192,0.2460649,0.26760885,0.30120543,0.32095408,2.8950493,0.29234502,0.6846682,0.49391547,11.637005,7.3432894,7.835579,7.442588,0,0,0,0,0,0,0,0,0,0,0,0,0.037259948,0.03796857,-0.017466975,-0.014999482,2.8952892,0.2948003,0.6848909,0.49414316,-0.0024824888,0.00016022846,0.006918505,0.009266473,164,6,231,2,0,-1745.4535,191.87946,753.859,2.1241312,56756.49,1546.6406,121.39444,121.281784,121.30782,121.30782,0,1,-54.106415,0,0,0.21707284,0.21707286,0,7,255,0,0,0,1,0,49,0
True,33793437,15999.99,0,549.05023,-0.05680132,0.04597477,13.072771,0.0007697046,0.010023428,3.5085876,-0.011372703,-0.008322013,-0.008480954,-1.694852,-0.008340035,-0.0038216014,0.2305485,0.26120523,0.31604612,0.34713626,1.9987226,0.39189354,1.2226502,0.64962906,14.3340845,11.619033,12.905703,12.133672,0,0,0,0,0,0,0,0,0,0,0,0,0.0349579,0.036964294,-0.02684777,-0.021457732,1.9990283,0.39363295,1.2229449,0.64998335,-0.004385829,-0.0006252788,0.008682951,0.012379345,164,6,231,2,0,-1745.745,191.88301,753.8229,3.5086024,87873.68,1546.6406,124.559006,121.36536,121.62837,121.62837,0,1,-53.907303,0,0,0.3215587,0.3215587,0,7,255,0,0,0,1,0,49,0
True,33793531,15999.99,0,748.37384,-0.020736933,-0.22606225,13.992803,-0.001679182,-0.019741064,5.0176315,-0.0064725755,-0.010338882,-0.0044268747,-1.6956296,-0.009119914,-0.004440575,0.19718093,0.23205118,0.3035157,0.33928022,2.3653955,0.41732523,0.96077037,0.55160964,19.516666,16.29843,17.26546,16.626015,0,0,0,0,0,0,0,0,0,0,0,0,0.03361307,0.03605211,-0.021639384,-0.017323151,2.3656342,0.41887957,0.96101403,0.55188155,-0.00847891,-0.0042015016,0.0071931817,0.011445317,164,6,231,2,0,-1746.196,191.88663,753.7664,5.0176706,120026.99,1546.6406,126.14484,121.49942,123.12263,123.12263,0,1,-53.599163,0,0,0.4281163,0.42811632,0,7,255,0,0,0,1,0,49,0
True,33793656,15999.99,0,989.6464,-0.05015683,-0.28763032,14.46957,-0.005032122,-0.055572912,6.8051972,0.005906853,-0.0040650917,0.014892675,-1.6966689,-0.009365165,-0.0041942648,0.17103568,0.21141449,0.29975113,0.33613122,1.6420337,0.5967332,1.4535043,0.62814146,24.438583,22.30059,24.094889,21.05975,0,0,0,0,0,0,0,0,0,0,0,0,0.007439766,0.010889555,-0.005800118,-0.0023870221,1.6420506,0.5968326,1.4535159,0.628146,-0.011686053,-0.0067329295,0.006745599,0.011070926,164,6,231,2,0,-1746.9165,191.88876,753.67523,6.805426,161450.44,1546.6406,129.0758,121.64513,123.45618,123.45618,0,1,-53.106895,0,0,0.55069596,0.55069596,0,7,255,0,0,0,1,0,49,0
True,33793765,15999.99,0,1190.541,-0.015725255,-0.22020549,14.781567,-0.0037852526,-0.072876215,8.255875,0.0018407747,-0.007774473,0.009512846,-1.6970545,-0.00870062,-0.0034585805,0.16704679,0.20631512,0.30288827,0.3327377,1.7865345,0.46168068,0.6596833,0.57538176,29.671423,26.678429,27.205566,27.04889,0,0,0,0,0,0,0,0,0,0,0,0,0.012772779,0.015986968,-0.011190802,-0.0076573114,1.7865802,0.4619574,0.6597782,0.5754327,-0.012175357,-0.0073584504,0.0071185865,0.010667462,164,6,231,2,0,-1747.6748,191.88908,753.57886,8.256196,191799.77,1546.6406,129.3348,121.76557,124.017075,124.017075,0,1,-52.58874,0,0,0.6526208,0.6526208,0,7,255,0,0,0,1,0,49,0
True,33793875,15999.99,0,1445.5646,-0.05121231,-0.20015967,15.844487,-0.0055748224,-0.09448002,10.1705885,0.0025650794,-0.0045586606,0.013728329,-1.6980757,-0.00828838,-0.0019236238,0.1628998,0.19288504,0.31666833,0.33522928,0.9009368,0.59335953,0.5704083,0.573313,33.980442,33.207664,33.260536,33.282143,0,0,0,0,0,0,0,0,0,0,0,0,0.0066924375,0.010127127,-0.005784096,-0.0013556641,0.90096164,0.5934459,0.5704376,0.5733146,-0.012684053,-0.009005871,0.008756932,0.01096369,164,6,231,2,0,-1748.78,191.88826,753.4372,10.171028,233328.61,1546.6406,132.02078,121.94418,124.26912,124.26912,0,1,-51.83342,0,0,0.77343065,0.7734307,0,7,255,0,0,0,1,0,49,0
True,33793984,15999.99,0,1667.4763,0.029122233,-0.20017283,16.000326,-0.0038903952,-0.11178093,11.790011,0.002661528,-0.00018200313,0.011647816,-1.6982344,-0.00795574,-0.0005588632,0.16075358,0.1823482,0.3252791,0.33704266,0.6257369,0.58795506,0.54699194,0.5578896,38.574562,38.466007,38.48747,38.520046,0,0,0,0,0,0,0,0,0,0,0,0,-0.0008768865,0.002324219,-0.0019532086,0.0032270479,0.6257375,0.58795965,0.5469954,0.55789894,-0.012947321,-0.010298386,0.009780683,0.011179287,164,6,231,2,0,-1749.8921,191.88681,753.29425,11.790541,269075.06,1546.6406,131.7879,122.128784,124.45012,124.45012,0,1,-51.07341,0,0,0.87533444,0.8753345,0,7,255,0,0,0,1,0,49,0
True,33794093,15999.99,0,1894.8644,-0.0049806833,-0.16363935,15.841618,-0.0029001236,-0.13015108,13.416645,-0.005845371,4.4867847E-05,0.0076718368,-1.6982306,-0.00807414,0.00045147666,0.16496167,0.17725958,0.32188696,0.330937,0.55392265,0.5839088,0.54385966,0.5427986,43.651714,43.762703,43.791985,43.788128,0,0,0,0,0,0,0,0,0,0,0,0,-0.0009044331,0.0019260466,-0.0016171251,0.0032591652,0.55392337,0.58391196,0.5438621,0.54280835,-0.01243113,-0.010922588,0.009377383,0.0104533695,164,6,231,2,0,-1751.1772,191.88469,753.1292,13.417276,306001.6,1546.6406,131.53735,122.313644,124.63779,124.63779,0,1,-50.1951,0,0,0.97796863,0.9779687,0,7,255,0,0,0,1,0,49,0
True,33794203,15999.99,0,2155.7957,-0.027649641,-0.057670973,15.776813,-0.0013195276,-0.15413782,15.291073,-0.015711691,-0.00040215199,0.0012969363,-1.6982515,-0.009428501,0.0009858402,0.17328012,0.17447837,0.3209368,0.3285393,0.5062105,0.5891625,0.52629066,0.51268786,49.567528,49.908924,49.83844,49.788498,0,0,0,0,0,0,0,0,0,0,0,0,-0.00025964636,0.0024659026,-0.001922279,0.0028943194,0.50621057,0.58916765,0.5262942,0.512696,-0.011410737,-0.0112637505,0.009264421,0.010168303,164,6,231,2,0,-1752.8657,191.88263,752.9126,15.291849,348282.8,1546.6406,131.26657,122.527985,124.85918,124.85918,0,1,-49.041176,0,0,1.0963968,1.0963967,0,7,255,0,0,0,1,0,49,0
True,33794312,15999.99,0,2374.6406,2.8415794,0.00021023164,14.091898,0.20785415,-0.17166047,16.738312,-0.0014690931,0.16890192,0.015690215,-1.6921287,-0.01072501,0.001996822,0.18673792,0.16276842,0.32748112,0.32592124,0.7020832,1.8200272,0.32668993,0.45648497,55.149956,58.937695,53.821854,53.477974,0,0,0,0,0,0,0,0,0,0,0,0,1.2527368,1.4850223,-0.0029782197,0.0019463432,1.4360607,2.3489978,0.3267035,0.45648912,-0.009759914,-0.012700167,0.010042492,0.009857029,164,6,231,2,0,-1754.4836,191.88261,752.71594,16.74048,244390.11,981.0137,131.18568,123.47601,125.034615,125.034615,0,1,-47.93639,0,0,1.197786,1.197786,0,7,255,0,0,0,1,104,49,0
True,33794437,15999.99,0,2622.4292,1.2562962,-0.05567016,15.126906,0.023147464,-0.17771968,18.544102,-0.0012692165,0.11282851,-0.011733033,-1.667751,-0.010966786,0.0013138483,0.19303045,0.16767558,0.32972282,0.32117093,0.5745791,0.69318056,0.48997736,0.5776643,60.717133,60.740784,60.530544,60.418194,0,0,0,0,0,0,0,0,0,0,0,0,-0.10444435,-0.10267099,0.06282082,0.06826989,0.5839947,0.7007429,0.49398813,0.58168447,-0.008988034,-0.012098225,0.0103090145,0.009292252,164,6,231,2,0,-1756.6135,191.88495,752.50574,18.544966,423860.25,1546.6406,131.39502,125.117905,125.23536,125.23536,0,1,-46.486134,0,0,1.3193083,1.3193084,0,7,255,0,0,0,1,0,47,0
True,33794531,15999.99,0,2846.6226,0.8321815,-0.20767404,15.650986,-0.011603117,-0.19463074,20.156458,0.0059126434,0.025309784,-0.008941719,-1.6618,-0.010609017,0.00023165991,0.18295021,0.16458087,0.33196184,0.320407,0.57660335,0.60445917,0.5182045,0.5491446,65.766655,65.77685,65.70828,65.74157,0,0,0,0,0,0,0,0,0,0,0,0,-0.012753923,-0.009468779,0.020436678,0.025180405,0.5767444,0.6045333,0.5186073,0.5497216,-0.01022454,-0.012477841,0.010575213,0.00920143,164,6,231,2,0,-1758.5881,191.8874,752.3209,20.157402,460149.12,1546.6406,131.25061,125.23677,125.43651,125.43651,0,1,-45.142452,0,0,1.4216847,1.4216849,0,7,255,0,0,0,1,0,46,0
True,33794656,15999.99,0,3109.6953,0.3583567,-0.33057332,15.606872,-0.0043896437,-0.21854904,22.02625,0.008396493,0.0041419878,-0.0027641677,-1.6604346,-0.009802536,-0.0005201816,0.173717,0.16633746,0.32915094,0.31787655,0.6188121,0.5638206,0.52012485,0.5359063,72.05206,71.70118,71.75308,71.816124,0,0,0,0,0,0,0,0,0,0,0,0,-0.0019464348,0.0014241057,0.0023532219,0.006670225,0.6188151,0.5638224,0.52013016,0.53594786,-0.011357145,-0.012262367,0.0102410205,0.008900575,164,6,231,2,0,-1761.0901,191.8884,752.09393,22.02733,502772.03,1546.6406,131.12454,125.36109,125.686325,125.686325,0,1,-43.431026,0,0,1.5406847,1.5406849,0,7,255,0,0,0,1,0,45,0
True,33794750,15999.99,0,3320.6155,-0.4712174,-0.32360902,15.487519,-0.052632093,-0.2310478,23.610117,0.008140122,-0.038943853,-0.008080642,-1.6608696,-0.00885912,-0.00067287014,0.16682026,0.17325667,0.32602802,0.31876445,0.7003598,0.4346574,0.5030788,0.4585632,77.662544,76.1043,76.641785,76.522865,0,0,0,0,0,0,0,0,0,0,0,0,-0.29426724,-0.27646077,0.00031649793,0.004471926,0.75966907,0.51512873,0.5030789,0.458585,-0.012203144,-0.011413613,0.0098697245,0.009006146,164,6,231,2,0,-1763.4242,191.88705,751.88306,23.611305,503706.1,1450.6068,131.04845,125.46329,125.90164,125.90164,0,1,-41.843735,0,0,1.643265,1.6432652,0,7,255,0,0,0,1,-23,43,0
True,33794875,15999.99,0,3548.7444,-0.9154786,-0.041452546,15.051115,0.019450426,-0.24344487,25.39578,-0.014744973,-0.053990837,0.0076738885,-1.6711316,-0.009156745,-0.00041777993,0.1747547,0.19040878,0.31847262,0.3242951,0.42454952,0.4070749,0.4584746,0.41841793,81.612434,81.76933,82.10276,82.09765,0,0,0,0,0,0,0,0,0,0,0,0,0.021417335,0.023913452,-0.037069116,-0.032543194,0.42508942,0.40777668,0.45997074,0.41968158,-0.011229854,-0.009309623,0.008971445,0.009663694,164,6,231,2,0,-1766.3531,191.88452,751.5965,25.396952,546718.2,1473.0658,130.99574,125.564926,126.14564,126.14564,0,1,-39.84997,0,0,1.7633173,1.7633175,0,7,255,0,0,0,1,0,42,0
True,33794984,15999.99,0,3740.9353,-0.7134404,0.13799356,14.543165,0.018569946,-0.26105386,26.872272,-0.0037638922,-0.009883308,0.002386986,-1.6738161,-0.01054376,8.430644E-05,0.18357351,0.19181436,0.32346508,0.33393162,0.403568,0.4096944,0.38793114,0.3740642,86.305565,86.39957,86.437065,86.39911,0,0,0,0,0,0,0,0,0,0,0,0,-0.0038892368,-0.0007016766,-0.014009458,-0.009179205,0.40358675,0.409695,0.388184,0.3741768,-0.010148082,-0.009137206,0.009565014,0.01080941,164,6,231,2,0,-1768.9967,191.88527,751.3282,26.873547,542597.06,1386.78,130.90318,125.64258,126.328705,126.328705,0,1,-38.049625,0,0,1.864878,1.8648782,0,7,255,0,0,0,1,0,41,0
True,33795093,15999.99,0,3973.823,-0.20610535,-0.16630691,13.970977,0.005087137,-0.25418907,28.526262,0.0063171545,-0.00094371475,-0.00037046487,-1.6742654,-0.009548383,0.00015245755,0.18474236,0.18626487,0.32330692,0.3299854,0.37998673,0.3776052,0.41077784,0.41005927,91.4541,91.43808,91.94985,91.95135,0,0,0,0,0,0,0,0,0,0,0,0,-0.0028324411,3.215358E-05,-0.0042858035,0.00024106754,0.37999728,0.3776052,0.4108002,0.41005933,-0.010004703,-0.009817943,0.009546209,0.010340229,164,6,231,2,0,-1772.2716,191.88806,750.98987,28.527395,576495.06,1387.0066,130.81126,125.739746,126.52784,126.52784,0,1,-35.818787,0,0,1.9836552,1.9836555,0,7,255,0,0,0,1,0,40,0
True,33795203,15999.99,0,4198.8296,-0.07673144,-0.16232774,14.079777,0.0003862381,-0.27522954,30.150694,0.0039270152,0.0002175664,0.00328145,-1.6742865,-0.009667815,0.00025630827,0.18814215,0.19149166,0.32214752,0.32287452,0.42453262,0.40442178,0.38303894,0.38656425,97.0128,96.85633,96.975975,97.00216,0,0,0,0,0,0,0,0,0,0,0,0,-0.0022139973,0.0009722437,-0.0023153902,0.0016531919,0.4245384,0.40442294,0.38304594,0.3865678,-0.009587664,-0.009176791,0.009408362,0.009494796,164,6,231,2,0,-1775.6627,191.89006,750.63794,30.15195,607074.94,1382.4276,130.74373,125.836945,126.72986,126.72986,0,1,-33.50864,0,0,2.0997775,2.099778,0,7,255,0,0,0,1,0,39,0
True,33795328,15999.99,0,4420.5757,-0.0026111603,-0.6697804,13.674958,-0.0027725697,-0.27244812,31.711494,0.029725017,0.0006051444,0.0077362405,-1.6742383,-0.0069623836,0.0009603408,0.17461804,0.18326013,0.31943864,0.3198286,0.4009,0.39437845,0.41928023,0.42055395,101.80554,101.75818,102.25533,102.261215,0,0,0,0,0,0,0,0,0,0,0,0,-0.0017161112,0.0014431786,-0.0013962717,0.0022063171,0.40090367,0.3943811,0.41928256,0.42055973,-0.01124662,-0.010186523,0.0090863,0.009132665,164,6,231,2,0,-1779.1975,191.88869,750.27075,31.712666,627603.9,1357.2595,130.71294,125.95009,126.928764,126.928764,0,1,-31.10059,0,0,2.2145905,2.2145915,0,7,255,0,0,0,1,0,37,0
True,33795421,15999.99,0,4603.9473,0.047436476,-0.36443996,13.9094095,-0.0027823448,-0.28791866,33.089237,-0.016479274,-0.0001671531,0.0001436373,-1.6742138,-0.00625989,0.0015087001,0.1902618,0.19172873,0.30851963,0.3134355,0.32804856,0.36775815,0.4024901,0.3953137,105.67979,106.02412,106.61111,106.55343,0,0,0,0,0,0,0,0,0,0,0,0,-0.00016712962,0.0021591932,-0.0005732905,0.002298941,0.32804862,0.36776447,0.40249053,0.39532042,-0.009327654,-0.009147711,0.007788107,0.008372568,164,6,231,2,0,-1782.3773,191.88116,749.9404,33.090485,686709.94,1426.0024,130.68755,126.04654,127.109795,127.109795,0,1,-28.93539,0,0,2.3132205,2.3132215,0,7,255,0,0,0,1,0,36,0
True,33795546,15999.99,0,4825.708,0.017837882,0.42172253,14.252064,0.0028412342,-0.3155679,34.758217,-0.017662061,-0.00078691624,-0.011421422,-1.6742908,-0.00892344,0.00062426814,0.21132663,0.19830653,0.3317987,0.33147016,0.35324588,0.34874701,0.3563167,0.35776103,111.23136,111.17414,111.57078,111.588646,0,0,0,0,0,0,0,0,0,0,0,0,-0.0008859014,0.0018610844,-0.0025173048,0.0023249579,0.353247,0.348752,0.35632557,0.3577686,-0.0067437068,-0.008340836,0.010555822,0.010516755,164,6,231,2,0,-1786.3138,191.8759,749.53174,34.759647,714018.06,1414.2529,130.6667,126.1642,127.3208,127.3208,0,1,-26.253616,0,0,2.4298048,2.4298058,0,7,255,0,0,0,1,0,33,0
True,33795640,15999.99,0,5012.803,-0.03492248,0.42918116,13.856186,0.0017840862,-0.31923273,36.137684,-0.01353477,0.00030284838,0.0014766738,-1.6743138,-0.010261961,5.0098868E-05,0.20918089,0.20889787,0.34179804,0.3335366,0.3471244,0.3161226,0.3524578,0.35610598,115.57167,115.28926,115.93939,115.96251,0,0,0,0,0,0,0,0,0,0,0,0,-0.0021860152,0.00056242844,-0.0034581858,0.0020548594,0.34713128,0.31612307,0.35247475,0.3561119,-0.007006917,-0.007041633,0.011744667,0.010762442,164,6,231,2,0,-1789.81,191.87834,749.1688,36.139095,724893.7,1382.1233,130.6675,126.2578,127.49562,127.49562,0,1,-23.871796,0,0,2.5289009,2.528902,0,7,255,0,0,0,1,0,31,0
True,33795750,15999.99,0,5203.064,-0.0052193403,-0.06367942,13.340222,-0.00131917,-0.32266086,37.489532,0.021845829,0.0001744242,-0.00011814269,-1.6742661,-0.010094559,0.00034760206,0.20563194,0.20464684,0.33759475,0.33753633,0.34655532,0.3960784,0.35583022,0.3485602,119.83887,120.309654,120.23457,120.18507,0,0,0,0,0,0,0,0,0,0,0,0,-0.0013635308,0.0020262506,-0.0023076185,0.0030283327,0.346558,0.3960836,0.3558377,0.3485734,-0.0074422546,-0.007563092,0.011244927,0.011237979,164,6,231,2,0,-1793.541,191.8848,748.7813,37.49092,707741.9,1300.0966,130.67769,126.3592,127.67049,127.67049,0,1,-21.330046,0,0,2.630721,2.630722,0,7,255,0,0,0,1,0,29,0
True,33795859,15999.99,0,5409.923,-0.020278573,-0.75642717,12.746983,0.00017499924,-0.3170493,39.029488,0.012018387,0.00021905545,0.0004198195,-1.6742727,-0.007135673,1.9854286E-05,0.19935882,0.19884871,0.3236246,0.32072762,0.3280726,0.3020545,0.35836947,0.36294028,124.566765,124.30584,125.19639,125.22707,0,0,0,0,0,0,0,0,0,0,0,0,-0.0015659019,0.0011893495,-0.0019783229,0.0018750756,0.32807633,0.30205685,0.35837495,0.36294514,-0.008211754,-0.008274328,0.00958398,0.009239551,164,6,231,2,0,-1798.167,191.88551,748.3009,39.030777,727253.25,1284.6843,130.7029,126.48534,127.87674,127.87674,0,1,-18.17856,0,0,2.7522285,2.7522297,0,7,255,0,0,0,1,0,26,0
True,33795968,15999.99,0,5577.409,0.03209281,-0.12597623,12.860828,-0.0018391609,-0.32613024,40.356358,-0.011642376,0.00025595972,0.0020009275,-1.6742373,-0.0071681268,0.00039843042,0.20163968,0.20590802,0.31969556,0.32258067,0.2703394,0.28669935,0.324502,0.3203956,128.22098,128.39468,129.09496,129.06071,0,0,0,0,0,0,0,0,0,0,0,0,-0.0008721573,0.0014025177,-0.0014256446,0.0022408857,0.2703408,0.28670278,0.32450512,0.32040343,-0.00793197,-0.007408388,0.009116843,0.009459864,164,6,231,2,0,-1802.253,191.88078,747.8766,40.357674,752297.44,1288.9158,130.72914,126.581726,128.05127,128.05127,0,1,-15.394668,0,0,2.855679,2.8556802,0,7,255,0,0,0,1,0,24,0
True,33796093,15999.99,0,5774.19,0.019673347,0.20405754,12.412242,0.004221916,-0.3338447,41.832466,0.003031667,-0.0008020916,-0.015215811,-1.6742779,-0.008272294,-0.00053654355,0.2221268,0.207828,0.32605106,0.3266271,0.27988577,0.28654537,0.3009409,0.30022332,132.98923,133.04996,133.52933,133.53456,0,0,0,0,0,0,0,0,0,0,0,0,-0.0010000741,0.0017536845,-0.0021361862,0.0018653556,0.27988756,0.28655073,0.30094847,0.3002291,-0.005418889,-0.0071728714,0.009872466,0.009940952,164,6,231,2,0,-1807.1118,191.87988,747.3722,41.8338,752297.7,1245.0358,130.75993,126.69112,128.24146,128.24146,0,1,-12.084674,0,0,2.974483,2.974484,0,7,255,0,0,0,1,0,21,0
True,33796203,15999.99,0,5942.8276,0.01945877,-0.048562948,11.980542,0.0054192543,-0.33310094,43.09506,0.0014325215,0.0002529672,-0.004075134,-1.6743029,-0.0079925675,-0.0017996957,0.21382132,0.20713808,0.32685727,0.31881234,0.27908847,0.2583773,0.2917547,0.2950785,136.98958,136.76213,137.43375,137.46088,0,0,0,0,0,0,0,0,0,0,0,0,-0.002415956,0.00011917864,-0.0029191943,0.0007916241,0.27909893,0.25837734,0.2917693,0.29507956,-0.006437693,-0.0072575025,0.009968322,0.009011839,164,6,231,2,0,-1811.5677,191.88113,746.9099,43.096344,752300.44,1209.633,130.7968,126.78696,128.40666,128.40666,0,1,-9.049129,0,0,3.0799341,3.079935,0,7,255,0,0,0,1,0,18,0
True,33796296,15999.99,0,6117.2485,-0.0063505173,-0.4132239,11.576258,-0.0011382103,-0.32995367,44.345947,0.019204948,0.0009524581,0.012271276,-1.6742307,-0.00686846,-0.0011516283,0.2012898,0.2103249,0.31884342,0.31606045,0.2772577,0.27414057,0.2994422,0.29941154,140.9006,140.87961,141.48775,141.47824,0,0,0,0,0,0,0,0,0,0,0,0,-0.0022879436,0.0004084777,-0.0019393227,0.0011799069,0.27726716,0.27414086,0.2994485,0.29941386,-0.007974889,-0.0068665855,0.00901553,0.0086846575,164,6,231,2,0,-1816.2843,191.88109,746.4203,44.347168,752272.44,1175.1437,130.84134,126.883026,128.5718,128.5718,0,1,-5.8360243,0,0,3.188345,3.1883454,0,7,255,0,0,0,1,0,15,0
True,33796421,15999.99,0,6282.0005,0.066222906,0.052239176,11.363574,-0.0016345978,-0.33290583,45.728962,-0.022267913,-9.651863E-05,-0.0029280363,-1.6741844,-0.0067141512,-0.00031181716,0.22111502,0.22165601,0.30856454,0.3148936,0.20073928,0.21514755,0.25844646,0.2556749,144.4349,144.60318,145.39513,145.37088,0,0,0,0,0,0,0,0,0,0,0,0,-0.0002454551,0.0015207807,-0.0005920351,0.0018873446,0.20073943,0.21515293,0.25844714,0.25568184,-0.005543001,-0.0054766387,0.007793449,0.008545928,164,6,231,2,0,-1821.7726,191.87556,745.85046,45.73017,752281.8,1144.0862,130.89546,126.99298,128.75499,128.75499,0,1,-2.0971658,0,0,3.3108103,3.310811,0,7,255,0,0,0,1,0,12,0
True,33796531,15999.99,0,6432.2666,0.009034276,1.0106573,10.766436,0.0036649704,-0.3417201,46.82302,-0.0017110724,-0.00040737985,-0.008415285,-1.6742203,-0.009635859,-0.0012152828,0.2564369,0.24228106,0.34067053,0.33715677,0.26426384,0.24626657,0.2298448,0.23205142,148.68633,148.45607,148.52924,148.5481,0,0,0,0,0,0,0,0,0,0,0,0,-0.001694953,0.0013523392,-0.002747555,0.0020143911,0.2642693,0.24627028,0.22986121,0.23206016,-0.0012101904,-0.0029466376,0.011610616,0.0111928545,164,6,231,2,0,-1826.4463,191.88065,745.36554,46.824265,752286,1117.6564,130.9363,127.07616,128.9011,128.9011,0,1,1.0867224,0,0,3.4123023,3.4123032,0,7,255,0,0,0,1,0,9,0
True,33796640,15999.99,0,6625.3813,-0.52391255,-1.373351,10.531533,-0.016536713,-0.3157471,48.090424,0.015270611,-0.029668031,0.0034223443,-1.6750757,-0.005052402,-0.0010231377,0.21038382,0.21831296,0.32095408,0.3161816,0.25127685,0.23076336,0.31285465,0.29236662,152.40869,152.29312,153.42426,153.30858,0,0,0,0,0,0,0,0,0,0,0,0,-0.091711715,-0.087953255,-0.0060076974,-0.0026513853,0.2674904,0.24695648,0.31291232,0.29237866,-0.0068593584,-0.0058867186,0.009266473,0.0086990595,164,6,231,2,0,-1832.2086,191.88419,744.76605,48.09146,752280.1,1084.6511,131.00641,127.185745,129.0774,129.0774,0,1,5.012422,0,0,3.5343547,3.534356,0,7,255,0,0,0,1,-27,6,0
True,33796750,15999.99,0,6741.147,-1.6038362,-0.13717419,10.295575,0.11854601,-0.3284217,49.16744,-0.019077895,-0.05700809,0.006629345,-1.6824658,-0.00529545,-0.0009523756,0.21960974,0.23872851,0.30253723,0.31697947,0.19867977,0.17377225,0.24620448,0.22769566,155.1013,155.06804,155.98605,156.0287,0,0,0,0,0,0,0,0,0,0,0,0,-0.00895487,-0.007127212,-0.03848643,-0.035873655,0.19888148,0.17391835,0.2491944,0.2305043,-0.0057276487,-0.0033824183,0.0070768446,0.00879392,164,6,231,2,0,-1837.2468,191.87518,744.2231,49.168674,752288.94,1066.1138,131.07254,127.28426,129.22852,129.22852,0,1,8.446475,0,0,3.638524,3.6385255,0,7,255,0,0,0,1,0,3,0
True,33796859,15999.99,0,6878.5103,-1.6421584,1.2091639,10.012732,0.07814169,-0.333536,50.209892,-0.008310679,-0.0062802113,0.00573964,-1.6852647,-0.008496272,-2.0614645E-05,0.25028527,0.2710061,0.32949415,0.3515989,0.20821218,0.21474093,0.21198879,0.20158388,158.66888,158.78708,158.96127,158.88878,0,0,0,0,0,0,0,0,0,0,0,0,-0.01633985,-0.013764375,-0.018979097,-0.013977153,0.20885235,0.2151816,0.21283668,0.20206787,-0.0019647926,0.00057695806,0.010281824,0.012909912,164,6,231,2,0,-1842.4482,191.87689,743.6418,50.211052,752280.6,1045.0308,131.12575,127.36946,129.37637,129.37637,0,1,11.993587,0,0,3.743812,3.7438133,0,7,255,0,0,0,1,0,1,0
True,33796984,15999.99,0,7036.497,-0.6010052,-0.8514895,9.694059,0.019058228,-0.3059849,51.256283,0.005414909,0.0021069883,0.007579336,-1.6852434,-0.0055793985,0.00040486496,0.22714604,0.24014908,0.31952298,0.33245027,0.19932054,0.18910415,0.2636967,0.26414007,161.80785,161.67458,162.92305,162.91156,0,0,0,0,0,0,0,0,0,0,0,0,-0.0058946176,-0.0040189177,-0.00535475,-0.0014740513,0.19940768,0.18914686,0.26375106,0.26414418,-0.0048031956,-0.0032081604,0.009096328,0.010633286,164,6,231,2,0,-1847.9652,191.88191,743.0121,51.2572,752283.94,1021.2717,131.18561,127.46119,129.52327,129.52327,0,1,15.757059,0,0,3.8532429,3.8532436,0,7,255,0,0,0,1,0,255,0
True,33797093,15999.99,0,7169.005,-0.022674322,0.061046094,8.711705,-0.0012626648,-0.31986606,52.33585,0.0072545367,0.0006882844,-0.0024368525,-1.6850618,-0.0064516473,0.0010767076,0.24441381,0.24665804,0.3218714,0.3318877,0.18707569,0.20095131,0.22083743,0.22004673,165.05763,165.22115,165.79628,165.79312,0,0,0,0,0,0,0,0,0,0,0,0,-0.00093332696,0.0013316382,-0.0010698917,0.002548708,0.18707801,0.20095572,0.22084002,0.2200615,-0.0026850216,-0.00240973,0.009375535,0.0105663985,164,6,231,2,0,-1853.8536,191.88182,742.3365,52.336823,752283.25,1002.582,131.24924,127.55481,129.67941,129.67941,0,1,19.774233,0,0,3.9676285,3.9676292,0,7,255,0,0,0,1,0,253,0
True,33797187,15999.99,0,7303.8906,0.04987842,-0.039857116,8.905267,-0.0011324883,-0.3232886,53.34791,0.0030769312,0.00013018156,0.0027957307,-1.6850268,-0.0062987516,0.0007893586,0.24314386,0.24563703,0.32103717,0.3226318,0.19378111,0.1903175,0.21225818,0.21282482,168.34404,168.3098,168.86914,168.87218,0,0,0,0,0,0,0,0,0,0,0,0,-0.0011111476,0.0011509602,-0.0014233133,0.0016773947,0.19378428,0.19032098,0.21226296,0.21283142,-0.002840802,-0.0025349744,0.009276353,0.00946594,164,6,231,2,0,-1859.6705,191.88324,741.66895,53.34889,752250.56,983.9781,131.3113,127.6461,129.82816,129.82816,0,1,23.742617,0,0,4.0784,4.0784016,0,7,255,0,0,0,1,0,250,0
True,33797312,15999.99,0,7438.953,0.03873533,-0.8147903,8.932921,0.00086069107,-0.31510913,54.297546,0.017409666,-0.00047759016,-0.013536705,-1.6850317,-0.0043987096,0.00042146404,0.23637944,0.22899567,0.3136834,0.316664,0.18143201,0.19271095,0.23268168,0.23160084,171.12288,171.25914,172.1258,172.12993,0,0,0,0,0,0,0,0,0,0,0,0,-0.00024808437,0.0017762784,-0.0007705654,0.0018224973,0.18143219,0.19271915,0.23268294,0.231608,-0.0036705695,-0.0045763105,0.008402042,0.008756418,164,6,231,2,0,-1865.3887,191.88052,741.0128,54.29846,752281.2,966.06085,131.3731,127.732994,129.96889,129.96889,0,1,27.64362,0,0,4.1853137,4.185315,0,7,255,0,0,0,1,0,248,0
True,33797406,15999.99,0,7539.0176,0.05005032,1.2756495,8.813965,0.003481865,-0.3315725,55.258434,-0.04136259,0.0001940006,-0.0014115237,-1.6850442,-0.0073135775,-0.00092715607,0.28032568,0.27516532,0.33449417,0.32470348,0.15245304,0.14125195,0.16740473,0.16879444,173.84427,173.66821,174.29584,174.30667,0,0,0,0,0,0,0,0,0,0,0,0,-0.0015485513,0.00023637597,-0.0023453417,0.0010092629,0.1524609,0.14125215,0.16742115,0.16879746,0.0017201565,0.0010871552,0.010876294,0.009712253,164,6,231,2,0,-1871.3052,191.87677,740.3343,55.259426,752280.2,953.27045,131.44214,127.82893,130.11661,130.11661,0,1,31.679937,0,0,4.293997,4.2939982,0,7,255,0,0,0,1,0,246,0
True,33797515,15999.99,0,7706.0728,-0.030418873,-1.1828735,8.390425,-0.0033540726,-0.29017344,56.128986,0.044331655,0.0008041352,0.020339407,-1.6850009,-0.0043672645,0.00030384192,0.23839684,0.2519325,0.33600664,0.33518052,0.20920153,0.19057211,0.26715216,0.27372262,177.23212,176.9907,178.40193,178.46065,0,0,0,0,0,0,0,0,0,0,0,0,-0.0018770457,0.00039345137,-0.0026872756,0.0020599125,0.20920995,0.19057252,0.26716566,0.27373037,-0.0034231022,-0.0017627329,0.01105611,0.010957893,164,6,231,2,0,-1877.1692,191.88333,739.6615,56.129738,752254,932.52057,131.5021,127.91104,130.25679,130.25679,0,1,35.68048,0,0,4.3999596,4.399961,0,7,255,0,0,0,1,0,244,0
True,33797640,15999.99,0,7781.867,-0.0657447,0.12020476,8.404968,0.0022006035,-0.2929129,57.047863,-0.034167774,-0.0021040859,0.027650334,-1.6852684,-0.0046797344,0.0031669114,0.26004252,0.40256733,0.3091575,0.31547785,0.14371,0.10801261,0.17527153,0.18512635,179.31836,178.82478,179.9849,180.15178,0,0,0,0,0,0,0,0,0,0,0,0,-0.0017718758,0.00012692033,-0.0027532475,-0.00087087764,0.14372092,0.10801268,0.17529315,0.1851284,-0.00076790527,0.016715098,0.007863946,0.008615393,164,6,231,2,0,-1883.2014,191.87587,738.96893,57.04861,752270.8,923.47296,131.57664,128.00781,130.3983,130.3983,0,1,39.795826,0,0,4.507228,4.507229,0,7,255,0,0,0,1,0,242,0
True,33797750,15999.99,0,7932.4014,0.033168375,0.12092202,8.074289,0.0052347183,-0.31995472,58.096546,-0.006691876,0.00022558212,-0.024712943,-1.6852571,-0.005660347,0.0010373421,0.26184523,0.22932495,0.33308005,0.30891046,0.1523628,0.1451734,0.18982448,0.18963084,182.68127,182.57391,183.50404,183.49959,0,0,0,0,0,0,0,0,0,0,0,0,-0.0005473341,0.0010470786,-0.0016595443,0.0013322291,0.15236378,0.14517717,0.18983173,0.18963552,-0.00054677203,-0.004535917,0.010708164,0.007834576,164,6,231,2,0,-1890.657,191.876,738.1121,58.097427,752274.9,905.8967,131.65717,128.11542,130.57259,130.57259,0,1,44.882668,0,0,4.637557,4.637558,0,7,255,0,0,0,1,0,239,0
True,33797890,15999.99,0,8070.1016,-0.52023035,-0.22286981,7.9395633,-0.012105942,-0.31324822,59.086308,-0.002230666,-0.032449014,-0.019935282,-1.686119,-0.005852472,7.232848E-05,0.22150744,0.20473668,0.3040626,0.285442,0.15550317,0.14152074,0.20341909,0.19156888,185.76097,185.67937,186.74055,186.71799,0,0,0,0,0,0,0,0,0,0,0,0,-0.09905603,-0.09568792,-0.004237527,-0.0034945915,0.18437281,0.17083412,0.20346321,0.19160075,-0.005494863,-0.0075520724,0.007258199,0.0050443485,164,6,231,2,0,-1898.0038,191.88228,737.2663,59.08714,752275.25,890.396,131.73848,128.22675,130.73837,130.73837,0,1,49.895145,0,0,4.763746,4.7637467,0,7,255,0,0,0,1,-127,237,0
True,33797984,15999.99,0,8159.056,-3.5526912,1.6925659,7.7586584,0.26313686,-0.29969814,59.914665,-0.0640895,-0.10824078,0.059397824,-1.6989204,-0.009101037,-0.0018572836,0.24284582,0.42943636,0.2882992,0.29188493,0.1297918,0.06854771,0.16443603,0.15849714,187.8677,187.47537,188.64903,189.02968,0,0,0,0,0,0,0,0,0,0,0,0,-0.020892452,-0.017469259,-0.06365306,-0.065249145,0.13146256,0.0707387,0.17632617,0.17140244,-0.002877362,0.020011026,0.005384054,0.005810365,164,6,231,2,0,-1904.3585,191.89357,736.49963,59.915993,752278,880.8179,131.84052,128.36732,130.88431,130.88431,0,1,54.23386,0,0,4.8713026,4.8713036,0,7,255,0,0,0,1,0,235,0
True,33798093,15999.99,0,8243.857,-3.710156,5.9841948,7.5701256,0.17554045,-0.3098115,60.71296,-0.2072771,-0.015965322,-0.056369994,-1.7041515,-0.019760987,-0.0022076727,0.50221765,0.48310947,0.38696733,0.3732983,0.06972371,0.06648963,0.11402683,0.10768618,189.77603,189.81296,190.70828,190.70938,0,0,0,0,0,0,0,0,0,0,0,0,-0.019527368,-0.020547368,-0.029905954,-0.022787645,0.07240658,0.06959213,0.11788335,0.11007084,0.028938845,0.026594914,0.017114963,0.015489809,164,6,231,2,0,-1910.7408,191.94382,735.6822,60.714005,752276.9,871.60693,131.94186,128.49393,131.03804,131.03804,0,1,58.600838,0,0,4.977972,4.977973,0,7,255,0,0,0,1,0,235,0
True,33798203,15999.99,0,8358.54,-1.5048461,7.3515644,7.18275,0.041934967,-0.17620862,61.45903,-0.08175724,0.006235798,-0.05993072,-1.704158,-0.033156596,-0.008297405,0.49270636,0.4198684,0.5268667,0.47390676,0.09294121,0.0916801,0.14262955,0.14180301,192.3656,192.32867,193.43027,193.38818,0,0,0,0,0,0,0,0,0,0,0,0,-0.0056849145,-0.0052342764,-0.02567871,0.011347976,0.093114905,0.091829404,0.14492269,0.14225635,0.027772129,0.018837359,0.033747956,0.02745141,164,6,231,2,0,-1917.181,192.10295,734.82715,61.459293,752276.44,859.6829,132.04385,128.61554,131.22656,131.22656,0,1,63.00588,0,0,5.084338,5.0843387,0,7,255,0,0,0,1,0,235,0
True,33798312,15999.99,0,8452.611,-0.11458999,8.324508,6.8688836,-0.002585411,-0.18896537,62.18202,-0.0781742,0.006434302,-0.05024711,-1.7031446,-0.048293006,-0.013113554,0.4730495,0.4040895,0.5433426,0.5226241,0.1078863,0.13194999,0.11722781,0.11281218,194.9114,195.26184,195.30998,195.24025,0,0,0,0,0,0,0,0,0,0,0,0,0.0006037976,0.0021583016,-0.02063273,0.023478175,0.10788798,0.13196763,0.11902969,0.11522939,0.02536089,0.01690182,0.035706818,0.033243544,164,6,231,2,0,-1923.6581,192.3534,733.9626,62.18231,752276.1,850.1895,132.15657,128.74832,131.40617,131.40617,0,1,67.43863,0,0,5.190092,5.190093,0,7,255,0,0,0,1,0,235,0
True,33798437,15999.99,0,8480.002,-2.3700616,4.7558007,0.786959,-0.29432774,-0.20110376,62.331173,-0.07033105,-0.01400208,-0.058907356,-1.702959,-0.056218907,-0.021981437,0.49759138,0.44027427,0.4730393,0.41612455,0.09369467,0.103334256,0.120893255,0.12554424,195.31215,195.5238,196.02287,196.11838,0,0,0,0,0,0,0,0,0,0,0,0,0.042388055,0.044808306,0.021923348,0.043311406,0.10283695,0.112631045,0.122865014,0.13280524,0.028371356,0.021340474,0.02734828,0.02058154,164,6,231,2,0,-1931.2227,192.7266,732.9365,62.33219,752268.2,847.3769,132.26607,128.86859,131.59207,131.59207,0,1,72.62403,0,0,5.3127503,5.3127503,0,7,255,0,0,0,1,0,236,0
True,33798546,15999.99,0,8549.469,0.80421674,4.9872622,4.962993,-0.022164345,-0.15334648,62.93496,-0.13824275,-0.006443859,-0.077481605,-1.7043839,-0.06367872,-0.028703032,0.51080537,0.4128769,0.5068093,0.3898144,0.07978298,0.08147533,0.12206357,0.123557955,196.82277,196.88052,197.7416,197.79286,0,0,0,0,0,0,0,0,0,0,0,0,0.00809947,0.0075601847,-0.01296062,0.010082749,0.08019305,0.08182534,0.122749716,0.12396867,0.029992267,0.017979737,0.03136328,0.017453454,164,6,231,2,0,-1937.6729,193.09659,732.05804,62.935146,752275.5,840.4117,132.36748,128.97585,131.74756,131.74756,0,1,77.04373,0,0,5.4168963,5.416896,0,7,255,0,0,0,1,0,237,0
True,33798656,15999.99,0,8647.856,0.55056053,5.943352,6.1952887,0.003663063,-0.20922986,63.59307,-0.037610512,0.008493593,-0.104295164,-1.7036216,-0.07554871,-0.03739636,0.47181678,0.3608191,0.5210796,0.43795165,0.121883206,0.121124744,0.1265943,0.12844773,199.49045,199.44144,199.85547,199.85326,0,0,0,0,0,0,0,0,0,0,0,0,0.0012731638,0.0033322352,-0.016238356,0.014756755,0.12188985,0.12117057,0.12763152,0.12929262,0.02520968,0.011593994,0.033059917,0.023176618,164,6,231,2,0,-1944.2185,193.54518,731.17957,63.593414,752274.8,830.9816,132.46494,129.09341,131.92358,131.92358,0,1,81.530914,0,0,5.521509,5.5215087,0,7,255,0,0,0,1,0,237,0
True,33798765,15999.99,0,8751.607,0.60686,2.5372941,6.3359594,0.008673668,-0.23446423,64.355385,-0.05518768,0.008662364,-0.08763374,-1.702305,-0.079514384,-0.04859326,0.39420554,0.29240355,0.42772168,0.34696433,0.09828414,0.11006106,0.13919306,0.13688275,201.50905,201.64629,202.42903,202.37952,0,0,0,0,0,0,0,0,0,0,0,0,0.0002000921,0.0011015519,-0.005000497,0.0062645595,0.09828434,0.11006657,0.13928285,0.13702603,0.015689388,0.0032017045,0.021960348,0.012358896,164,6,231,2,0,-1951.9384,194.12122,730.1526,64.355804,752274.5,821.0124,132.55832,129.20479,132.08679,132.08679,-0.60588646,1,86.82693,0,0,5.643565,5.643565,0,7,255,0,0,0,1,0,237,0
True,33798890,15999.99,0,8845.695,0.56515014,4.462971,6.1873984,0.021317482,-0.24230963,65.08972,-0.05096518,0.008768876,-0.040020652,-1.7008404,-0.088202,-0.05746222,0.4371721,0.36583355,0.4522638,0.39405254,0.099526055,0.10293184,0.12872869,0.1256225,203.81522,203.84973,204.57002,204.49577,0,0,0,0,0,0,0,0,0,0,0,0,0.0016632688,0.003157183,-0.011114459,0.0054601855,0.09953995,0.10298025,0.12920761,0.12574111,0.020959944,0.012209099,0.024878226,0.01795734,164,6,231,2,0,-1959.6782,194.74829,729.1352,65.09017,752273.5,812.34247,132.66347,129.33388,132.2684,132.2684,-5.2304373,1,92.13568,0,0,5.7645464,5.764546,0,7,255,0,0,0,1,0,237,0
True,33799015,15999.99,0,8935.651,0.8647885,4.3699265,6.064555,0.011023521,-0.1945191,65.79082,-0.026668428,0.010965338,-0.04858835,-1.6985835,-0.09497863,-0.06443753,0.452609,0.34523296,0.476562,0.5588912,0.0917271,0.13045786,0.11946549,0.101955734,205.83295,206.48372,206.60722,206.34492,0,0,0,0,0,0,0,0,0,0,0,0,-0.0021956866,-0.0006248856,-0.011006243,0.026946008,0.09175338,0.13045935,0.11997142,0.105456434,0.022853531,0.0096821,0.0277671,0.037555434,164,6,231,2,0,-1967.33,195.42918,728.14325,65.791115,752270.56,804.2116,132.77193,129.45055,132.43605,132.43605,-10.545082,1,97.3863,0,0,5.882895,5.8828945,0,7,255,0,0,0,1,0,237,0
True,33799109,15999.99,0,9027.658,0.721469,1.8500963,5.833543,0.028427124,-0.21843934,66.36835,-0.0351474,0.010197527,-0.07758355,-1.6975768,-0.09710785,-0.073021665,0.4381505,0.32372767,0.46132487,0.38446176,0.107782274,0.104414746,0.14506808,0.14565392,207.9492,207.84868,208.82652,208.79099,0,0,0,0,0,0,0,0,0,0,0,0,-0.0037286922,-0.0024382963,-0.011552398,0.0051319846,0.10784675,0.104443215,0.14552733,0.14574431,0.021079957,0.0070441216,0.02595552,0.016817063,164,6,231,2,0,-1973.9426,196.04999,727.298,66.36871,752267.6,795.8759,132.8519,129.5413,132.5712,132.5712,-14.7,1,101.92935,0,0,5.984215,5.9842143,0,7,255,0,0,0,1,0,236,0
True,33799218,15999.99,0,9102.082,3.9748607,3.322337,5.6995273,0.062287807,-0.23384005,66.95767,-0.052920267,0.15396345,-0.019084914,-1.6915861,-0.102315344,-0.07839391,0.40626296,0.31689075,0.42256567,0.35785374,0.09321563,0.13519286,0.11167083,0.14309737,209.87666,209.86755,210.46732,210.3125,0,0,0,0,0,0,0,0,0,0,0,0,0.23994578,0.26198062,0.008416669,0.020060461,0.25741625,0.29480663,0.11198756,0.14449665,0.017168429,0.006205462,0.021347336,0.013653573,164,6,231,2,0,-1980.7955,196.71658,726.4398,66.958115,752249.94,789.40076,132.96716,129.66443,132.71873,132.71873,-14.7,1,106.63289,0,0,6.088281,6.08828,0,7,255,0,0,0,1,127,235,0
True,33799328,15999.99,0,9238.673,10.645847,0.23821694,5.237891,-0.8070359,-0.21133709,67.49225,0.002566697,0.41914997,0.082106784,-1.6597695,-0.09995435,-0.08018758,0.34698513,0.2988709,0.40599018,0.33517912,0.12619486,0.24418046,0.15707095,0.29793754,212.56465,212.5906,213.65025,213.92429,0,0,0,0,0,0,0,0,0,0,0,0,0.4742997,0.5404814,0.17144574,0.19905888,0.4908007,0.5930803,0.23251866,0.3583172,0.009897031,0.003995031,0.01937664,0.010957729,164,6,231,2,0,-1988.0817,197.44518,725.62616,67.497406,752270.25,777.7668,133.21771,129.90134,132.89188,132.89188,-14.7,1,111.62674,0,0,6.1978602,6.1978593,0,7,255,0,0,0,1,42,232,0
True,33799453,15999.99,0,9320.208,17.850304,1.8695445,5.690318,-1.7955694,-0.24402606,68.1168,0.016158963,0.2510585,0.057838768,-1.610632,-0.10092807,-0.076105386,0.3780005,0.305412,0.42939845,0.38008153,0.094268315,0.2721932,0.14927422,0.27576706,213.81541,215.45288,215.2125,215.94032,0,0,0,0,0,0,0,0,0,0,0,0,0.1976789,0.22876923,0.27234972,0.32932538,0.21900563,0.3555622,0.31057552,0.42953774,0.013701573,0.0047974065,0.022159703,0.01629629,164,6,231,2,0,-1996.5365,198.28639,724.91754,68.1409,752261.06,771.1588,133.48347,130.10736,133.22739,133.22739,-14.7,1,117.447685,0,0,6.3235445,6.3235435,0,7,255,0,0,0,1,0,229,0
True,33799546,15999.99,0,9351.707,16.14146,1.237026,5.889963,-1.089874,-0.26560462,68.683716,-0.017883558,0.02538257,0.025616748,-1.5969881,-0.101687066,-0.073364206,0.3646609,0.28242826,0.41147947,0.3273769,0.10251467,0.16129322,0.12924117,0.16985387,215.16739,216.0024,215.98492,216.38136,0,0,0,0,0,0,0,0,0,0,0,0,0.14898178,0.16207208,0.14018692,0.16477503,0.18084475,0.22865446,0.19067158,0.23664561,0.012065254,0.0019780733,0.020029273,0.010030102,164,6,231,2,0,-2003.4886,198.97627,724.5437,68.69287,752271.5,768.3065,133.65436,130.2427,133.48447,133.48447,-14.7,1,122.19007,0,0,6.425795,6.4257936,0,7,255,0,0,0,1,0,225,0
True,33799671,15999.99,0,9421.276,7.325737,2.1633961,5.5085907,-0.17560995,-0.2919635,69.3239,-0.015498083,-0.026392914,0.023685014,-1.598322,-0.10563114,-0.07111117,0.38651872,0.3689966,0.43263248,0.3738985,0.12037117,0.12892216,0.11967846,0.11986699,217.31369,217.60071,217.5987,217.69354,0,0,0,0,0,0,0,0,0,0,0,0,0.030013815,0.032933805,0.010342402,0.022364292,0.12405663,0.13306224,0.12012451,0.121935464,0.014746472,0.012597099,0.022544205,0.015561175,164,6,231,2,0,-2011.5378,199.78387,724.26294,69.32473,752262.9,762.6897,133.7837,130.37169,133.68767,133.68767,-14.7,1,127.6741,0,0,6.5430784,6.543077,0,6,255,0,0,0,1,0,221,0
True,33799765,15999.99,0,9496.41,1.921903,0.6239277,5.362698,0.052630186,-0.2655983,69.85241,-0.037352502,-0.011861131,0.02146359,-1.600382,-0.10570036,-0.06950011,0.33817077,0.35690507,0.37511322,0.33953378,0.10690509,0.09094441,0.13982005,0.14362358,218.77647,218.56874,219.61499,219.70978,0,0,0,0,0,0,0,0,0,0,0,0,-0.006317889,-0.004968906,-0.013385623,-0.0075620185,0.10709161,0.091080055,0.14045933,0.1438225,0.008815806,0.011113875,0.015705597,0.011475459,164,6,231,2,0,-2018.4619,200.48949,724.05896,69.852936,752253.6,756.5153,133.85861,130.4624,133.82013,133.82013,-14.7,1,132.4574,0,0,6.643135,6.6431336,0,6,255,0,0,0,1,0,220,0
True,33799890,15999.99,0,9580.051,0.11492644,1.5557553,4.963022,0.057075024,-0.21075955,70.45224,-0.013698706,0.00048198947,0.030088447,-1.600593,-0.10854343,-0.064510934,0.3278917,0.3541522,0.38904205,0.40052316,0.11301072,0.11225362,0.14054093,0.14007866,220.7879,220.75871,221.50153,221.50372,0,0,0,0,0,0,0,0,0,0,0,0,-0.010077907,-0.008713303,-0.013685316,-0.0024931314,0.113459185,0.11259128,0.14120567,0.14010085,0.007554911,0.010776192,0.017361626,0.018726647,164,6,231,2,0,-2026.7601,201.35744,723.8171,70.452576,752263.6,749.9251,133.95535,130.58298,133.99457,133.99457,-14.7,1,138.11554,0,0,6.762097,6.762096,0,6,255,0,0,0,1,0,222,0
True,33800000,15999.99,0,9649.899,5.832696,0.9824673,4.735674,-0.042305827,-0.24184376,70.93799,-0.023034288,0.22197704,0.08142396,-1.5898976,-0.10957602,-0.06050351,0.3436701,0.39878216,0.38828716,0.39369848,0.11168161,0.146136,0.1097974,0.16872638,222.73756,222.28601,223.05782,223.03813,0,0,0,0,0,0,0,0,0,0,0,0,0.36897865,0.39256907,0.03066741,0.04375249,0.3855101,0.41888687,0.11399982,0.17430682,0.009490389,0.016250785,0.01727188,0.017915241,164,6,231,2,0,-2034.1282,202.14055,723.62714,70.938416,752270.1,744.5511,134.09749,130.72604,134.14255,134.14255,-14.7,1,143.1904,0,0,6.8669233,6.8669214,0,6,255,0,0,0,1,127,228,0
True,33800109,15999.99,0,9727.921,15.326578,1.7652508,4.478438,-1.2373561,-0.23646598,71.39698,-0.018014714,0.46434274,0.080819905,-1.5461172,-0.11021542,-0.0534672,0.38163027,0.3736116,0.40517083,0.38407433,0.084819466,0.20794348,0.10046685,0.21074776,224.37415,224.20522,224.96555,224.76006,0,0,0,0,0,0,0,0,0,0,0,0,0.17952481,0.20516315,0.20514454,0.2477164,0.1985535,0.29211712,0.22842476,0.32523537,0.014146827,0.013163205,0.01927922,0.016771004,164,6,231,2,0,-2042.5225,203.04205,723.568,71.4081,752265.56,738.524,134.48909,131.04385,134.37012,134.37012,-14.7,1,148.90608,0,0,6.9855404,6.9855385,0,6,255,0,0,0,1,0,235,0
True,33800234,15999.99,0,9785.52,17.462944,0.15360886,4.940914,-1.9178936,-0.21496028,71.86602,-0.029398073,0.19977078,0.10351792,-1.5084774,-0.10807655,-0.048367392,0.3542565,0.33335447,0.40501404,0.3476618,0.08499364,0.17198622,0.107303225,0.1924702,225.2185,225.78004,226.03256,226.48384,0,0,0,0,0,0,0,0,0,0,0,0,0.20631827,0.23640542,0.24733382,0.2980908,0.2231393,0.292347,0.26960713,0.35482797,0.010788985,0.008225009,0.019260582,0.012441825,164,6,231,2,0,-2050.7246,203.92221,723.73883,71.89193,752289.56,734.22125,134.67085,131.19107,134.68323,134.68323,0,1,154.49799,0,0,7.1007,7.100698,0,6,255,0,0,0,1,0,241,0
True,33800328,15999.99,0,9834.267,15.463187,0.6886686,4.688011,-0.9698591,-0.23208429,72.30325,-0.023099445,0.0021270153,0.020910695,-1.5000551,-0.109356165,-0.042867456,0.34947953,0.28193796,0.380631,0.32455447,0.09077995,0.12941018,0.12804194,0.16152918,226.2123,226.85928,227.22739,227.63724,0,0,0,0,0,0,0,0,0,0,0,0,0.12811454,0.13805869,0.11938378,0.13734652,0.157017,0.1892279,0.17506349,0.2120277,0.010203011,0.0019179285,0.016361617,0.009694535,164,6,231,2,0,-2057.8333,204.68393,724.0782,72.31012,752356,730.64343,134.84682,131.31607,134.94568,134.94568,0,1,159.36995,0,0,7.19997,7.1999674,0,6,255,0,0,0,1,0,246,0
True,33800437,15999.99,0,9888.331,6.28976,1.8286692,4.4170394,-0.10782671,-0.26645726,72.8163,-0.018902244,-0.026389414,0.0168243,-1.5027431,-0.113123246,-0.039911337,0.32985762,0.31387258,0.35712326,0.349669,0.095139146,0.10496669,0.12052537,0.12226346,227.7975,228.08557,228.53978,228.65201,0,0,0,0,0,0,0,0,0,0,0,0,0.03113295,0.033091635,0.007142378,0.012510961,0.100103535,0.11005936,0.12073681,0.12290191,0.0077960603,0.005835235,0.0135667175,0.012680467,164,6,231,2,0,-2066.1394,205.58691,724.6032,72.81686,752393.6,726.74524,134.97632,131.44563,135.1474,135.1474,0,1,165.04094,0,0,7.3153214,7.3153186,0,6,255,0,0,0,1,3,252,0
True,33800546,15999.99,0,9973.297,5.079499,-0.30099773,4.139839,-0.040081978,-0.26017553,73.21911,0.041516438,0.16002168,0.061410192,-1.4976617,-0.11213985,-0.037503514,0.31153637,0.34709296,0.3486906,0.39778647,0.13980873,0.17932001,0.1336496,0.1722739,230.18352,230.17613,230.43898,230.3787,0,0,0,0,0,0,0,0,0,0,0,0,0.3424111,0.3636667,0.02363526,0.03288692,0.3698538,0.40547398,0.1357234,0.17538485,0.0055486597,0.009910259,0.012564138,0.018401273,164,6,231,2,0,-2073.3625,206.38327,725.1013,73.21958,752553.56,720.7363,135.08287,131.56386,135.2913,135.2913,0,1,169.97623,0,0,7.4150624,7.4150605,0,6,255,0,0,0,1,127,5,0
True,33800656,15999.99,0,9994.293,11.003763,0.81699026,4.395169,-0.85594034,-0.27642784,73.624855,-0.072528794,0.30489022,0.09882589,-1.4699703,-0.11218656,-0.030090295,0.31793967,0.32784325,0.3273952,0.33707064,0.06656576,0.09646204,0.09013254,0.14847998,230.65015,229.72034,231.3232,230.98294,0,0,0,0,0,0,0,0,0,0,0,0,0.046224773,0.050257415,0.13611071,0.15170489,0.08104153,0.10876918,0.16324829,0.21227501,0.0063341297,0.0075489655,0.010032274,0.011182614,164,6,231,2,0,-2080.6743,207.17593,725.69165,73.63035,752254.2,718.76965,135.34138,131.7938,135.45462,135.45462,0,1,174.95216,0,0,7.515555,7.5155535,0,6,255,0,0,0,1,0,16,0
True,33800781,15999.99,0,10083.6875,10.793322,0.5726399,4.119367,-0.87109375,-0.25461477,74.108925,0.012144666,0.039627217,0.05363253,-1.4502182,-0.11431258,-0.0217118,0.35471895,0.33546448,0.383209,0.3729875,0.09440567,0.16267808,0.13218638,0.15882784,231.97675,233.02495,232.97295,233.19064,0,0,0,0,0,0,0,0,0,0,0,0,0.10465048,0.116439864,0.1100033,0.12523085,0.14094025,0.20005599,0.17197083,0.20225987,0.010845713,0.008483835,0.016668119,0.015452862,164,6,231,2,0,-2089.8062,208.20024,726.6062,74.11448,752260.8,712.4963,135.49832,131.92424,135.7355,135.7355,0,1,181.19958,0,0,7.640557,7.6405554,0,6,255,0,0,0,1,0,30,0
True,33800875,15999.99,0,10134.824,8.645005,-1.1200025,4.037251,-0.32258797,-0.27132908,74.549545,-0.022205666,0.12520365,0.0795988,-1.4459487,-0.11236841,-0.017161876,0.28990728,0.30719203,0.34274322,0.318118,0.090645805,0.13291843,0.11941927,0.15906581,233.42802,233.62383,234.29286,234.40121,0,0,0,0,0,0,0,0,0,0,0,0,0.288036,0.3150191,0.05300458,0.060636807,0.30196258,0.34191278,0.13065392,0.17023148,0.0028954968,0.005015757,0.01185704,0.008929282,164,6,231,2,0,-2097.7083,209.07623,727.51373,74.550735,752266.5,708.82227,135.63312,132.05435,135.9034,135.9034,0,1,186.55627,0,0,7.7482057,7.7482038,0,6,255,0,0,0,1,127,43,0
True,33801000,15999.99,0,10233.662,12.490181,-0.09840533,3.7642732,-1.0744467,-0.23495498,74.94197,0.052621048,0.35681456,0.041234985,-1.4144506,-0.11292363,-0.013448975,0.32831743,0.29210028,0.3944979,0.35683906,0.111273415,0.21104051,0.14557256,0.25415775,235.54854,235.52069,236.66403,236.89168,0,0,0,0,0,0,0,0,0,0,0,0,0.19901508,0.21572411,0.18071307,0.20964488,0.22801048,0.30178633,0.23205298,0.3294649,0.007607132,0.0031645037,0.018010292,0.013532933,164,6,231,2,0,-2106.4639,210.05467,728.6728,74.950035,752265.75,702.03345,135.9863,132.33618,136.12778,136.12778,0,1,192.56102,0,0,7.8670673,7.8670654,0,6,255,0,0,0,1,0,59,0
True,33801125,15999.99,0,10400.596,11.397524,-3.9888763,3.045447,-1.611969,-0.25779146,75.30893,0.13109942,0.08692864,0.03533425,-1.3888952,-0.10739482,-0.009171377,0.25391927,0.22476181,0.35885477,0.31248885,0.21992074,0.56669444,0.25702652,0.32534754,238.11827,244.15016,239.36461,240.01482,0,0,0,0,0,0,0,0,0,0,0,0,0.21130715,0.23152779,0.2289161,0.24973497,0.304985,0.6121664,0.34418777,0.4101446,-0.0015190206,-0.0050956607,0.0137725845,0.008260023,164,6,231,2,0,-2115.2036,211.0152,730.01117,75.326614,739664.2,679.7155,136.13123,132.4747,136.39017,136.39017,0,1,198.52142,0,0,7.9853754,7.985373,0,6,255,0,0,0,1,0,73,0
True,33801234,15999.99,0,10333.268,10.070549,-4.2129846,4.5191236,-1.0266485,-0.35832596,75.839584,0.0386633,-0.012649991,0.05550446,-1.3824854,-0.10082238,-0.006705439,0.19837075,0.189654,0.26987785,0.25656492,0.12544821,0.17966893,0.14584333,0.17582849,237.81075,238.8813,238.57997,239.02357,0,0,0,0,0,0,0,0,0,0,0,0,0.13864937,0.14805847,0.1253881,0.13590142,0.18697836,0.23281373,0.19233422,0.22222704,-0.008332957,-0.009402212,0.003193885,0.00161108,164,6,231,2,0,-2123.821,211.88316,731.4644,75.84738,752410.1,695.45496,136.27599,132.64685,136.61806,136.61806,0,1,204.46017,0,0,8.101565,8.101564,0,6,255,0,0,0,1,0,86,0
True,33801343,15999.99,0,10378.134,7.8023233,-3.0883646,4.2396264,-0.3275032,-0.39908752,76.238945,0.026450815,0.081825845,0.04446485,-1.3823593,-0.09758207,-0.0017306048,0.19997951,0.19467673,0.27733466,0.23890607,0.11632433,0.1933311,0.12819016,0.16019112,239.07385,240.15752,239.6322,239.79106,0,0,0,0,0,0,0,0,0,0,0,0,0.3152245,0.34644374,0.04986077,0.053841054,0.33600274,0.39673692,0.13754568,0.1689972,-0.008135617,-0.00878609,0.0040804446,-0.00048842654,164,6,231,2,0,-2131.0688,212.57758,732.77954,76.24069,752391.9,692.43304,136.39886,132.7594,136.76727,136.76727,0,1,209.46735,0,0,8.198855,8.198855,0,6,255,0,0,0,1,127,96,0
True,33801468,15999.99,0,10433.6045,6.9834747,-2.150458,4.2223935,-0.74753666,-0.4158448,76.729904,0.02869252,0.072313234,0.029534385,-1.3654404,-0.09380933,0.00020243788,0.22877364,0.20530911,0.2927441,0.24784435,0.12358309,0.16510768,0.11103578,0.1405371,240.83315,241.29956,240.8372,240.96477,0,0,0,0,0,0,0,0,0,0,0,0,0.08546857,0.09122193,0.09716803,0.104723975,0.15025865,0.18863188,0.14754854,0.17526491,-0.004603546,-0.0074818544,0.0059125125,0.0005742684,164,6,231,2,0,-2140.2502,213.42076,734.54663,76.73467,752264.7,688.68176,136.57912,132.92764,136.95323,136.95323,0,1,215.85051,0,0,8.321598,8.321598,0,6,255,0,0,0,1,0,105,0
True,33801562,15999.99,0,10534.542,4.205704,-5.756485,4.2883177,-0.46290398,-0.38582307,77.13967,0.053063158,-0.0036403332,0.027693637,-1.3638109,-0.084728055,0.0028297678,0.20824812,0.16863656,0.27833495,0.23044221,0.16333698,0.19440271,0.18695341,0.20349714,242.69193,243.24226,243.32445,243.60522,0,0,0,0,0,0,0,0,0,0,0,0,0.062367253,0.06521722,0.057987716,0.06067479,0.1748389,0.20505048,0.19574001,0.21234998,-0.0071213357,-0.0119803455,0.0041993707,-0.0014947169,164,6,231,2,0,-2148.1667,214.10107,736.1405,77.14203,752265.44,681.81305,136.6533,133.01779,137.09938,137.09938,0,1,221.34166,0,0,8.426954,8.426954,0,6,255,0,0,0,1,0,110,0
True,33801687,15999.99,0,10571.9795,-4.42917,-3.554889,4.006733,-0.024438858,-0.38497853,77.63129,0.027414406,-0.2390616,-0.043322176,-1.3760695,-0.07893013,0.0039679445,0.24362616,0.20289746,0.32047382,0.28045908,0.21191998,0.12333749,0.17823689,0.12040303,244.36118,243.78572,244.18488,244.21251,0,0,0,0,0,0,0,0,0,0,0,0,-0.5685986,-0.50482684,-0.031797055,-0.028418431,0.60680676,0.5196752,0.18105093,0.12371134,-0.0027816407,-0.0077776834,0.009209376,0.0044519156,164,6,231,2,0,-2157.1057,214.7974,737.94794,77.63225,752264,679.6004,136.81067,133.212,137.24248,137.24248,0,1,227.63867,0,0,8.54513,8.545131,0,5,255,0,0,0,1,-127,113,0
True,33801781,15999.99,0,10626.424,-11.003558,-1.2829465,4.3862095,1.3393908,-0.3526438,77.994995,0.06390671,-0.3202717,-0.049897324,-1.4099892,-0.07737197,0.00078575214,0.27245256,0.2883559,0.31845546,0.31386518,0.24036123,0.123503566,0.18184286,0.10457453,246.12564,245.29407,245.23262,245.26953,0,0,0,0,0,0,0,0,0,0,0,0,-0.12391775,-0.11125237,-0.21727031,-0.19418153,0.27042398,0.1662234,0.28332528,0.22055,0.0007543899,0.002705194,0.0089694075,0.00842366,164,6,231,2,0,-2164.8003,215.37367,739.39484,78.007286,752630.9,676.65436,137.0392,133.52185,137.38068,137.38068,0,1,232.96025,0,0,8.6460085,8.6460085,0,5,255,0,0,0,1,0,116,0
True,33801906,15999.99,0,10675.39,-13.177833,-3.1083782,5.052133,1.9905052,-0.32992488,78.45992,-0.03450784,-0.15568897,-0.046567068,-1.4370083,-0.07030446,0.001453614,0.1994773,0.28127912,0.20760182,0.29759496,0.14963579,0.08019144,0.18338278,0.1148589,246.23322,245.62686,247.05447,246.69438,0,0,0,0,0,0,0,0,0,0,0,0,-0.2731251,-0.23843421,-0.2780573,-0.23908548,0.3114293,0.25155824,0.33308423,0.2652441,-0.008197222,0.001837112,-0.004210271,0.006489251,164,6,231,2,0,-2173.8914,216.00334,740.9555,78.48586,752261.8,672.837,137.185,133.7049,137.5738,137.5738,0,1,239.37282,0,0,8.764224,8.764224,0,5,255,0,0,0,1,-25,119,0
True,33802000,15999.99,0,10786.09,-14.349654,-2.1315882,3.8234823,1.4495621,-0.30767033,78.81174,0.06560375,-0.15690501,0.060535822,-1.4499652,-0.06829803,0.003071296,0.16088404,0.3064295,0.24243094,0.3748828,0.3540011,0.1613165,0.23399125,0.15989108,250.95554,248.06194,249.13194,248.62447,0,0,0,0,0,0,0,0,0,0,0,0,-0.6663218,-0.592282,-0.2206382,-0.19434106,0.7545207,0.61385745,0.32161018,0.2516617,-0.012931317,0.0049222186,-6.934628E-05,0.0156782,164,6,231,2,0,-2181.786,216.53241,742.132,78.82566,752259.25,666.2148,137.34274,133.98717,137.74817,137.74817,-0.048822403,1,244.79507,0,0,8.865913,8.865913,0,5,255,0,0,0,1,-127,122,0
True,33802109,15999.99,0,10779.606,-12.2223015,-2.6164706,4.7784414,1.3236551,-0.34584278,79.33523,-0.015415395,-0.058034018,-0.0055929967,-1.4655229,-0.0631488,0.008888245,0.21099308,0.3065967,0.21379644,0.3437919,0.12890162,0.08602078,0.14920501,0.11164727,248.76819,248.2063,249.3412,249.05869,0,0,0,0,0,0,0,0,0,0,0,0,-0.16294222,-0.14880618,-0.17520553,-0.15453967,0.20776379,0.17188035,0.23012847,0.19065052,-0.0067846216,0.0049427263,-0.0034737773,0.011981718,164,6,231,2,0,-2191.0674,217.10033,743.3547,79.34701,752260.5,666.409,137.53008,134.23108,137.91556,137.91556,-1.3235455,1,251.15048,0,0,8.984519,8.984519,0,5,255,0,0,0,1,0,126,0
True,33802234,15999.99,0,10851.68,-7.774173,-0.16612838,4.1351676,0.31529236,-0.34134996,79.80828,0.058110476,0.04437159,0.11089191,-1.4645284,-0.06352283,0.014759297,0.15410285,0.32218707,0.21778703,0.38666806,0.16861619,0.14420287,0.12420662,0.12085186,251.17714,250.54266,250.57745,250.38547,0,0,0,0,0,0,0,0,0,0,0,0,-0.058380645,-0.05537572,-0.038074568,-0.03132079,0.17843688,0.15446986,0.12991133,0.12484456,-0.013763143,0.0068551414,-0.0029993244,0.01707938,164,6,231,2,0,-2200.1965,217.64783,744.4066,79.80964,752605.9,662.5385,137.6255,134.40326,138.083,138.083,0,1,257.5129,0,0,9.100185,9.100185,0,5,255,0,0,0,1,0,127,0
True,33802328,15999.99,0,10912.563,-2.139182,-2.1919878,4.288023,-0.09099674,-0.41039056,80.20018,0.02497105,0.023505252,0.20304675,-1.4605728,-0.060297824,0.025779234,0.18603303,0.28393403,0.19424261,0.29568246,0.31035703,0.08691073,0.09776269,0.11881742,255.46115,250.66328,251.35414,251.55965,0,0,0,0,0,0,0,0,0.120000005,0,0,0,-0.0072860285,0.0001802154,0.0050149313,0.007548396,0.31044254,0.08691092,0.09789123,0.11905695,-0.009846382,0.0021627806,-0.005798582,0.006261863,164,6,231,2,0,-2207.9482,218.0893,745.2588,80.20129,752678,659.0394,137.70537,134.49539,138.19286,138.19286,0,1,262.80713,0,0,9.197811,9.197811,0,5,255,0,0,0,1,0,127,0
True,33802453,15999.99,0,11001.408,0.266688,1.2164025,3.4285002,0.0071516037,-0.4412156,80.60937,0.02378535,-0.03896709,-0.057615098,-1.4610807,-0.062036403,0.032168284,0.30962345,0.27922037,0.28579375,0.36344504,0.31735218,0.1456086,0.06657795,0.233569,257.06876,253.44443,252.20502,254.65833,0,0,0,0,0,0,0,0,0.120000005,0,0.120000005,0,-0.0052143033,0.009030717,-0.0022393337,-0.00072975317,0.317395,0.14588839,0.0666156,0.23357014,0.0053140074,0.0015845746,0.0050861686,0.014318332,164,6,231,2,0,-2217.0117,218.59656,746.2562,80.61058,751536.8,652.2591,137.86566,134.59622,138.33817,138.33817,0,1,269.1324,0,0,9.311364,9.311364,0,5,255,0,0,0,1,0,127,0
True,33802562,15999.99,0,11064.686,-1.5873668,-1.8176104,3.8759012,0.3247671,-0.3963678,81.04268,-0.023328735,-0.05714808,0.12503676,-1.4670478,-0.058577172,0.024852453,0.110818796,0.2831668,0.1631607,0.28855208,0.103101656,0.07569875,0.31278723,0.15440452,253.51251,253.40907,257.9797,255.32935,0,0,0,0,0,0,0,0,0,0,0,0,-0.03298773,-0.031438638,-0.06479176,-0.049029272,0.108250365,0.08196761,0.31942734,0.16200194,-0.01907264,0.0020686686,-0.009493992,0.005414117,164,6,231,2,0,-2226.273,219.11682,747.2726,81.044304,752867,650.26276,137.99973,134.72005,138.59102,138.59102,0,1,275.4571,0,0,9.426813,9.426814,0,5,255,0,0,0,1,0,127,0
True,33802671,15999.99,0,11056.304,-2.8808172,1.7588795,3.857856,0.12017918,-0.38684228,81.509735,0.031450085,0.0013547373,0.058498137,-1.469492,-0.06174521,0.035367187,0.24426337,0.3339841,0.30023605,0.39653206,0.104291975,0.10596611,0.10490514,0.1028872,255.16086,255.18143,255.44534,255.41725,0,0,0,0,0,0,0,0,0,0,0,0,-0.018919107,-0.016700042,-0.016032673,-0.010123673,0.1059941,0.10727399,0.10612321,0.10338406,-0.0027034767,0.008302242,0.0068032555,0.018252134,164,6,231,2,0,-2235.5679,219.63655,748.252,81.51074,752479.1,650.06854,138.11012,134.8556,138.74841,138.74841,0,1,281.9461,0,0,9.5419445,9.541946,0,5,255,0,0,0,1,0,123,0
True,33802781,15999.99,0,11101.5,-2.398873,-0.6608638,3.7776632,-0.03443241,-0.34272587,81.87606,-0.020726379,-0.05681561,0.029219514,-1.4700627,-0.059238203,0.04041684,0.23425244,0.31225902,0.2677017,0.32567996,0.09110556,0.076261766,0.11204266,0.10129488,255.93924,255.87816,256.62228,256.65906,0,0,0,0,0,0,0,0,0,0,0,0,-0.15239419,-0.14448571,-0.004550227,-0.0030491673,0.17755058,0.1633768,0.112135015,0.10134077,-0.0039314814,0.005637303,0.00293516,0.009828344,164,6,231,2,0,-2243.5405,220.08194,749.0688,81.87678,752265.25,647.12146,138.1858,134.9522,138.86746,138.86746,0,1,287.38132,0,0,9.640202,9.640205,0,5,255,0,0,0,1,-127,115,0
True,33802890,15999.99,0,11169.254,-10.742907,2.709242,3.02996,0.5511446,-0.24767908,82.23529,0.055801943,-0.30908063,0.004904552,-1.493376,-0.061572567,0.041888632,0.34516513,0.43115804,0.3904074,0.4897685,0.19699176,0.098795466,0.13092281,0.07992745,258.50177,258.01837,257.60867,257.9514,0,0,0,0,0,0,0,0,0,0,0,0,-0.08103537,-0.0716604,-0.10603948,-0.079984196,0.21300818,0.12204818,0.16847894,0.113074616,0.009673778,0.020222217,0.01752396,0.029337257,164,6,231,2,0,-2253.0117,220.62654,749.9501,82.23751,752502.56,643.53094,138.40984,135.26526,139.03882,139.03882,-0.8085222,1,293.9181,0,0,9.756294,9.756297,0,5,255,0,0,0,1,0,105,0
True,33803015,15999.99,0,11235.559,-9.727621,-4.241803,4.050568,1.5392232,-0.2674836,82.60143,0.030450765,-0.1269769,-0.035221167,-1.5168424,-0.052571822,0.044203993,0.25678706,0.30300167,0.29573646,0.36846676,0.14869426,0.12150309,0.17001331,0.11033106,259.16504,259.22495,259.82657,259.44104,0,0,0,0,0,0,0,0,0,0,0,0,-0.17140597,-0.16452263,-0.20582719,-0.17527752,0.22691406,0.20452555,0.2669632,0.20711145,-0.0011672415,0.0045017377,0.006268285,0.014915381,164,6,231,2,0,-2262.2554,221.12672,750.6855,82.6162,752155,639.2217,138.50331,135.39201,139.18564,139.18564,-4.1689177,1,300.2047,0,0,9.868985,9.868987,0,5,255,0,0,0,1,0,94,0
True,33803125,15999.99,0,11304.762,-8.489188,-5.098855,3.390265,0.73648167,-0.32227,82.987854,0.04757158,0.028849747,-0.022672167,-1.5197443,-0.046536416,0.037831977,0.21337125,0.2350434,0.25554496,0.307012,0.14879641,0.108008794,0.18765788,0.16696642,260.70193,259.81992,261.7003,261.33945,0,0,0,0,0,0,0,0,0,0,0,0,-0.09884876,-0.09324264,-0.08848184,-0.082756065,0.17863776,0.14268878,0.20747171,0.18635008,-0.0064929016,-0.0038344562,0.0014898144,0.0076088607,164,6,231,2,0,-2271.824,221.57631,751.311,82.99173,752222.9,635.34467,138.5937,135.53282,139.33165,139.33165,-8.828886,1,306.70572,0,0,9.984916,9.984919,0,5,255,0,0,0,1,0,86,0
True,33803218,15999.99,0,11310.985,-4.3448634,-2.5632138,3.303598,0.0982399,-0.36370128,83.33955,0.03699841,0.036793355,-0.024284968,-1.5162822,-0.0447322,0.036247555,0.27452645,0.28971854,0.28663048,0.33211005,0.098032795,0.114044264,0.11580866,0.117732346,260.8272,260.98853,261.44272,261.34018,0,0,0,0,0,0,0,0,0,0,0,0,-0.019189633,-0.017599074,-0.0062675653,-0.004656363,0.099893294,0.1153942,0.11597814,0.11782439,0.0010087863,0.002872344,0.005185649,0.010592837,164,6,231,2,0,-2279.8345,221.90942,751.77124,83.34039,752378.2,635.30133,138.67024,135.63422,139.44539,139.44539,-13.295407,1,312.1471,0,0,10.081463,10.081466,0,5,255,0,0,0,1,0,81,0
True,33803328,15999.99,0,11368.576,-0.6807738,-3.903551,3.4949586,-0.114145756,-0.33783397,83.66756,0.029107299,0.017582145,-0.0073608365,-1.5134948,-0.039629046,0.033721276,0.2712008,0.25174096,0.34153885,0.33108947,0.08805318,0.10207186,0.14679697,0.14580362,261.5968,261.80475,263.03735,262.98657,0,0,0,0,0,0,0,0,0,0,0,0,0.00959767,0.011233842,0.013679953,0.017715631,0.0885747,0.102688186,0.14743301,0.14687593,0.0006008409,-0.0017862283,0.011713851,0.010471497,164,6,231,2,0,-2288.0286,222.22092,752.22906,83.66832,752262.56,631.8997,138.72823,135.7101,139.55736,139.55736,-14.7,1,317.71216,0,0,10.179813,10.179814,0,5,255,0,0,0,1,0,76,0
True,33803437,15999.99,0,11406.323,0.56638384,-0.8489679,3.3215106,-0.08172655,-0.3119126,84.02538,0.048852116,-0.0018243374,-0.0144712925,-1.5127587,-0.039017268,0.03158489,0.30701438,0.28266972,0.36539716,0.33319324,0.10846064,0.10142648,0.12139151,0.122954726,263.07327,262.95135,263.63632,263.65546,0,0,0,0,0,0,0,0,0,0,0,0,0.009901133,0.011782367,0.006392054,0.011673176,0.10891163,0.102108546,0.12155969,0.123507604,0.004993964,0.002007693,0.014550425,0.01072162,164,6,231,2,0,-2296.9023,222.53745,752.7326,84.026,752251.9,629.9344,138.82219,135.815,139.71019,139.71019,-14.7,1,323.7389,0,0,10.285865,10.285866,0,5,255,0,0,0,1,0,71,0
True,33803546,15999.99,0,11458.501,0.16893393,-3.9409144,3.349986,-0.023327827,-0.32421434,84.45272,0.0032202718,-0.0034221897,-0.027656049,-1.5130341,-0.03260874,0.029459422,0.26574358,0.23196857,0.2911457,0.27083364,0.08787512,0.09082942,0.12015023,0.119362295,264.04346,264.1129,264.9227,264.9296,0,0,0,0,0,0,0,0,0,0,0,0,0.003700811,0.004611309,0.003092674,0.0029442536,0.087953016,0.0909464,0.12019003,0.1193986,-6.8575144E-05,-0.0042116344,0.005722478,0.0033075213,164,6,231,2,0,-2307.5188,222.87492,753.34314,84.45334,752263.75,626.8534,138.90211,135.91185,139.84451,139.84451,-14.7,1,330.94794,0,0,10.412173,10.412173,0,5,255,0,0,0,1,0,64,0
True,33803671,15999.99,0,11500.085,-0.09299051,-0.1762335,3.3394327,-0.004799843,-0.321953,84.83339,0.025560845,-0.0019685214,-0.018344555,-1.5133879,-0.03299337,0.02740748,0.3143253,0.2923666,0.35813493,0.32877004,0.08922812,0.10138879,0.099577725,0.098318554,265.2175,265.48334,265.72635,265.70944,0,0,0,0,0,0,0,0,0,0,0,0,0.00056676223,0.0024332046,-0.0018643006,0.0021472748,0.08922993,0.10141798,0.099595174,0.098342,0.005890768,0.0031971745,0.013687003,0.010195736,164,6,231,2,0,-2317.2444,223.1567,753.90356,84.834,752384,624.8573,139.0013,136.02937,140.00906,140.00906,-14.7,1,337.55002,0,0,10.527302,10.527301,0,5,255,0,0,0,1,0,58,0
True,33803765,15999.99,0,11541.923,-0.09106925,-1.9053347,3.170555,-0.0040507317,-0.3098547,85.15418,-0.0095592905,-0.0003548709,-0.014217507,-1.5134258,-0.029889623,0.023771508,0.34758905,0.33261064,0.36109662,0.3372809,0.084510915,0.07438611,0.10397578,0.104153484,266.13806,265.95993,266.8323,266.82544,0,0,0,0,0,0,0,0,0,0,0,0,0.0002976176,0.0015617409,-0.0019774346,0.0026636291,0.08451144,0.0744025,0.103994586,0.10418754,0.009971112,0.008133765,0.014039122,0.01120761,164,6,231,2,0,-2325.5295,223.38326,754.37994,85.15474,752263.75,622.3745,139.07138,136.1153,140.12656,140.12656,-14.7,1,343.17514,0,0,10.624984,10.624982,0,5,255,0,0,0,1,0,53,0
True,33803875,15999.99,0,11622.732,1.3619552,-2.9778214,3.0245292,-0.163589,-0.2848492,85.51409,0.050938323,0.05669446,-0.003911297,-1.5095572,-0.026986847,0.022314163,0.316088,0.2912075,0.3611379,0.32361904,0.110467605,0.11256655,0.13902397,0.15054178,267.91202,267.6972,268.78064,268.7293,0,0,0,0,0,0,0,0,0,0,0,0,0.008105302,0.009990531,0.02267335,0.027666152,0.110764556,0.11300902,0.14086074,0.15306288,0.0061069913,0.0030549914,0.014044035,0.0095833205,164,6,231,2,0,-2335.5657,223.64479,754.9651,85.514725,752317.7,618.11053,139.16362,136.22198,140.28287,140.28287,0,1,349.98926,0,0,10.742823,10.742822,0,5,255,0,0,0,1,0,47,0
True,33804000,15999.99,0,11631.986,2.1869173,-0.777571,3.5969746,-0.21567059,-0.32585004,85.909386,-0.06408497,0.011519105,-0.05106914,-1.5059755,-0.025866441,0.019035492,0.35681275,0.2842698,0.32938668,0.27073807,0.060151193,0.064189136,0.087070785,0.09190827,268.0852,268.1095,268.91046,268.94138,0,0,0,0,0,0,0,0,0,0,0,0,0.022433374,0.023091713,0.02400895,0.025747374,0.06419831,0.06821637,0.090320274,0.095446624,0.01110255,0.0022039711,0.010269046,0.003296163,164,6,231,2,0,-2345.4592,223.86041,755.5672,85.91027,752254.75,617.5806,139.27148,136.3307,140.42636,140.42636,0,1,356.70618,0,0,10.858484,10.858484,0,5,255,0,0,0,1,0,40,0
True,33804093,15999.99,0,11701.746,1.2765619,-1.7629592,3.1365016,-0.07285261,-0.27824455,86.20093,-0.009757806,-0.004556688,-0.04354127,-1.5061176,-0.024176553,0.014961082,0.3738468,0.32430688,0.38021514,0.3313622,0.07304669,0.07549773,0.13996564,0.13897416,269.218,269.2865,270.81097,270.75644,0,0,0,0,0,0,0,0,0,0,0,0,0.009588421,0.0105957575,0.0052620894,0.011161598,0.07367331,0.07623764,0.14006452,0.13942166,0.013192054,0.0071151704,0.016312174,0.010503922,164,6,231,2,0,-2353.897,224.04967,756.1023,86.2014,752180.25,613.7625,139.34854,136.419,140.56981,140.56981,0,1,362.43524,0,0,10.956758,10.956758,0,4,255,0,0,0,1,0,33,0
True,33804218,15999.99,0,11762.368,0.26360855,-2.8275132,2.974394,-0.005587578,-0.27614138,86.55811,0.03026674,-0.0030580314,-0.003645407,-1.5065464,-0.022095006,0.012014823,0.33069888,0.31083572,0.3610651,0.32271558,0.09412135,0.10261521,0.1512168,0.14420494,270.71902,270.9416,272.13678,272.03818,0,0,0,0,0,0,0,0,0,0,0,0,0.0004708036,0.002122238,-0.0029260877,0.0017941041,0.09412253,0.10263715,0.15124512,0.1442161,0.007899255,0.0054627135,0.014035374,0.009475905,164,6,231,2,0,-2364.0059,224.26404,756.75165,86.558556,752262.6,610.7038,139.43735,136.52841,140.7233,140.7233,0,1,369.29843,0,0,11.074039,11.074041,0,4,255,0,0,0,1,0,25,0
True,33804328,15999.99,0,11781.438,0.00085631013,-1.8897251,3.2490473,0.00455904,-0.28451148,86.94168,-0.028940368,0.0001488939,-0.013358148,-1.5067118,-0.019749485,0.008928223,0.33897698,0.3071856,0.3780326,0.3431156,0.06934273,0.06973343,0.106700584,0.10378045,271.43814,271.45343,272.4515,272.41483,0,0,0,0,0,0,0,0,0,0,0,0,-0.00043705094,0.00011445236,-0.0039159805,0.0020807106,0.06934411,0.06973353,0.106772415,0.1038013,0.008914702,0.005014967,0.016052686,0.011901315,164,6,231,2,0,-2374.1438,224.44037,757.4035,86.942154,752215.06,609.701,139.52963,136.6345,140.86287,140.86287,0,1,376.1816,0,0,11.191155,11.191156,0,4,255,0,0,0,1,0,18,0
True,33804453,15999.99,0,11859.908,-0.007725671,-2.4153223,2.9048517,-0.00013160706,-0.26952454,87.26557,0.076856,0.0007904393,-0.041356064,-1.5066103,-0.01761476,0.004677163,0.35731387,0.31798384,0.41278738,0.37673065,0.14559539,0.13354942,0.1277973,0.12786326,274.02524,273.7365,273.9081,273.90894,0,0,0,0,0,0,0,0,0,0,0,0,-0.000121286284,0.002886275,-0.0062226877,0.0055559454,0.14559545,0.1335806,0.12794872,0.1279839,0.011164021,0.0063395463,0.02018477,0.015897896,164,6,231,2,0,-2383.982,224.60402,758.0356,87.26598,752502.9,606.08466,139.61667,136.73247,141.01619,141.01619,0,1,382.8593,0,0,11.3043375,11.3043375,0,4,255,0,0,0,1,0,10,0
True,33804562,15999.99,0,11904.484,0.037577406,-4.1355534,2.9893675,0.0026164055,-0.3549146,87.61956,0.082363985,-0.0002789909,-0.016251994,-1.5066085,-0.0113843,0.0029859883,0.2984131,0.2697371,0.34018418,0.32325915,0.1600287,0.18123338,0.10612262,0.0994352,275.4784,275.9586,274.57553,274.42636,0,0,0,0,0,0,0,0,0,0,0,0,-0.0012371645,0.002505086,-0.0017923262,0.0014496951,0.16003348,0.18125069,0.10613775,0.09944577,0.003938876,0.00042129308,0.011552792,0.009540532,164,6,231,2,0,-2393.9138,224.70396,758.6743,87.62028,752531.8,603.9394,139.68661,136.8167,141.1313,141.1313,0,1,389.6021,0,0,11.418163,11.418163,0,4,255,0,0,0,1,0,2,0
True,33804656,15999.99,0,12072.051,-0.019047841,-10.49157,2.40736,0.009078503,-0.39814645,87.808754,0.008966075,-0.0020550669,-0.0025156178,-1.5066624,0.0015667374,0.0016307974,0.15073633,0.13371025,0.1934872,0.18632689,0.18677333,0.18851535,0.32684752,0.33753118,276.9156,276.97894,279.70908,279.8893,0,0,0,0,0,0,0,0,0,0,0,0,-0.00076602853,-0.0005893813,-0.002688408,0.0008049481,0.18677491,0.18851627,0.32685858,0.33753213,-0.0141761005,-0.01626463,-0.005888395,-0.006739702,164,6,231,2,0,-2402.517,224.70413,759.2277,87.80965,730328.8,576.2548,139.74579,136.89085,141.21626,141.21626,0,1,395.4395,0,0,11.516521,11.516521,0,4,255,0,0,0,1,0,252,0
True,33804765,15999.99,0,11968.63,-0.08664517,-3.3041513,3.5105834,0.009101868,-0.47073296,88.21681,0.03376307,-0.00031685855,0.0023094486,-1.5067858,0.0022250032,0.0017962131,0.22274849,0.23576194,0.26905033,0.2869987,0.081194185,0.08762995,0.12519573,0.12475183,275.6079,275.733,276.8074,276.81168,0,0,0,0,0,0,0,0,0,0,0,0,-0.0016922787,-0.0003210576,-0.0014660755,-0.0011393684,0.08121182,0.08763054,0.12520431,0.12475703,-0.005342629,-0.0037463158,0.0030955002,0.005229432,164,6,231,2,0,-2411.3699,224.64651,759.79675,88.21806,752261.5,600.22485,139.8336,136.99542,141.37344,141.37344,0,1,401.44916,0,0,11.617264,11.617264,0,4,255,0,0,0,1,0,245,0
True,33804875,15999.99,0,12020.06,-0.057646498,0.21879965,2.8882225,0.0044202805,-0.30696803,88.531555,0.096531376,0.00043076396,-0.00553815,-1.506782,0.002980591,0.0009282537,0.29090676,0.28704402,0.34177202,0.33276868,0.12787648,0.13495302,0.11520954,0.11370868,277.53552,277.6906,277.593,277.585,0,0,0,0,0,0,0,0,0,0,0,0,-0.001757438,0.0009975971,-0.0025161887,0.0014904424,0.12788855,0.1349567,0.11523701,0.11371845,0.0030180998,0.0025442727,0.011741571,0.010671139,164,6,231,2,0,-2420.582,224.5859,760.388,88.53209,752256.25,597.92725,139.92896,137.10622,141.5303,141.5303,0,1,407.70218,0,0,11.721698,11.721699,0,4,255,0,0,0,1,0,238,0
True,33805000,15999.99,0,12044.746,-0.034487844,-0.4295991,3.3992326,-0.0026011467,-0.33761743,88.93466,0.0038344082,0.0006001512,-0.012808932,-1.5067043,0.0057596858,0.0005623362,0.27858377,0.2688684,0.3092859,0.3038709,0.08109546,0.087033935,0.087193966,0.08712402,277.88632,278.00766,278.2835,278.29025,0,0,0,0,0,0,0,0,0,0,0,0,-0.00010449888,0.0013151106,0.00016641871,0.00094062294,0.081095524,0.08704387,0.08719412,0.08712909,0.0015064813,0.00031473115,0.0078792125,0.0072354116,164,6,231,2,0,-2431.5457,224.48119,761.0913,88.93531,752262.6,596.50574,140.02667,137.22308,141.66823,141.66823,0,1,415.14523,0,0,11.845513,11.845515,0,4,255,0,0,0,1,0,229,0
True,33805109,15999.99,0,12093.479,0.039683625,-0.47836044,3.034373,-0.0014829636,-0.3480754,89.30429,-0.020291775,6.1882456E-05,0.0075979833,-1.5066713,0.0069264527,-1.42980425E-05,0.24459682,0.25411132,0.27328557,0.27533153,0.070083044,0.06863941,0.09267461,0.09314794,278.8029,278.77194,279.56256,279.5705,0,0,0,0,0,0,0,0,0,0,0,0,-0.00031172938,8.643883E-05,-7.24104E-06,-0.00013751283,0.07008374,0.068639465,0.09267461,0.093148045,-0.002662573,-0.0014954619,0.003599044,0.0038422868,164,6,231,2,0,-2442.2727,224.3667,761.7798,89.30497,752253.25,594.02325,140.11884,137.33739,141.82144,141.82144,0,1,422.4271,0,0,11.966135,11.966138,0,4,255,0,0,0,1,0,221,0
True,33805203,15999.99,0,12160.921,-0.008788168,0.63113046,2.853362,-0.003545761,-0.29743093,89.59039,0.078455,0.00017489199,0.023572195,-1.5066682,0.0060869,0.0018627723,0.27637935,0.29217017,0.3270996,0.3388244,0.11807518,0.13193437,0.11468887,0.111272484,280.62238,280.98135,280.90817,280.84567,0,0,0,0,0,0,0,0,0,0,0,0,-0.0015154409,0.0007385723,-0.0018713364,0.0016194724,0.1180849,0.13193645,0.11470414,0.11128427,0.0012360737,0.0031730793,0.009997133,0.011391122,164,6,231,2,0,-2451.164,224.28325,762.3505,89.59089,752603.94,591.16876,140.20517,137.44386,141.97708,141.97708,0,1,428.4632,0,0,12.065735,12.065738,0,4,255,0,0,0,1,0,214,0
True,33805312,15999.99,0,12186.962,-0.021156922,-1.0932398,3.2303088,0.0037841797,-0.3326603,89.97821,-0.021284273,-0.000493119,-0.009053137,-1.5066998,0.008506534,0.00052951905,0.27688652,0.28011757,0.2883254,0.28776166,0.070154294,0.06577836,0.09821307,0.0980034,280.90005,280.8179,281.77182,281.77347,0,0,0,0,0,0,0,0,0,0,0,0,-0.0002964716,0.00028851847,7.680507E-05,-0.0003217924,0.07015492,0.06577899,0.0982131,0.09800393,0.0012982897,0.0016946308,0.0053871647,0.005320143,164,6,231,2,0,-2461.4192,224.16243,763.009,89.97882,752278.7,589.49066,140.29115,137.54199,142.10106,142.10106,0,1,435.4262,0,0,12.180196,12.180197,0,4,255,0,0,0,1,0,206,0
True,33805437,15999.99,0,12237.091,-0.09385453,2.3637152,3.0729795,-0.004896164,-0.24197759,90.32363,-0.0034375929,-0.00030906912,0.0007784419,-1.5067974,0.0050989203,0.001229032,0.33944315,0.3382045,0.37552845,0.37804163,0.07303584,0.07000243,0.1025839,0.10280683,282.0415,281.98065,282.931,282.93585,0,0,0,0,0,0,0,0,0,0,0,0,7.677527E-05,0.0009729948,-0.0031699946,0.004071276,0.07303588,0.07000919,0.102632865,0.102887414,0.008971885,0.008819945,0.01575496,0.016053762,164,6,231,2,0,-2471.511,224.06737,763.6562,90.32395,752342.1,587.15356,140.40573,137.68211,142.28267,142.28267,0,1,442.2774,0,0,12.292361,12.292363,0,4,255,0,0,0,1,0,199,0
True,33805546,15999.99,0,12283.682,-0.062000863,0.2936701,2.9186723,-0.009926319,-0.2834889,90.66166,0.0031051622,6.0177572E-05,-3.458257E-05,-1.5067986,0.0045796093,0.0010183447,0.27350432,0.25586218,0.3144121,0.29967338,0.0881873,0.07940138,0.09671043,0.09738906,283.4169,283.22986,283.87567,283.88754,0,0,0,0,0,0,0,0,0,0,0,0,0.00055449334,0.0015288716,0.00026636716,0.0013109448,0.08818904,0.0794161,0.09671079,0.09739788,0.00088340417,-0.0012806915,0.008488681,0.006736353,164,6,231,2,0,-2481.394,223.99217,764.28864,90.66211,752348.56,584.93787,140.49686,137.7898,142.42377,142.42377,0,1,448.98666,0,0,12.401796,12.401797,0,4,255,0,0,0,1,0,191,0
True,33805640,15999.99,0,12315.909,-0.03778772,-0.11489624,3.1404748,-0.014236927,-0.3276611,90.95644,-0.028018977,-1.3731951E-06,0.0047068074,-1.506799,0.004495809,0.0019529122,0.28149354,0.2704908,0.30385867,0.2898811,0.06546666,0.06679776,0.093466714,0.093061455,283.8614,283.88852,284.73334,284.7269,0,0,0,0,0,0,0,0,0,0,0,0,0.0011677459,0.0016218375,0.0009530728,0.0010816216,0.065477066,0.066817455,0.09347157,0.09306774,0.0018634163,0.00051374733,0.0072339587,0.0055721253,164,6,231,2,0,-2489.9233,223.92198,764.8341,90.95703,752279.44,583.31287,140.57146,137.87952,142.53944,142.53944,0,1,454.77597,0,0,12.495913,12.4959135,0,4,255,0,0,0,1,0,184,0
True,33805765,15999.99,0,12368.346,-4.0690503,2.4768338,2.663882,0.17770767,-0.26297918,91.281525,0.0099285785,-0.16624214,-0.0601828,-1.513858,0.0009077653,-0.0018026261,0.32569426,0.33013585,0.3552223,0.34138957,0.100707985,0.06574335,0.11629999,0.08508655,285.15973,285.16364,285.8725,285.92776,0,0,0,0,0,0,0,0,0,0,0,0,-0.29110783,-0.26471025,-0.03929549,-0.032369543,0.3080355,0.2727521,0.12275921,0.09103575,0.0072853565,0.007830191,0.013340715,0.011696104,164,6,231,2,0,-2500.2869,223.8661,765.48,91.282074,752404.94,581.00037,140.70738,138.04611,142.71716,142.71716,0,1,461.8106,0,0,12.609858,12.609859,0,4,255,0,0,0,1,-70,177,0
True,33805875,15999.99,0,12406.823,-13.50918,2.0906875,3.0137877,1.5728157,-0.23360749,91.56264,-0.033307325,-0.3354545,-0.034887116,-1.5474359,-0.0013957536,-0.009542018,0.32516885,0.39317232,0.33932382,0.38315234,0.08338075,0.055461325,0.13457035,0.07096725,285.3687,286.35434,286.8154,286.9663,0,0,0,0,0,0,0,0,0,0,0,0,-0.11268108,-0.10361652,-0.20777586,-0.1741705,0.14017624,0.11752592,0.24754795,0.1880737,0.0072209053,0.015562646,0.011450503,0.016661387,164,6,231,2,0,-2510.665,223.83746,765.9977,91.57645,752276.3,579.0445,140.92561,138.39421,142.86388,142.86388,0,1,468.85522,0,0,12.723508,12.723508,0,4,255,0,0,0,1,0,172,0
True,33805984,15999.99,0,12447.358,-16.326323,1.8079323,3.177669,1.6638073,-0.18218902,91.855255,-0.03307327,-0.07965374,0.0009374605,-1.5694203,-0.0040226593,-0.012820646,0.3828341,0.4942035,0.37643147,0.48177457,0.08394506,0.05343476,0.121515945,0.08878757,286.88535,286.63745,287.95282,287.74048,0,0,0,0,0,0,0,0,0,0,0,0,-0.16567227,-0.14706783,-0.19183704,-0.15520808,0.18572581,0.15647434,0.22708495,0.17880934,0.014294498,0.027955778,0.015862327,0.028386839,164,6,231,2,0,-2520.8958,223.84424,766.29944,91.8705,752266.6,577.1208,141.04121,138.62465,143.06181,143.06181,0,1,475.7933,0,0,12.8350935,12.835093,0,4,255,0,0,0,1,0,172,0
True,33806093,15999.99,0,12481.708,-10.203864,2.6394649,2.7980924,0.5212376,-0.14412011,92.19096,-0.03162729,0.02399008,0.05039843,-1.5703707,-0.008258684,-0.009830627,0.40565532,0.5008041,0.4144043,0.5174014,0.06048306,0.05749739,0.09922902,0.092410244,287.6519,287.48682,288.72214,288.54184,0,0,0,0,0,0,0,0,0,0,0,0,-0.058132607,-0.056751687,-0.06097535,-0.030865056,0.08389041,0.08078802,0.11646627,0.09742846,0.017093893,0.028765455,0.02037701,0.032622606,164,6,231,2,0,-2531.5977,223.89737,766.4192,92.19255,752292.06,575.5704,141.17648,138.8498,143.25114,143.25114,-2.6412516,1,483.04822,0,0,12.951383,12.951381,0,4,255,0,0,0,1,0,176,0
True,33806218,15999.99,0,12530.255,-3.132459,4.5719705,2.580863,0.067108825,-0.1285344,92.48849,0.027252018,0.012487545,0.029983185,-1.5684106,-0.014779362,-0.0058816914,0.40253514,0.4322339,0.4243158,0.49013606,0.0816563,0.085010305,0.09948782,0.09587499,288.91113,289.00616,289.65894,289.55734,0,0,0,0,0,0,0,0,0,0,0,0,-0.01085047,-0.0098102,-0.015056392,0.010101629,0.08237405,0.085574485,0.10062068,0.096405685,0.01671115,0.020354189,0.021555416,0.029380955,164,6,231,2,0,-2542.01,224.00995,766.46106,92.488594,752432.6,573.5308,141.31483,139.01126,143.44632,143.44632,-6.5873423,1,490.1062,0,0,13.0641365,13.064135,0,4,255,0,0,0,1,0,182,0
True,33806312,15999.99,0,12548.479,-0.7024705,6.096005,2.7150514,-0.0019187331,-0.17986804,92.75468,-0.02463814,0.0015904019,0.032953992,-1.5678626,-0.02145558,-0.0031542315,0.41369477,0.46207306,0.40316758,0.42628086,0.070976086,0.06663823,0.07294207,0.07463778,289.56842,289.46967,289.9448,289.96234,0,0,0,0,0,0,0,0,0,0,0,0,-0.0017309212,-0.00035455555,-0.0058386205,0.0072097434,0.070997186,0.06663918,0.07317537,0.074985184,0.018080063,0.02401445,0.019041047,0.021789044,164,6,231,2,0,-2551.1174,224.15573,766.488,92.754845,752375.44,572.6329,141.44077,139.14713,143.60272,143.60272,-10.06333,1,496.27847,0,0,13.16247,13.162469,0,4,255,0,0,0,1,0,187,0
True,33806437,15999.99,0,12593.3545,-0.09774305,2.0647228,2.6091037,0.009799182,-0.17555457,93.04317,-0.10704972,-0.0023878443,-0.0032322556,-1.5679587,-0.023120007,-0.00067483523,0.45712405,0.4536222,0.42274883,0.4418141,0.045085363,0.045827247,0.09288517,0.09487187,290.0078,290.03543,291.26718,291.2901,0,0,0,0,0,0,0,0,0,0,0,0,0.00022281034,-0.0011493535,-0.009294937,0.009167785,0.045085914,0.04584166,0.09334908,0.095313795,0.023407377,0.022977814,0.021369115,0.023635834,164,6,231,2,0,-2561.6133,224.36679,766.5187,93.04333,752246.6,570.41315,141.53978,139.25586,143.75525,143.75525,-14.098348,1,503.3922,0,0,13.275474,13.275475,0,4,255,0,0,0,1,0,193,0
True,33806546,15999.99,0,12617.469,-0.08243857,7.9115734,2.2888937,0.00797984,-0.043762963,93.304955,-0.10989963,0.00056665135,0.0044892672,-1.5680552,-0.034064893,-0.001934396,0.49284837,0.5094335,0.5035141,0.49277532,0.04828712,0.04556376,0.07340781,0.07412613,290.86935,290.80862,291.68777,291.70154,0,0,0,0,0,0,0,0,0,0,0,0,-0.00045421068,-0.0014822357,-0.017675385,0.014542216,0.048289254,0.045587864,0.07550579,0.07553913,0.027789548,0.029823989,0.030971505,0.029694743,164,6,231,2,0,-2572.1106,224.6661,766.5491,93.304955,752267.25,569.3639,141.722,139.45255,143.9852,143.9852,-14.7,1,510.51068,0,0,13.388175,13.388176,0,4,255,0,0,0,1,0,200,0
True,33806640,15999.99,0,12667.669,-0.08313807,4.5232673,1.9807365,-0.0049396753,-0.08335088,93.49192,0.0213105,-0.0011697095,0.064884275,-1.5680305,-0.03955203,0.0017323694,0.42288017,0.4845034,0.47618073,0.5347559,0.082754135,0.0806333,0.101498246,0.10024589,292.0572,292.10086,292.82956,292.79117,0,0,0,0,0,0,0,0,0,0,0,0,-0.0018399352,-0.00048979034,-0.017493816,0.022884315,0.08277459,0.08063479,0.10299479,0.102824755,0.019206803,0.026765898,0.02772177,0.034685925,164,6,231,2,0,-2581.181,225.00705,766.5741,93.49194,752406.56,567.27167,141.82495,139.58485,144.17145,144.17145,-14.7,1,516.66125,0,0,13.485348,13.485349,0,4,255,0,0,0,1,0,205,0
True,33806750,15999.99,0,12656.756,-0.18873924,6.01668,1.9710788,0.021319017,-0.20245224,93.697,-0.081986204,-0.0049585123,0.045156576,-1.5685393,-0.046451967,0.005041181,0.48656332,0.5623965,0.44353244,0.47735634,0.045483723,0.042584974,0.058336277,0.057834383,291.88403,291.83066,292.538,292.5458,0,0,0,0,0,0,0,0,0,0,0,0,-0.0034343398,-0.0018066765,-0.011153541,0.0078191245,0.0456132,0.04262328,0.05939295,0.058360558,0.027018584,0.03632077,0.02384013,0.027861543,164,6,231,2,0,-2590.8381,225.39606,766.5998,93.69722,752261.5,567.5704,141.96005,139.73152,144.32547,144.32547,-14.7,1,523.21204,0,0,13.588602,13.588603,0,4,255,8,0,0,1,0,211,252
True,33806859,15999.99,0,11975.771,-0.39073497,1.5201366,-18.587498,0.025180921,0.22456506,91.49298,0.08296608,-0.0036807512,0.07001611,-1.5691065,-0.042862266,0.01216851,0.3860494,0.47833058,0.36543676,0.42039347,-0.48078224,-0.41254342,-0.12820917,-0.13340555,270.3171,271.80954,279.58932,279.52124,0,0,0,0,0,0,0,0,0,0,0,0,-0.004481289,-0.0042833197,-0.007269849,0.00162878,0.48080313,0.41256565,0.12841512,0.13341549,0.014688902,0.026008703,0.014555134,0.021089077,164,6,231,2,0,-2602.1587,225.90741,766.6251,91.493256,710944.5,566.1494,142.13652,139.93845,144.47406,144.47406,-14.7,1,530.8906,0,0,13.710635,13.710636,0,4,243,255,0,0,1,0,217,129
True,33806968,15999.99,0,11606.378,-0.5547955,-0.8107813,-26.57201,0.01620534,0.5516193,88.35369,0.007738806,-0.004914069,0.08440785,-1.5695597,-0.03778293,0.019477852,0.4137004,0.5135449,0.3026521,0.35787964,-0.26715988,-0.23298877,-0.19462545,-0.20109646,266.12573,266.8795,268.94626,268.80804,0,0,0,0,0,0,0,0,0,0,0,0,-0.0021649934,-0.0046203355,-0.0048620296,-0.0034756004,0.26716864,0.23303458,0.19468617,0.20112649,0.018080752,0.030328318,0.007090505,0.013656646,164,6,231,2,0,-2612.2903,226.3589,766.6416,88.355415,752002.75,618.4538,142.40575,140.21625,144.58357,144.58357,-14.7,1,537.7628,0,0,13.8234825,13.8234825,0,4,255,242,0,0,1,0,223,135
True,33807093,15999.99,0,11955.075,-0.62987214,0.93539023,-4.5812173,0.0037929453,0.104750365,88.08338,-0.041276958,-0.0052314294,0.08919178,-1.5703675,-0.04550415,0.028432539,0.38748112,0.4832148,0.36200777,0.43483907,0.11354152,0.097663425,0.115394786,0.11452659,275.94406,275.6652,276.25354,276.25577,0,0,0,0,0,0,0,0,0,0,0,0,-0.0029507235,-0.0025091341,-0.0066094287,0.0050428105,0.113579854,0.097695656,0.11558392,0.11463756,0.01486453,0.026607834,0.014147457,0.022806555,164,6,231,2,0,-2621.8943,226.80441,766.6493,88.08344,752420.94,601.11304,142.53224,140.36278,144.70404,144.70404,-14.7,1,544.27734,0,0,13.932712,13.932712,0,4,255,0,0,0,1,0,229,0
True,33807203,15999.99,0,11965.269,-0.5719186,1.0638703,1.578277,-0.0069711935,-0.23374814,88.394394,-0.0538732,-0.0056500905,0.089495346,-1.5710912,-0.049778413,0.036403716,0.32978168,0.44625673,0.34389442,0.46747166,0.07303094,0.06601048,0.08213434,0.0799842,276.04807,275.9356,276.5276,276.50467,0,0,0,0,0,0,0,0,0,0,0,0,-0.0014530306,-0.0006182541,-0.004279653,0.008102965,0.073045395,0.06601337,0.08224577,0.0803936,0.007786747,0.02207432,0.011993911,0.026686326,164,6,231,2,0,-2631.5432,227.2492,766.6504,88.3947,752251.1,600.3879,142.60536,140.45248,144.82779,144.82779,0,1,550.823,0,0,14.0421715,14.0421715,0,4,255,0,0,0,1,0,236,0
True,33807312,15999.99,0,12007.525,-0.62875885,-0.1163591,2.6450768,0.0012325868,-0.27541494,88.683014,-0.047410514,-0.008403806,0.096682996,-1.5719651,-0.04995571,0.045638323,0.34360835,0.4626047,0.37165016,0.49302715,0.0755402,0.06348472,0.090084635,0.08551611,276.98438,276.78555,277.55643,277.51718,0,0,0,0,0,0,0,0,0,0,0,0,-0.0022125803,-0.001053016,-0.0069564646,0.010483727,0.075572595,0.06349345,0.090352826,0.08615633,0.009482812,0.024079666,0.015293859,0.029724687,164,6,231,2,0,-2641.316,227.70859,766.64435,88.68343,752141.4,598.1252,142.67883,140.54298,144.9577,144.9577,0,1,557.452,0,0,14.152676,14.152674,0,4,255,0,0,0,1,0,242,0
True,33807421,15999.99,0,12054.731,-0.77283996,0.14983162,2.5531116,0.02312535,-0.2608655,88.96653,0.003841461,-0.011813096,0.03450649,-1.5732343,-0.050574593,0.05595347,0.32319602,0.38430473,0.3574456,0.44755623,0.081456505,0.08921038,0.096230865,0.09626693,277.97357,278.17874,278.5528,278.5918,0,0,0,0,0,0,0,0,0,0,0,0,-0.0025277352,-0.0011155626,-0.0074962326,0.005922169,0.08149572,0.08921736,0.0965224,0.09644892,0.0069789067,0.014474891,0.013605043,0.024318531,164,6,231,2,0,-2651.2773,228.18489,766.629,88.96692,752313.25,596.00903,142.76318,140.63423,145.09787,145.09787,0,1,564.209,0,0,14.264946,14.264945,0,4,255,0,0,0,1,0,249,0
True,33807546,15999.99,0,12085.684,-0.92353106,-2.2397928,2.9209907,0.012183547,-0.30727193,89.26451,-0.06954144,-0.008302343,0.07832822,-1.5741452,-0.047270413,0.06266273,0.27258855,0.36732537,0.26639065,0.37029317,0.062465742,0.060290437,0.09151108,0.08989111,278.53842,278.53644,279.42725,279.42136,0,0,0,0,0,0,0,0,0,0,0,0,-0.0019679766,-0.0021718137,-0.0043529784,-0.0015581154,0.062496733,0.06032954,0.09161455,0.08990462,0.00077107176,0.012392096,0.0027792826,0.015132528,164,6,231,2,0,-2661.2996,228.6373,766.60455,89.265045,752110.5,594.20135,142.82193,140.71437,145.20236,145.20236,0,1,571.006,0,0,14.377542,14.37754,0,4,255,0,0,0,1,0,0,0
True,33807656,15999.99,0,12182.406,-3.5390563,-1.2341768,1.9688067,0.13696182,-0.26756516,89.504585,0.09380687,-0.13307488,0.104810275,-1.5798949,-0.047351833,0.072553664,0.22319517,0.37442306,0.28442886,0.43279546,0.22070052,0.13358442,0.15390398,0.12383853,282.23538,281.00827,281.24176,281.15424,0,0,0,0,0,0,0,0,0,0,0,0,-0.3617055,-0.33659142,-0.035525095,-0.02488078,0.42372113,0.36213064,0.15795083,0.12631324,-0.0052878372,0.013262741,0.004923895,0.022563584,164,6,231,2,0,-2671.5295,229.1092,766.5558,89.50508,752621.8,590.20074,142.91377,140.84517,145.36383,145.36383,0,1,577.94385,0,0,14.492093,14.492091,0,4,255,0,0,0,1,-121,8,0
True,33807765,15999.99,0,12164.613,-7.6414557,0.99980235,2.6289663,0.71505606,-0.33666486,89.80579,0.025953263,-0.058906782,0.08330813,-1.5962049,-0.046093244,0.08259713,0.26464066,0.41526714,0.29180115,0.42292598,0.1286112,0.07880788,0.08534064,0.072891325,281.46475,280.67194,280.8503,280.87805,0,0,0,0,0,0,0,0,0,0,0,0,-0.07988722,-0.07140228,-0.08020227,-0.07013152,0.1514028,0.106343634,0.11711289,0.10115125,-0.00020386651,0.01827294,0.0058004074,0.021390177,164,6,231,2,0,-2681.52,229.53041,766.4374,89.80926,752416.6,590.7694,143.02975,141.00854,145.48688,145.48688,0,1,584.7165,0,0,14.603623,14.603621,0,4,255,0,0,0,1,0,17,0
True,33807875,15999.99,0,12206.041,-5.524112,-1.9570737,2.7547162,0.29014182,-0.31577224,90.0816,-0.017490117,-0.0009744036,0.06704071,-1.5978949,-0.04237592,0.09252299,0.24285384,0.37241814,0.27524295,0.4034626,0.07570237,0.06838618,0.10619488,0.10250843,281.36063,281.21057,282.26074,282.181,0,0,0,0,0,0,0,0,0,0,0,0,-0.038407203,-0.036800325,-0.033276245,-0.026692878,0.08488794,0.077659085,0.111286394,0.10592681,-0.0028763786,0.013016805,0.0038317628,0.019076124,164,6,231,2,0,-2691.4617,229.93643,766.2312,90.08261,752186.25,588.44196,143.0863,141.09573,145.5899,145.5899,0,1,591.4515,0,0,14.7142725,14.714268,0,4,255,0,0,0,1,-1,29,0
True,33807968,15999.99,0,12255.787,-6.9909787,-0.21904749,2.3646243,0.23508406,-0.27333334,90.30166,0.064142816,-0.17719233,0.04835598,-1.6048076,-0.04185501,0.09727251,0.29418772,0.40897137,0.345361,0.45702177,0.17117423,0.10004688,0.12458201,0.08732928,283.5852,282.84537,282.94437,282.9506,0,0,0,0,0,0,0,0,0,0,0,0,-0.39610624,-0.36017522,-0.049901515,-0.032924652,0.43150988,0.3738122,0.13420446,0.09332972,0.0034205653,0.017500661,0.012168273,0.025443912,164,6,231,2,0,-2700.2246,230.28511,765.99384,90.302376,752467.3,586.4417,143.18173,141.23126,145.7054,145.7054,0,1,597.38794,0,0,14.811531,14.811527,0,4,255,0,0,0,1,-127,41,0
True,33808078,15999.99,0,12303.124,-13.546188,-3.348771,2.7336118,1.4448504,-0.25095415,90.50346,-0.030144919,-0.40250453,-0.037217412,-1.6328452,-0.033717174,0.099014714,0.25528783,0.37877554,0.2725334,0.37521255,0.23462798,0.08486118,0.16121848,0.08717585,284.9244,283.47714,283.97876,284.21912,0,0,0,0,0,0,0,0,0,0,0,0,-0.75805086,-0.59499437,-0.20060186,-0.17364435,0.793531,0.60101557,0.25735676,0.19429871,-0.0013511442,0.013796646,0.0035096146,0.015717406,164,6,231,2,0,-2709.2078,230.60051,765.6615,90.515335,752252.5,583.7653,143.39885,141.52333,145.77785,145.77785,0,1,603.5102,0,0,14.9110365,14.911033,0,4,255,0,0,0,1,-127,52,0
True,33808203,15999.99,0,12374.6045,-23.851109,-0.22026348,2.9111388,3.8891668,-0.13516372,90.62398,0.06323213,-0.45480877,-0.006290932,-1.6943402,-0.027689112,0.09887872,0.28031075,0.4410321,0.3014561,0.4998301,0.2434664,0.09088812,0.2576856,0.12761968,285.49045,284.5776,286.4307,285.9532,0,0,0,0,0,0,0,0,0,0,0,0,-0.37460804,-0.33706355,-0.5201301,-0.41927215,0.44677407,0.3491024,0.58046293,0.43826467,0.0017183274,0.021433435,0.006948307,0.030533507,164,6,231,2,0,-2720.398,230.96243,764.94556,90.70749,752259.56,580.5811,143.73393,142.1185,146.00604,146.00604,0,1,611.0962,0,0,15.034849,15.034844,0,4,255,0,0,0,1,0,69,0
True,33808312,15999.99,0,11442.015,-22.696623,3.1800947,-94.63652,4.581539,-0.1652984,82.10778,-0.025020806,-0.19493403,-0.049586385,-1.7360437,-0.028725157,0.09028403,0.34377044,0.5182539,0.35102242,0.5453687,1.2262549,0.07318886,0.32385856,0.28059843,279.48764,256.70636,262.14987,262.18213,0,0,0,0,0,0,0,0,0,0,0,0,-0.58265966,-0.47387373,-0.59286964,-0.45863014,1.3576427,0.47949237,0.6755581,0.5376589,0.009502698,0.030905955,0.012841377,0.035947703,164,6,231,2,0,-2730.7422,231.27824,763.951,82.235664,474136.44,394.7842,144.2786,142.5867,146.48148,146.48148,0,1,618.2766,0,0,15.154665,15.154659,0,4,255,0,0,0,1,0,84,0
True,33808421,15999.99,0,10951.332,-21.141685,3.0223398,-40.35342,3.0801287,-0.24520212,79.40833,0.0005856337,0.01816201,-0.01238256,-1.7437938,-0.032961458,0.08605629,0.31011468,0.445232,0.35602012,0.5085492,0.593342,0.19426444,0.22620995,0.17879345,258.65915,251.02905,252.09193,251.6536,0,0,0,0,0,0,0,0,0,0,0,0,-0.80426824,-0.68139416,-0.38800442,-0.3229013,0.9994509,0.70854545,0.44913068,0.36909667,0.0053742677,0.02194862,0.013435565,0.031570144,164,6,231,2,0,-2738.5544,231.53754,762.98926,79.46843,737368,642.9042,144.69684,142.96243,146.74297,146.74297,0,1,623.60474,0,0,15.252583,15.252577,0,4,255,0,0,0,1,-127,95,0
True,33808531,15999.99,0,10526.661,-18.858177,-0.16905868,-16.76393,1.1893864,-0.41962385,77.158226,-0.01222864,-0.13775238,-0.028712213,-1.7469972,-0.032093663,0.08598024,0.28104055,0.37471348,0.3156557,0.4535342,0.27944726,0.12314985,0.17781232,0.12916617,244.3842,242.21542,243.0712,242.93773,0,0,0,0,0,0,0,0,0,0,0,0,-0.30620837,-0.27195424,-0.17293723,-0.14402431,0.4145532,0.2985381,0.24804135,0.19346035,0.0018078461,0.013298366,0.008636534,0.025029264,164,6,231,2,0,-2747.3162,231.79941,761.6812,77.168526,752059.94,681.98047,145.03853,143.39848,146.91223,146.91223,0,1,629.8364,0,0,15.367232,15.367228,0,4,255,0,0,0,1,0,105,0
True,33808656,15999.99,0,10531.039,-11.143197,3.802795,1.9146068,0.4574566,-0.35079646,77.707245,-0.018766772,0.0051221033,-0.024470106,-1.7534974,-0.03575963,0.08361927,0.3837432,0.44259304,0.39323312,0.47458786,0.09650921,0.08401221,0.09093579,0.08575495,243.19403,242.90154,243.32971,243.2634,0,0,0,0,0,0,0,0,0,0,0,0,-0.06228072,-0.057171796,-0.055590093,-0.03750554,0.114860415,0.101620205,0.106581315,0.093597956,0.0144060105,0.021624908,0.017859917,0.027532391,164,6,231,2,0,-2756.2168,232.05984,760.1601,77.70938,752263.75,682.2724,145.12712,143.5571,147.04274,147.04274,0,1,635.95734,0,0,15.483873,15.483868,0,4,255,0,0,0,1,0,112,0
True,33808765,15999.99,0,10624.517,-3.2671294,-1.9997809,3.9775555,0.008262634,-0.23523629,78.19276,-0.0060736598,0.01717076,-0.03144121,-1.750869,-0.030677775,0.08068217,0.37822774,0.37669286,0.38290372,0.38246337,0.09807489,0.09593464,0.138738,0.14446083,244.75496,244.627,245.74644,245.72205,0,0,0,0,0,0,0,0,0,0,0,0,-0.0042283735,-0.0026819832,-0.0021240246,0.0062586544,0.098166,0.09597211,0.13875426,0.14459634,0.013729449,0.013541173,0.016631827,0.016579475,164,6,231,2,0,-2765.0422,232.32895,758.56604,78.19311,752126.56,675.91876,145.14386,143.60309,147.1265,147.1265,0,1,642.2993,0,0,15.598984,15.598979,0,4,255,0,0,0,1,0,115,0
True,33808859,15999.99,0,10671.973,-1.5945199,0.6845131,4.26788,-0.10937786,-0.23222142,78.598045,0.029370718,-0.046358626,-0.04936614,-1.7508055,-0.03242012,0.07757653,0.4254059,0.3820795,0.44063678,0.4231232,0.11959113,0.10664069,0.12435104,0.11177697,246.23192,246.18567,246.61995,246.58424,0,0,0,0,0,0,0,0,0,0,0,0,-0.15827346,-0.15152027,-0.0018170789,0.016584983,0.1983747,0.18528527,0.12436432,0.113000676,0.019516625,0.014201932,0.02349586,0.021413624,164,6,231,2,0,-2772.4258,232.54556,757.22144,78.598465,752519.25,673.56085,145.18436,143.66127,147.2196,147.2196,0,1,647.3877,0,0,15.6947365,15.694733,0,4,255,0,0,0,1,-41,112,0
True,33808984,15999.99,0,10760.344,-11.398205,0.7575177,3.9608815,0.58077717,-0.22574264,79.079445,0.028287012,-0.36550885,-0.0633114,-1.778268,-0.030593526,0.06977486,0.37752533,0.39673406,0.39431274,0.43465805,0.23889497,0.119080506,0.16504431,0.09042244,249.05759,248.46611,248.27144,248.46046,0,0,0,0,0,0,0,0,0,0,0,0,-0.6641866,-0.5842468,-0.12564786,-0.09957921,0.7058432,0.59625876,0.20742951,0.13450739,0.013643287,0.015999552,0.017988272,0.02278503,164,6,231,2,0,-2782.6497,232.84087,755.264,79.081894,752554.25,668.0916,145.36493,143.94014,147.32181,147.32181,0,1,654.68225,0,0,15.826797,15.826794,0,4,255,0,0,0,1,-127,102,0
True,33809093,15999.99,0,10800.167,-21.303013,2.101369,3.964766,2.157463,-0.2036677,79.34723,-0.05277012,-0.58458483,-0.13805526,-1.8263482,-0.029554002,0.060317088,0.36954188,0.4172073,0.3635117,0.43359527,0.25975528,0.089023314,0.18798842,0.07403779,249.71803,249.15613,249.20627,249.62952,0,0,0,0,0,0,0,0,0,0,0,0,-0.85606223,-0.68487895,-0.3417022,-0.2724897,0.8946035,0.6906405,0.39000005,0.28236896,0.0126639865,0.01851093,0.014326263,0.022658676,164,6,231,2,0,-2790.2986,233.05669,753.6119,79.37681,752251,665.2413,145.6547,144.37262,147.4375,147.4375,-1.2274485,1,659.97675,0,0,15.925592,15.9255905,0,4,255,0,0,0,1,-127,93,0
True,33809203,15999.99,0,10954.39,-21.976109,-1.462332,3.6988025,4.293398,-0.15495884,79.45781,0.047005355,-0.5046235,-0.0990791,-1.8834158,-0.0245723,0.050102945,0.33074212,0.37224814,0.34175366,0.41113397,0.5230744,0.20943022,0.37058017,0.18783927,254.85532,251.43234,253.29451,252.50774,0,0,0,0,0,0,0,0,0,0,0,0,-1.2313521,-1.0320352,-0.65449345,-0.54176116,1.337847,1.0530707,0.75212455,0.57340103,0.007904559,0.012995955,0.011739388,0.019988198,164,6,231,2,0,-2798.3896,233.28847,751.5919,79.57387,707654.4,617.0338,146.08182,144.91667,147.65538,147.65538,-8.112004,1,665.62885,0,0,16.030561,16.030558,0,3,255,0,0,0,1,-127,84,0
True,33809312,15999.99,0,10034.703,-28.365618,1.1389782,-11.566617,5.5213566,0.116562545,77.86398,0.044650257,-0.43030134,-0.08715466,-1.9367174,-0.020628333,0.040887035,0.36770463,0.4594656,0.35386476,0.46989897,-0.4222481,-0.5232599,-0.38087192,-0.26257342,231.44131,226.75697,231.51181,234.84508,0,0,0,0,0,0,0,0,0,0,0,0,-1.368237,-1.1355634,-0.8020156,-0.6299162,1.4319099,1.250322,0.88785833,0.6824509,0.012438618,0.023694605,0.01317931,0.026974916,164,6,231,2,0,-2806.4758,233.49258,749.299,78.05959,752267.75,715.49304,147.39227,146.66042,147.93867,147.93867,-14.449929,1,671.5023,0,0,16.136894,16.13689,0,3,255,255,0,0,1,-127,74,129
True,33809421,15999.99,0,10244.991,-38.711395,-1.8385043,-20.15181,5.0575542,0.3317865,74.94401,-0.031970344,-0.5405615,-0.1170121,-1.9893068,-0.013687679,0.030120319,0.36546043,0.46219787,0.2903708,0.39944863,0.14645343,0.06460135,0.22050592,0.05839416,234.81468,235.60257,237.60422,237.11041,0,0,0,0,0,0,0,0,0,0,0,0,-1.3730038,-1.0886467,-0.88910776,-0.6825263,1.3807926,1.0905617,0.9160434,0.68501973,0.01216333,0.024029762,0.005630348,0.018598896,164,6,231,2,0,-2815.3108,233.69997,746.4058,75.1152,752265.2,702.1725,149.62941,149.25275,148.28914,148.28914,-14.7,1,677.8015,0,0,16.257967,16.257961,0,3,255,0,0,0,1,-127,65,0
True,33809531,15999.99,0,10399.032,-31.514503,-1.0179605,-0.6204958,6.0169125,0.098253876,74.83321,0.034450162,-0.40295288,-0.019630253,-2.0490637,-0.016132476,0.024033569,0.28880697,0.38255715,0.28236,0.47293222,0.61039925,0.2286162,0.4677577,0.2600962,242.83313,238.01448,240.58173,239.45477,0,0,0,0,0,0,0,0,0,0,0,0,-0.8271458,-0.7449967,-0.94076234,-0.76921344,1.0279871,0.7792852,1.0506337,0.8119971,0.0027605258,0.014260523,0.0046779253,0.027335547,164,6,231,2,0,-2823.3425,233.88113,743.21075,75.074776,654323.3,601.1224,150.45679,150.38977,148.68799,148.68799,0,1,683.80725,0,0,16.37327,16.373264,0,3,255,0,0,0,1,0,62,0
True,33809656,15999.99,0,10372.527,-31.243793,1.0876701,4.68027,6.0446186,-0.12076993,75.10807,0.0146328155,-0.304191,-0.058270484,-2.0937088,-0.019859945,0.016178988,0.2960086,0.44192377,0.29704377,0.4789816,0.63776714,0.14557937,0.33782026,0.1637118,244.38586,237.05238,239.51518,238.31558,0,0,0,0,0,0,0,0,0,0,0,0,-0.8662581,-0.7055795,-0.8775805,-0.66293114,1.0757091,0.7204414,0.9403564,0.6828464,0.0036439225,0.02154281,0.0064237155,0.028054774,164,6,231,2,0,-2831.0842,234.03766,739.7645,75.351006,723799.6,666.6668,150.59814,150.74019,149.12157,149.12157,0,1,689.553,0,0,16.485939,16.485933,0,3,255,0,0,0,1,0,60,0
True,33809765,15999.99,0,10368.051,-28.072405,-0.4908195,5.4951572,5.0043163,-0.14808874,75.51224,-0.038127042,-0.15227173,-0.084371746,-2.1196191,-0.018107712,0.010924261,0.29980814,0.47773892,0.27976373,0.47094113,0.34336022,0.10878261,0.30332452,0.16864343,240.84595,237.25145,240.23965,239.07939,0,0,0,0,0,0,0,0,0,0,0,0,-0.6897773,-0.5510474,-0.71064305,-0.5496056,0.77051216,0.56168216,0.77267027,0.5748973,0.004110001,0.025936127,0.004369244,0.02709882,164,6,231,2,0,-2838.7886,234.18639,735.9322,75.67802,752119.94,692.65027,150.7414,151.04028,149.48236,149.48236,0,1,695.5253,0,0,16.599937,16.599936,0,3,255,0,0,0,1,0,61,0
True,33809875,15999.99,0,10373.503,-25.126404,-0.8266961,5.240772,2.2687187,-0.19253206,76.06261,-0.0027006296,0.08351908,-0.027016869,-2.121575,-0.018531224,0.005259186,0.25165576,0.3645452,0.2710903,0.41725248,0.18272597,0.099395774,0.20898011,0.15154955,239.85489,237.96858,240.436,239.4191,0,0,0,0,0,0,0,0,0,0,0,0,-0.33209044,-0.29473317,-0.30168268,-0.24811725,0.379042,0.31104204,0.36699474,0.29073948,-0.0017966777,0.012051061,0.0033380426,0.020715639,164,6,231,2,0,-2846.1252,234.32855,731.8843,76.09668,752162.2,692.2864,150.7811,151.24216,149.71548,149.71548,0,1,701.20734,0,0,16.710398,16.710394,0,2,255,0,0,0,1,0,63,0
True,33809984,15999.99,0,10392.024,-11.36058,0.40285298,4.7957506,0.19425964,-0.27572596,76.61391,-0.039628036,0.09753756,0.026794555,-2.1093013,-0.020305658,0.005860003,0.30650657,0.40905795,0.28854054,0.42004892,0.08410401,0.07784223,0.106297895,0.11701019,239.74825,239.17795,240.38797,240.18895,0,0,0,0,0,0,0,0,0,0,0,0,-0.045349315,-0.043357998,-0.01171316,-0.0043317447,0.09555127,0.08910291,0.10694129,0.117090344,0.0049316734,0.017511278,0.0054127425,0.021048114,164,6,231,2,0,-2853.3376,234.46307,727.65045,76.61465,752305.5,691.3717,150.72908,151.24425,149.80482,149.80482,0,1,706.877,0,0,16.819935,16.819933,0,2,255,0,0,0,1,0,65,0
True,33810078,15999.99,0,10465.721,-1.6274033,0.09702652,4.390833,-0.17649078,-0.24792098,77.03088,0.025770042,0.030280769,0.02235924,-2.1036553,-0.020668307,0.008485247,0.3772182,0.39789674,0.38135907,0.40637952,0.10560907,0.11612529,0.13246195,0.13208508,241.24603,241.29771,241.99591,241.86957,0,0,0,0,0,0,0,0,0,0,0,0,0.015152579,0.017875474,0.021741038,0.03287148,0.10669056,0.11749304,0.13423428,0.13611393,0.01360561,0.016142175,0.016448181,0.019422926,164,6,231,2,0,-2859.5774,234.59198,723.94495,77.03149,752366.4,686.5425,150.65909,151.16801,149.87964,149.87964,0,1,711.9335,0,0,16.914406,16.914406,0,2,255,0,0,0,1,0,62,0
True,33810187,15999.99,0,10511.247,1.1025631,0.4756326,4.6794024,-0.1233902,-0.25144032,77.495544,-0.023593953,0.0018852734,0.017229801,-2.102227,-0.020998666,0.010549139,0.38421836,0.36980048,0.4126897,0.4149327,0.08389798,0.094142154,0.10760177,0.10722892,242.2743,242.45766,242.96722,242.95477,0,0,0,0,0,0,0,0,0,0,0,0,0.013898363,0.015817164,0.007318566,0.021818018,0.085041374,0.09546166,0.107850365,0.10942608,0.014464296,0.012695707,0.020173155,0.020439837,164,6,231,2,0,-2866.3303,234.72623,719.95215,77.49605,752255.75,683.51373,150.60086,151.10231,149.956,149.956,-2.5524464,1,717.2476,0,0,17.015945,17.015945,0,2,255,0,0,0,1,0,54,0
True,33810296,15999.99,0,10578.616,0.6118704,0.90121263,4.534402,-0.020069122,-0.2477682,78.04452,-0.06210745,-0.0028856867,-0.05246596,-2.102577,-0.021881154,0.00875729,0.41473,0.3706764,0.39221346,0.3771282,0.06849006,0.07444062,0.1023897,0.10192498,243.71117,243.8248,244.59537,244.60483,0,0,0,0,0,0,0,0,0,0,0,0,0.00433995,0.0052022785,-0.0009738129,0.007135897,0.068627425,0.074622184,0.10239433,0.10217447,0.01820705,0.012803152,0.017738689,0.015945159,164,6,231,2,0,-2874.6016,234.89644,715.07935,78.044914,752261.56,679.1091,150.54784,151.03003,150.04657,150.04657,-9.56599,1,723.7875,0,0,17.139402,17.139404,0,2,255,0,0,0,1,0,41,0
True,33810421,15999.99,0,10670.293,0.13659608,-0.3649503,4.453918,-0.00037765503,-0.25151372,78.601364,0.006282634,0.00032892675,-0.03240809,-2.1027625,-0.022071032,0.005266148,0.3915235,0.34313366,0.42250794,0.37942237,0.08943,0.11812398,0.12041537,0.11726011,245.80632,246.33362,246.64061,246.5941,0,0,0,0,0,0,0,0,0,0,0,0,0.00016821243,0.0021543875,-0.007076753,0.004777297,0.08943015,0.118143626,0.120623134,0.11735739,0.015360393,0.009424586,0.021340474,0.016217917,164,6,231,2,0,-2883.378,235.09521,709.91437,78.60176,752361.25,673.4178,150.49051,150.96945,150.1502,150.1502,-14.7,1,730.67175,0,0,17.269442,17.269442,0,2,255,0,0,0,1,0,24,0
True,33810531,15999.99,0,10486.089,0.019224644,-0.9820628,2.6323094,-0.001991272,-0.24712154,78.82608,0.025108816,0.0032920656,-0.043151334,-2.1025941,-0.020529894,6.48843E-05,0.35075143,0.3098394,0.39210492,0.35393158,-0.23133545,-0.20042458,-0.0065030823,-0.0067494805,238.70155,239.36082,243.88062,243.85806,0,0,0,0,0,0,0,0,0,0,0,0,0.00046840805,0.0020217744,-0.0029889166,0.0049653505,0.23133592,0.20043477,0.0071570734,0.008379153,0.01035903,0.005340498,0.017725784,0.013187256,164,6,231,2,0,-2889.8096,235.22987,706.1294,78.82646,750932.7,682.8724,150.44707,150.92009,150.20793,150.20793,-14.7,1,735.7171,0,0,17.364172,17.364172,0,2,255,133,0,0,1,0,11,190
True,33810640,15999.99,0,9938.377,0.13496113,-0.8495852,-22.347958,-0.014041901,0.20681816,75.976036,0.035534292,0.004252235,-0.04680592,-2.1021535,-0.012987286,-0.002995804,0.46800914,0.41111666,0.3586981,0.29764685,-0.32212752,-0.36894244,-0.20307246,-0.19735159,227.46866,226.50829,230.83904,230.94536,0,0,0,0,0,0,0,0,0,0,0,0,0.0028966956,0.002272311,0.0020583477,0.003568169,0.32214054,0.36894944,0.20308289,0.19738385,0.02474261,0.017763816,0.013753958,0.00649542,164,6,231,2,0,-2897.3506,235.37047,701.6938,75.97632,409301.4,392.89017,150.58028,151.04369,150.24786,150.24786,0,1,741.63025,0,0,17.477081,17.477083,0,2,153,255,0,0,1,0,251,129
True,33810765,15999.99,0,9393.94,0.29346943,-2.567088,-25.623323,-0.0105781555,0.4317924,72.94765,0.070844576,0.005870573,-0.04965041,-2.1017585,-0.0067915763,-0.010339936,0.41327092,0.34656826,0.3026127,0.25430176,-0.6745463,-0.545012,-0.33107075,-0.32804018,211.60695,214.10834,219.15186,219.17007,0,0,0,0,0,0,0,0,0,0,0,0,0.0030547301,0.0015240052,0.005218845,0.004128208,0.6745532,0.54501414,0.33111188,0.32806614,0.01802807,0.009845894,0.007085815,0.001342006,164,6,231,2,0,-2904.6272,235.49728,697.41785,72.94893,571319.5,580.2326,150.754,151.21606,150.30559,150.30559,0,1,747.3343,0,0,17.59055,17.590551,0,2,201,255,0,0,1,0,236,129
True,33810875,15999.99,0,9618.841,0.46933794,-0.12188305,-16.818726,-0.007335663,0.3901211,71.14769,-0.07285236,0.003968328,-0.052878022,-2.1012084,-0.0070243445,-0.014265099,0.4636416,0.38540292,0.32553738,0.26814234,0.050573625,0.055184245,0.07429974,0.07534779,221.77643,221.83505,222.31927,222.32997,0,0,0,0,0,0,0,0,0,0,0,0,0.0036312926,0.0010752542,0.0033975514,0.0028153046,0.050703824,0.05519472,0.07437738,0.07540037,0.024206862,0.014609601,0.009811394,0.0029875524,164,6,231,2,0,-2910.827,235.58159,693.7789,71.14876,454557.03,451.34335,150.89624,151.33524,150.35083,150.35083,0,1,752.22144,0,0,17.690815,17.69082,0,2,166,0,0,0,1,0,226,0
True,33810968,15999.99,0,9719.097,0.6313525,-1.8080658,-0.39990634,0.026573181,0.04889518,71.43381,0.030353596,0.02130461,-0.02766213,-2.1006517,-0.009472665,-0.019309504,0.32368034,0.26857162,0.311131,0.2594693,0.12419321,0.13447915,0.14746392,0.15552424,223.96405,224.07045,224.67003,224.72221,0,0,0,0,0,0,0,0,0,0,0,0,0.10180595,0.1040976,0.00052184495,0.0007801475,0.16058768,0.17006162,0.14746484,0.15552619,0.0070383176,0.0002783276,0.008098584,0.0019563884,164,6,231,2,0,-2917.171,235.67072,690.06116,71.43383,657569.56,646.27264,150.84702,151.28223,150.38904,150.38904,0,1,757.20074,0,0,17.793982,17.793987,0,2,231,0,0,0,1,56,218,0
True,33811093,15999.99,0,9833.286,6.894219,-3.1046598,4.592065,-0.2854023,-0.294562,72.03325,0.02244239,0.25537205,0.012465707,-2.0852706,-0.0068653394,-0.019072175,0.27876833,0.21170725,0.28266048,0.2136376,0.16880691,0.34423172,0.1136536,0.16947871,227.1825,229.1135,226.62524,226.4257,0,0,0,0,0,0,0,0,0,0,0,0,0.52068263,0.5853222,0.07075037,0.076667525,0.547363,0.6790416,0.13387589,0.18601328,0.0015291236,-0.0066970177,0.004713647,-0.0034926608,164,6,231,2,0,-2924.727,235.71873,685.68225,72.0344,752266.1,730.8119,150.93202,151.33276,150.46367,150.46367,0,1,763.1129,0,0,17.915741,17.915747,0,2,255,0,0,0,1,110,210,0
True,33811203,15999.99,0,9876.813,11.463957,-1.51028,5.8565807,-1.3810959,-0.3425301,72.65808,-0.040136985,0.21304956,0.008854405,-2.051741,-0.0030874345,-0.018816473,0.31790322,0.2113385,0.33910218,0.2353683,0.07429846,0.13367891,0.103151776,0.16627274,227.5481,227.5863,228.37733,228.39964,0,0,0,0,0,0,0,0,0,0,0,0,0.13520488,0.15279885,0.19213164,0.21979558,0.1542745,0.20302103,0.21807076,0.2756025,0.0063296594,-0.00674225,0.01142415,-0.0009090416,164,6,231,2,0,-2932.1973,235.71452,681.49976,72.67201,752264.06,727.3824,151.0608,151.4197,150.60043,150.60043,0,1,768.9763,0,0,18.034094,18.0341,0,2,255,0,0,0,1,0,201,0
True,33811296,15999.99,0,9983.342,12.961195,-1.4775949,5.2417507,-1.022644,-0.2901854,73.124664,0.033308387,0.17018047,-0.027609004,-2.0382142,-0.0009102356,-0.020089535,0.35709032,0.22800444,0.39846966,0.28790084,0.108809344,0.22001138,0.15970834,0.23114279,229.37149,230.55441,230.70361,231.0636,0,0,0,0,0,0,0,0,0,0,0,0,0.41176343,0.4691465,0.1537093,0.17562267,0.42589742,0.5181732,0.22166033,0.29029348,0.011136599,-0.0046979003,0.018482499,0.0053366907,164,6,231,2,0,-2938.4604,235.70552,678.1602,73.13239,752387.7,719.7649,151.15114,151.45018,150.75879,150.75879,0,1,773.78467,0,0,18.131447,18.131453,0,1,255,0,0,0,1,113,195,0
True,33811421,15999.99,0,9630.555,15.081106,-1.9675767,2.8569884,-1.5511246,-0.24525023,73.39405,0.078728326,0.33703685,-0.021083992,-2.0070763,0.0029131672,-0.022645878,0.32298505,0.18105085,0.387383,0.23702906,-0.30247816,-0.5518376,-0.08403849,-0.05923312,220.74814,213.61395,225.71545,224.76979,0,0,0,0,0,0,0,0,0,0,0,0,0.6481678,0.74286413,0.24528572,0.28322655,0.71527237,0.92540365,0.25928277,0.28935418,0.006953027,-0.010457527,0.017164383,-0.00071159005,164,6,231,2,0,-2945.7485,235.6744,674.4677,73.41085,749316.5,740.4335,151.42902,151.62173,150.9191,150.9191,-1.4627733,1,779.5416,0,0,18.2428,18.242805,0,1,255,197,0,0,1,113,194,158
True,33811531,15999.99,0,8970.175,16.286404,-2.8176546,-17.583006,-2.6401005,0.21267658,70.87436,0.089480996,0.37728968,-0.045370176,-1.9666209,0.015363962,-0.026641745,0.32916245,0.16357967,0.3096837,0.14594442,-0.5425075,-0.73831946,-0.47993398,-0.6386404,206.85727,205.92746,209.37088,205.78508,0,0,0,0,0,0,0,0,0,0,0,0,0.7492145,0.85109794,0.4191646,0.4904715,0.92500633,1.1267135,0.63720924,0.8052477,0.0077107884,-0.012600655,0.007926509,-0.011540879,164,6,231,2,0,-2953.3467,235.59993,670.83984,70.923836,258829.34,275.35208,151.94792,152.02106,151.13893,151.13893,-11.50874,1,785.2494,0,0,18.359415,18.359423,0,1,90,255,0,0,1,115,198,129
True,33811640,15999.99,0,9099.6455,20.40091,-1.6905148,-18.432602,-3.4989758,0.56917864,68.73419,0.057226647,0.4409062,-0.029321037,-1.9254702,0.023499401,-0.027729906,0.4536154,0.25494996,0.2749339,0.09588227,-0.11562108,-0.30024874,-0.12359246,-0.08687078,210.81984,205.85735,211.65308,210.61217,0,0,0,0,0,0,0,0,0,0,0,0,0.8768047,1.0468838,0.5483195,0.66394883,0.8843951,1.089089,0.562076,0.6696078,0.02297698,-0.0013925917,0.0037950166,-0.017492898,164,6,231,2,0,-2959.665,235.51434,668.0237,68.82555,307259.56,322.70285,152.5334,152.56706,151.45178,151.45178,-14.7,1,789.9408,0,0,18.458658,18.458668,0,1,121,57,0,0,1,115,203,228
True,33811765,15999.99,0,9495.47,24.657013,-0.6166016,1.1059341,-5.051075,0.118189216,68.64462,-0.025552114,0.49893817,-0.02155852,-1.8560735,0.02106689,-0.028208444,0.4478352,0.23909287,0.36367288,0.14510623,0.22664689,0.70466727,0.1740995,0.36783728,217.8339,223.08801,218.36145,218.96208,0,0,0,0,0,0,0,0,0,0,0,0,1.1235739,1.360793,0.6752655,0.8397803,1.1462055,1.5324209,0.69734794,0.91680706,0.022267945,-0.0033377223,0.014345426,-0.011640534,164,6,231,2,0,-2968.0781,235.36789,664.6385,68.83031,622017,625.6953,153.34607,153.22084,151.99228,151.99228,-14.7,1,796.2497,0,0,18.590618,18.590628,0,1,241,0,0,0,1,115,211,0
True,33811859,15999.99,0,9574.588,21.642479,-2.407236,4.1023936,-5.8029346,0.00720495,68.80915,0.015231663,0.40013012,-0.047166105,-1.8150504,0.025024861,-0.031138266,0.36043945,0.13878265,0.34768975,0.15396047,0.23684919,0.6627037,0.28741693,0.5025562,218.32535,223.26186,220.76419,221.83032,0,0,0,0,0,0,0,0,0,0,0,0,1.1813507,1.4483019,0.8191813,0.98628694,1.2048597,1.5927192,0.8681397,1.1069438,0.011547424,-0.015642416,0.012445148,-0.01058783,164,6,231,2,0,-2974.4785,235.23373,662.3528,69.053406,596748.9,595.17596,154.67857,154.60945,152.50993,152.50993,-14.7,1,800.85645,0,0,18.68922,18.68923,0,1,255,0,0,0,1,115,218,0
True,33811984,15999.99,0,9593.959,24.736307,-0.76554626,4.79932,-5.870989,-0.069089115,69.074066,0.050288886,0.29500133,-0.06319606,-1.771824,0.026593603,-0.034920316,0.38558838,0.13049757,0.43574253,0.15077071,0.29370254,0.77638,0.23276089,0.4060706,219.73521,225.89066,220.42804,221.36086,0,0,0,0,0,0,0,0,0,0,0,0,1.3024895,1.5502079,0.7674228,0.94454306,1.3351929,1.7337562,0.80194473,1.0281318,0.014632352,-0.016658716,0.02291397,-0.010967068,164,6,231,2,0,-2982.0325,235.04973,659.9637,69.32315,608449.7,605.7886,156.7215,156.40894,153.21584,153.21584,-14.7,1,806.2944,0,0,18.803755,18.803762,0,1,255,0,0,0,1,115,223,0
True,33812093,15999.99,0,9592.748,24.19643,-1.3330349,5.54411,-5.527752,-0.11546588,69.42903,-0.020578183,0.27937555,-0.023438426,-1.7394043,0.03165745,-0.04148415,0.39235955,0.14800622,0.41255057,0.1653538,0.1392729,0.43943217,0.21458146,0.40047666,219.13054,222.88802,221.21623,222.43745,0,0,0,0,0,0,0,0,0,0,0,0,0.656354,0.8096926,0.69395226,0.88516265,0.6709676,0.92125064,0.7263711,0.9715423,0.01546295,-0.014510995,0.020156618,-0.0092332475,164,6,231,2,0,-2989.6973,234.82549,657.8549,69.64882,724320.8,721.0145,158.16158,157.77246,153.8265,153.8265,0,1,811.68463,0,0,18.918253,18.918257,0,1,255,0,0,0,1,0,226,0
True,33812203,15999.99,0,9662.4375,27.760366,-0.16565919,6.0727134,-3.302064,-0.16220903,70.03854,0.05216547,5.205674E-05,-0.079942,-1.7237811,0.03131755,-0.044797067,0.4442334,0.18692343,0.48665398,0.23653032,0.13737038,0.6655812,0.19738002,0.29603168,220.00067,229.08247,221.82016,222.97258,0,0,0,0,0,0,0,0,0,0,0,0,0.46557918,0.55979306,0.41061822,0.503102,0.48542207,0.8696934,0.45559433,0.58373487,0.021826126,-0.00973716,0.028966963,-0.0007708855,164,6,231,2,0,-2997.4353,234.58656,656.1067,70.11653,730814.8,722.53625,158.39235,157.75906,154.42604,154.42604,0,1,817.0639,0,0,19.03183,19.031837,0,1,255,0,0,0,1,0,225,0
True,33812328,15999.99,0,9641.699,16.40418,-0.28588474,6.205533,-0.6719866,-0.3572529,70.906845,-0.007754105,-0.09975343,-0.13446145,-1.7317567,0.031100873,-0.05803988,0.37655732,0.14563356,0.44144776,0.20369327,0.118904814,0.16002566,0.11984926,0.12724875,222.07393,223.24297,222.46912,222.88452,0,0,0,0,0,0,0,0,0,0,0,0,0.1236447,0.13157281,0.06680677,0.083958365,0.17154115,0.20717049,0.13721147,0.15245081,0.0135245435,-0.0148020405,0.023592278,-0.0046749674,164,6,231,2,0,-3006.4468,234.26825,654.4328,70.910934,752453.3,745.41064,158.38043,157.63803,154.68907,154.68907,0,1,823.3416,0,0,19.161898,19.161905,0,1,255,0,0,0,1,0,221,0
True,33812437,15999.99,0,9711.592,4.0452614,0.32616276,6.1759553,0.19823551,-0.37894267,71.54179,-0.039989352,-0.050584923,-0.11610096,-1.7406996,0.030462576,-0.071666524,0.33862898,0.19784865,0.35683373,0.23860747,0.1043033,0.09053041,0.11856547,0.109024614,223.93561,223.92932,224.44514,224.50464,0,0,0,0,0,0,0,0,0,0,0,0,-0.013134515,-0.011684185,-0.031441096,-0.027959043,0.10512704,0.091281295,0.122663416,0.112552546,0.008872014,-0.008397002,0.0135323,-0.00052392855,164,6,231,2,0,-3013.8542,233.99405,653.17584,71.54307,752370.56,739.93414,158.24266,157.46347,154.75258,154.75258,0,1,828.4385,0,0,19.267445,19.267454,0,1,255,0,0,0,1,0,220,0
True,33812546,15999.99,0,9834.652,-0.14695585,-2.8332744,5.654949,0.23768044,-0.32503557,72.13177,0.0029387493,-0.007826816,-0.08854342,-1.7431405,0.03514873,-0.08087638,0.2441888,0.121829785,0.28216392,0.20068061,0.10771999,0.11750632,0.20375435,0.19100471,225.91814,226.12273,227.79608,227.65343,0,0,0,0,0,0,0,0,0,0,0,0,-0.027663939,-0.027866973,-0.03110334,-0.029295763,0.11121551,0.120765485,0.20611465,0.1932383,-0.0027126223,-0.017721962,0.0046546087,-0.0050331503,164,6,231,2,0,-3021.3186,233.7116,651.90576,72.13289,752126.5,730.17694,158.09366,157.28806,154.793,154.793,0,1,833.6497,0,0,19.372925,19.372934,0,1,255,0,0,0,1,0,224,0
True,33812640,15999.99,0,9855.514,-0.952627,2.9012284,5.9184694,0.13605976,-0.39507222,72.69251,-0.06440745,0.008090626,-0.04277186,-1.742684,0.028783277,-0.08861277,0.35544756,0.32320747,0.39976177,0.34306183,0.090155326,0.079547554,0.10162633,0.08705511,227.41702,227.16687,227.87515,227.6837,0,0,0,0,0,0,0,0,0,0,0,0,-0.01896977,-0.017001428,-0.019330602,-0.012410577,0.09212945,0.0813441,0.10344846,0.08793529,0.010935087,0.006980311,0.018636122,0.011894919,164,6,231,2,0,-3028.0176,233.45567,650.75543,72.69371,752382.4,729.10516,158.00824,157.18643,154.8427,154.8427,0,1,838.25195,0,0,19.466831,19.466843,0,1,255,0,0,0,1,0,233,0
True,33812765,15999.99,0,9967.802,-0.026970387,-1.5599645,5.710316,0.026256561,-0.29559374,73.32013,-0.023367746,0.011119099,0.08273029,-1.7414871,0.032861106,-0.08471813,0.2664218,0.33523443,0.34013066,0.34405428,0.1101148,0.10026397,0.13737883,0.1531744,229.71451,229.49333,230.3982,230.65137,0,0,0,0,0,0,0,0,0,0,0,0,-0.00952364,-0.008161297,-0.0069645243,-0.0024047887,0.11052587,0.10059558,0.13755526,0.15319328,1.4618039E-05,0.0084556155,0.011546429,0.012012918,164,6,231,2,0,-3036.245,233.16324,649.33746,73.32073,751994.6,720.2448,157.87442,157.0408,154.89723,154.89723,0,1,843.90405,0,0,19.581276,19.581287,0,1,255,0,0,0,1,0,247,0
True,33812875,15999.99,0,10074.202,0.31457645,-3.068187,5.2108927,-0.00042533875,-0.29333323,73.95199,0.01783514,0.0043924944,0.10303815,-1.7408226,0.03656197,-0.07298268,0.17895213,0.2657572,0.2336509,0.33286247,0.14590165,0.1483045,0.16725868,0.16304187,232.3025,232.32799,233.11374,232.57553,0,0,0,0,0,0,0,0,0,0,0,0,-0.0056679393,-0.0042081266,-0.0036229244,-0.00115438,0.1460117,0.1483642,0.16729791,0.16304596,-0.0107149705,-6.6906214E-05,-0.0011132285,0.010682296,164,6,231,2,0,-3044.6917,232.83902,647.8837,73.95257,751879.94,712.45233,157.75635,156.90234,154.94267,154.94267,-0.38974476,1,849.6949,0,0,19.697746,19.697756,0,1,255,0,0,0,1,0,10,0
True,33812984,15999.99,0,10172.364,0.18991649,-4.1501627,5.197389,-0.02657032,-0.29994673,74.553276,0.12125908,0.006666207,0.17257372,-1.7405604,0.04176596,-0.056694746,0.116337456,0.27193412,0.1811007,0.3046133,0.26956102,0.22255495,0.13527963,0.15918255,236.15106,235.28159,234.2472,234.74944,0,0,0,0,0,0,0,0,0,0,0,0,-0.0064754398,-0.0035868245,-0.0033077328,-0.0007929376,0.26963878,0.22258386,0.13532007,0.15918453,-0.018395687,0.0006907955,-0.007361058,0.0073236786,164,6,231,2,0,-3052.8862,232.48436,646.47455,74.553894,751878.56,705.39954,157.64024,156.76878,154.98528,154.98528,-2.1537848,1,855.30334,0,0,19.809807,19.809816,0,1,255,0,0,0,1,0,31,0
True,33813093,15999.99,0,10213.209,0.12934458,-3.931725,5.6045017,-0.068434715,-0.46046567,75.10641,0.008073863,0.0071629575,0.18917172,-1.7400639,0.04555505,-0.040574748,0.07617152,0.3339478,0.14940439,0.3406424,0.14590088,0.1296091,0.1312221,0.13305317,235.90144,235.62473,235.92221,235.93073,0,0,0,0,0,0,0,0,0,0,0,0,-0.00039097035,0.0016679235,-0.0021230981,0.0050028553,0.1459014,0.12961982,0.13123928,0.1331472,-0.023322698,0.00829779,-0.011129513,0.011607267,164,6,231,2,0,-3060.0427,232.12433,645.243,75.10785,752258.2,703.3485,157.56602,156.68564,155.02173,155.02173,-4.1340923,1,860.2066,0,0,19.906975,19.906986,0,1,255,0,0,0,1,0,49,0
True,33813203,15999.99,0,9668.643,0.09836161,-1.8662142,-11.414232,-0.09695625,-0.08768843,73.87117,0.11826406,0.0035865933,0.20499033,-1.7397,0.0530822,-0.015664967,0.07805517,0.35100338,0.12711792,0.30705824,-0.48234874,-0.2908795,-0.15483953,-0.20977989,218.31145,222.3443,225.42375,224.36833,0,0,0,0,0,0,0,0,0,0,0,0,0.003844416,0.004894238,-0.0010210326,0.0068270885,0.48236406,0.29092067,0.1548429,0.20989096,-0.023091637,0.010389935,-0.01377921,0.0076143593,164,6,231,2,0,-3068.7837,231.656,643.73975,73.87128,752261.7,741.9062,157.5297,156.64185,155.03302,155.03302,-6.887046,1,866.1932,0,0,20.025747,20.025757,0,1,255,220,0,0,1,0,70,146
True,33813296,15999.99,0,9895.334,0.003299594,-0.50725996,-7.4306016,-0.1040144,0.15004256,72.93201,-0.0776739,0.003178118,0.19666424,-1.7396432,0.05803706,0.0044101067,0.22401106,0.3941838,0.09930076,0.29536986,0.07513074,0.080114745,0.11352641,0.11367234,227.91618,228.01964,228.84546,228.81616,0,0,0,0,0,0,0,0,0,0,0,0,0.0063971747,0.0049171187,-0.0016778572,0.005969673,0.075402595,0.0802655,0.11353881,0.11382899,-0.0051877536,0.015686724,-0.017086465,0.0062246993,164,6,231,2,0,-3076.148,231.23291,642.47375,72.93223,752254.75,726.1042,157.55296,156.661,155.01346,155.01346,-9.35959,1,871.2379,0,0,20.1281,20.128107,0,1,255,0,0,0,1,0,87,0
True,33813421,15999.99,0,9987.316,0.21409506,1.0275474,4.018459,-0.08133221,-0.21491298,73.58681,-0.07905468,-0.0023284364,0.114612296,-1.7396694,0.050615862,0.019946964,0.2320164,0.37482122,0.20851785,0.3490468,0.07845958,0.078936666,0.11939657,0.12244869,229.98227,230.00569,230.98965,231.0268,0,0,0,0,0,0,0,0,0,0,0,0,0.0073300153,0.006833236,0.0050222906,0.008209428,0.07880124,0.07923188,0.11950215,0.12272358,-0.004205767,0.013311584,-0.004101362,0.012606487,164,6,231,2,0,-3084.47,230.77156,641.0443,73.587166,752320.1,719.3895,157.50255,156.58566,155.07234,155.07234,-12.32611,1,877.0277,0,0,20.243525,20.243534,0,1,255,0,0,0,1,0,104,0
