IsRaceOn,TimestampMS,EngineMaxRpm,EngineIdleRpm,CurrentEngineRpm,AccelerationX,AccelerationY,AccelerationZ,VelocityX,VelocityY,VelocityZ,AngularVelocityX,AngularVelocityY,AngularVelocityZ,Yaw,Pitch,Roll,NormalizedSuspensionTravelFrontLeft,NormalizedSuspensionTravelFrontRight,NormalizedSuspensionTravelRearLeft,NormalizedSuspensionTravelRearRight,TireSlipRatioFrontLeft,TireSlipRatioFrontRight,TireSlipRatioRearLeft,TireSlipRatioRearRight,WheelRotationSpeedFrontLeft,WheelRotationSpeedFrontRight,WheelRotationSpeedRearLeft,WheelRotationSpeedRearRight,WheelOnRumbleStripFrontLeft,WheelOnRumbleStripFrontRight,WheelOnRumbleStripRearLeft,WheelOnRumbleStripRearRight,WheelInPuddleDepthFrontLeft,WheelInPuddleDepthFrontRight,WheelInPuddleDepthRearLeft,WheelInPuddleDepthRearRight,SurfaceRumbleFrontLeft,SurfaceRumbleFrontRight,SurfaceRumbleRearLeft,SurfaceRumbleRearRight,TireSlipAngleFrontLeft,TireSlipAngleFrontRight,TireSlipAngleRearLeft,TireSlipAngleRearRight,TireCombinedSlipFrontLeft,TireCombinedSlipFrontRight,TireCombinedSlipRearLeft,TireCombinedSlipRearRight,SuspensionTravelMetersFrontLeft,SuspensionTravelMetersFrontRight,SuspensionTravelMetersRearLeft,SuspensionTravelMetersRearRight,CarOrdinal,CarClass,CarPerformanceIndex,DrivetrainType,NumCylinders,PositionX,PositionY,PositionZ,Speed,Power,Torque,TireTempFl,TireTempFr,TireTempRl,TireTempRr,Boost,Fuel,Distance,BestLapTime,LastLapTime,CurrentLapTime,CurrentRaceTime,Lap,RacePosition,Accelerator,Brake,Clutch,Handbrake,Gear,Steer,NormalDrivingLine,NormalAiBrakeDifference
True,23484312,15999.99,0,0,0.27488828,0.07949765,-0.045616243,-0.005616039,-0.030128822,-0.0024546534,0.0054325517,-0.00032645342,0.014565948,-1.8008903,-0.28219092,0.0068840072,0,0.017957728,0.040814098,0.20498969,0.06481698,0.06285141,0.2886711,0.19432284,0,0,0,0,0,0,0,0,0,0,0,0,0.59999996,0.59999996,0.59999996,0.59999996,0.061689917,-0.12012904,0.34542325,-0.16344118,0.08948121,0.1355776,0.45016468,0.25391805,-0.03266638,-0.030463573,-0.024040096,-0.0045208335,164,6,231,2,0,-19.48581,407.1191,4612.4365,0.030745912,0,0,168.07625,169.12383,182.64804,182.64804,-5.879999,1,0,0,0,0.6794687,23.529375,0,8,0,0,0,0,0,0,127,0
True,23508859,15999.99,0,107.851555,-0.07876715,-0.04054299,4.658116,-0.0023622587,-0.004148582,0.5015768,-0.023944266,5.4671138E-05,-0.011639328,1.4993564,-0.03213216,0.03024274,0.2650043,0.25260535,0.24300064,0.26021403,0.8159985,-0.044190276,1.3180029,-0.041969422,1.4775575,2.8181648,1.4780433,3.8744373,0,0,0,0,0,0,0,0,0,0,0,0,0.023785574,0.023814803,-0.007793816,-0.0077992864,0.8163451,0.050198857,1.318026,0.042687953,-0.00015925989,-0.0016801953,-1.6130507E-06,0.002044931,164,6,231,2,0,-1048.5226,355.72742,4304.5303,0.5015995,8833.296,795.93713,103.51036,103.4771,103.84523,103.84523,0,1,-58.57793,0,0,0.10299861,0.10299861,0,7,255,0,0,0,1,0,49,0
True,23508984,15999.99,0,356.21954,0.21837467,-0.012128925,12.743091,0.00037142634,-0.0065347916,2.1006324,-0.031295646,-0.0060996725,-0.018068317,1.4988745,-0.03601516,0.028267363,0.23593538,0.24002415,0.2912967,0.32678482,2.6386216,0.43142855,0.80740887,0.46990392,11.126997,7.2783465,7.963915,7.4338655,0,0,0,0,0,0,0,0,0,0,0,0,0.0631381,0.06345389,-0.013849987,-0.011919793,2.6393769,0.43606994,0.8075276,0.47005507,-0.0037250407,-0.0032234862,0.0057404265,0.009959705,164,6,231,2,0,-1048.3702,355.73184,4304.541,2.1006427,56424.977,1546.6406,103.82526,103.64766,104.11188,104.11188,0,1,-58.46604,0,0,0.2251206,0.22512059,0,7,255,0,0,0,1,0,49,0
True,23509109,15999.99,0,533.13055,2.1543696,0.026278082,11.996588,0.24088082,0.0005498051,3.371304,0.011639271,0.18328667,0.0075278427,1.5042804,-0.036910325,0.02810319,0.22458601,0.22135402,0.31137326,0.34735215,0.7124457,0.87004817,1.3543304,0.59247196,12.482905,12.319641,13.023726,11.50492,0,0,0,0,0,0,0,0,0,0,0,0,1.1278492,1.4894623,-0.038007088,-0.035816748,1.334025,1.7249584,1.3548636,0.5935536,-0.0051172264,-0.005513683,0.008127388,0.012405008,164,6,231,2,0,-1048.0676,355.7433,4304.555,3.3798985,83753.945,1546.6406,105.53653,104.08266,104.673416,104.673416,0,1,-58.244095,0,0,0.33389375,0.33389372,0,7,255,0,0,0,1,120,49,0
True,23509218,15999.99,0,803.9514,4.9013968,-0.12222065,8.907083,0.7027408,-0.012414528,4.3143754,0.004894403,0.578583,0.009810961,1.5450892,-0.03664004,0.02883484,0.22763227,0.22363336,0.3012989,0.30808297,0.824403,3.101474,2.3540194,3.7881854,16.812895,18.17618,19.513704,18.779934,0,0,0,0,0,0,0,0,0,0,0,0,0.72647095,1.1344174,0.037812475,0.04985554,1.0988177,3.30243,2.3543231,3.7885134,-0.0047435537,-0.005234085,0.0069296136,0.007736191,164,6,231,2,0,-1047.6494,355.7594,4304.524,4.3712506,127629.77,1546.6406,106.072205,107.69255,104.92031,104.92031,0,1,-57.940018,0,0,0.44196156,0.44196153,0,7,255,0,0,0,1,0,48,0
True,23509312,15999.99,0,1459.5233,1.0747716,-0.3161223,12.280347,0.4701453,-0.04857956,5.7303715,0.0027075885,0.6078854,-0.036333453,1.6128205,-0.038717348,0.02359073,0.18821548,0.18026266,0.30505222,0.30620685,9.296557,8.481403,8.048452,9.518573,35.418297,30.92427,34.464455,33.52896,0,0,0,0,0,0,0,0,0,0,0,0,-1.9445349,-2.2553933,0.48156115,0.56574416,9.497747,8.776161,8.062846,9.535371,-0.009578668,-0.010554213,0.0073758587,0.0075131394,164,6,231,2,0,-1047.1104,355.7785,4304.4497,5.749831,233600.44,1546.6406,110.55246,115.55194,112.65357,112.65357,0,1,-57.549866,0,0,0.54895186,0.5489518,0,7,255,0,0,0,1,0,45,0
True,23509421,15999.99,0,2192.4832,-0.39479554,-0.12898313,12.509772,0.07046628,-0.06353684,7.0626545,0.011895205,0.45279074,0.013537462,1.6682913,-0.03942752,0.020754287,0.15857671,0.18950403,0.29554716,0.33618808,16.767265,12.389914,13.013849,14.043466,56.939476,44.210537,51.239887,50.092953,0,0,0,0,0,0,0,0,0,0,0,0,-1.0124738,-1.1039469,0.6705956,0.7087311,16.797806,12.438998,13.031116,14.061338,-0.01321435,-0.009420607,0.0062457807,0.01107768,164,6,231,2,0,-1046.4379,355.79907,4304.3735,7.063291,352421.72,1546.6406,118.08707,123.37709,121.20685,121.20685,0,1,-57.062363,0,0,0.65458435,0.6545842,0,7,255,0,0,0,1,0,43,0
True,23509546,15999.99,0,3058.2368,-0.14558613,-0.2032235,12.438992,-0.29823506,-0.07349996,8.534965,0.00972368,0.35929164,0.011481856,1.7164255,-0.03835444,0.020128356,0.16828649,0.19887504,0.30264163,0.32004312,18.476826,16.934237,16.922148,18.892927,72.111465,65.47306,71.7103,71.53288,0,0,0,0,0,0,0,0,0,0,0,0,-0.2408891,-0.24485447,0.8435057,0.90493995,18.478395,16.936007,16.943157,18.914587,-0.012023287,-0.008271098,0.0070892572,0.009158164,164,6,231,2,0,-1045.5063,355.82678,4304.272,8.540489,492624.16,1546.6406,126.660034,131.84491,130.80672,130.80672,0,1,-56.386864,0,0,0.7745006,0.77450055,0,7,255,0,0,0,1,0,40,0
True,23509640,15999.99,0,3664.3503,0.016561747,-0.23377159,12.747103,-0.59555316,-0.0674179,9.889496,0.012940692,0.32610467,0.011526149,1.7518291,-0.03728061,0.01944315,0.17717415,0.19608654,0.29244497,0.31119618,18.268707,19.271349,18.09647,19.97225,82.88141,82.13952,85.40769,86.13382,0,0,0,0,0,0,0,0,0,0,0,0,0.15539539,0.1625002,0.9956415,1.0504326,18.269367,19.272034,18.123838,19.999855,-0.010933068,-0.008613154,0.005876951,0.008106332,164,6,231,2,0,-1044.5497,355.85635,4304.1606,9.90764,590304.9,1546.6406,134.14682,138.9784,139.33177,139.33177,0,1,-55.693478,0,0,0.87848085,0.8784808,0,7,255,0,0,0,1,0,36,0
True,23509765,15999.99,0,4363.2134,0.18678546,-0.021476187,13.374241,-0.94826376,-0.07631326,11.428745,0.0013102512,0.3068218,0.0021364277,1.7891496,-0.03781239,0.019687193,0.20153497,0.2003076,0.29776543,0.30617264,18.786972,22.18275,18.501476,19.395552,98.08839,102.80461,101.29335,100.58518,0,0,0,0,0,0,0,0,0,0,0,0,0.14290911,0.17646949,1.1131197,1.1555699,18.787516,22.183453,18.534931,19.429945,-0.007944815,-0.0080953725,0.0065095127,0.0075090714,164,6,231,2,0,-1043.2832,355.8928,4303.997,11.46827,704547.25,1546.6406,142.58066,147.06323,148.97112,148.97112,0,1,-54.776463,0,0,0.9981045,0.99810445,0,7,255,0,0,0,1,-10,31,0
True,23509875,15999.99,0,4971.5103,-0.86967754,-0.10627465,12.890531,-1.3561802,-0.11028517,12.737841,-0.014448304,0.19143397,0.010204334,1.8166145,-0.03937853,0.0193819,0.2019349,0.22753954,0.3062252,0.31540045,21.36582,20.954458,18.917727,19.716084,116.33987,113.06836,115.33048,114.418274,0,0,0,0,0,0,0,0,0,0,0,0,-1.3872888,-1.10809,1.1783564,1.2189984,21.41081,20.983736,18.95439,19.75373,-0.0078957565,-0.004754927,0.0075153224,0.008606192,164,6,231,2,0,-1042.0094,355.92883,4303.82,12.810305,752798.6,1446.9976,149.76392,154.24936,157.11623,157.11623,0,1,-53.854786,0,0,1.1041149,1.1041149,0,7,255,0,0,0,1,-127,26,0
True,23509984,15999.99,0,3760.6868,-0.73523164,-0.28134155,12.644537,-1.6300164,-0.13700923,14.108343,-0.0033901779,0.064047635,0.0037121316,1.830937,-0.040086854,0.01823793,0.18454985,0.19921795,0.31513625,0.32153663,13.787248,12.5969715,9.516675,9.8186245,97.06838,92.59326,82.285225,82.78604,0,0,0,0,0,0,0,0,0,0,0,0,-0.5292727,-0.3649082,1.2016641,1.2208196,13.797403,12.602256,9.592241,9.89423,-0.010028318,-0.008229036,0.008574776,0.009335734,164,6,231,2,0,-1040.5574,355.97128,4303.6113,14.202854,0,0,156.8239,161.03352,165.20908,165.20908,0,1,-52.80449,0,0,1.2124491,1.212449,0,7,255,0,0,0,1,0,20,0
True,23510093,15999.99,0,2155.0562,9.62145,-0.1348891,8.399649,-0.58815455,-0.11067335,15.119719,0.052751634,-0.14535305,0.05852084,1.8278356,-0.038054988,0.022537714,0.19383572,0.16939105,0.32877043,0.32104483,0.013518152,4.251881,0.018345278,0.03941794,46.53406,63.438755,46.557034,47.340508,0,0,0,0,0,0,0,0,0,0,0,0,0.5243334,0.5885485,0.27347538,0.31419176,0.52450764,4.2924213,0.27409002,0.31665474,-0.008889254,-0.011887794,0.010195781,0.009277262,164,6,231,2,0,-1038.9519,356.01862,4303.334,15.131559,0,0,161.81688,166.30322,167.61371,167.61371,0,1,-51.645638,0,0,1.3224151,1.3224149,0,7,255,0,0,0,1,0,12,0
True,23510203,15999.99,0,2363.6055,1.392144,-0.38090658,12.663018,-0.23052454,-0.12717225,16.548363,0.0059134457,-0.19868587,-0.0455523,1.8136263,-0.035671283,0.022081494,0.22084023,0.19228731,0.31360683,0.28132123,1.5278727,0.6314113,0.5482918,0.37131056,57.41281,54.72457,53.792995,53.776226,0,0,0,0,0,0,0,0,0,0,0,0,-1.2137716,-1.0457659,-0.0044298037,-0.0027626248,1.9513166,1.2215999,0.5483097,0.37132084,-0.0055767074,-0.009079192,0.008392941,0.0045544244,164,6,231,2,0,-1037.2769,356.06836,4302.9336,16.550455,353089.56,1434.5844,159.13562,165.14209,164.432,164.432,0,1,-50.44236,0,0,1.4314427,1.4314424,0,7,255,0,0,0,1,-127,2,0
True,23510312,15999.99,0,2474.0952,-22.988132,-0.434909,6.2353897,-2.2864919,-0.15902962,17.20378,0.029910501,-0.47007203,0.0035639768,1.776271,-0.032850128,0.020399233,0.23020345,0.2362865,0.32185128,0.32629597,0.7683068,0.41669312,0.72604525,0.5801376,56.659706,57.590916,56.386837,57.90298,0,0,0,0,0,0,0,0,0,0,0,0,-0.9796037,-0.70052004,0.84474146,0.85252804,1.2449573,0.81508374,1.1138805,1.0311953,-0.0044281557,-0.003681969,0.009373143,0.009901587,164,6,231,2,0,-1035.4231,356.1126,4302.662,17.355787,332948.66,1292.3093,158.72308,162.78271,161.75877,161.75877,0,1,-49.101906,0,0,1.5421251,1.5421246,0,7,255,0,0,0,1,-127,250,0
True,23510421,15999.99,0,2620.2383,-3.4553545,-0.4596126,9.9190445,-1.3415983,-0.15545934,18.451803,0.03131721,-0.6021566,0.051968627,1.7117748,-0.027894096,0.024898233,0.24866039,0.23823327,0.37143722,0.35643622,0.5775643,1.3342793,0.4251272,0.3891693,58.844006,65.51264,58.39935,60.825756,0,0,0,0,0,0,0,0,0,0,0,0,1.1107441,1.1691321,0.220932,0.24500202,1.2519317,1.7740268,0.47910762,0.45986816,-0.0021641105,-0.0034431666,0.015268542,0.013485037,164,6,231,2,0,-1033.4167,356.14948,4302.534,18.501165,320182.66,1168.1141,156.48843,160.15474,160.154,160.154,0,1,-47.642628,0,0,1.6542377,1.6542373,0,7,255,0,0,0,1,0,245,0
True,23510546,15999.99,0,2816.9001,-1.5293736,-0.23494716,12.298513,-0.42376637,-0.13770431,19.856087,-0.0052457876,-0.34945092,-0.0055842125,1.6586692,-0.024875138,0.027989523,0.24878563,0.2218825,0.40356907,0.35091957,0.5693161,0.7681176,0.5894109,0.48800907,63.954308,66.745125,64.3951,65.395935,0,0,0,0,0,0,0,0,0,0,0,0,0.44057617,0.4413179,-0.054829925,-0.04402388,0.71988064,0.8858703,0.59195566,0.48999077,-0.0021487474,-0.0054488555,0.019088782,0.012829147,164,6,231,2,0,-1031.3036,356.1857,4302.3887,19.861084,455362.16,1546.6406,154.39691,158.53983,157.51915,157.51915,-3.9891758,1,-46.106262,0,0,1.7649359,1.7649354,0,7,255,0,0,0,1,0,239,0
True,23510640,15999.99,0,2993.0288,-3.6441355,-0.052680045,13.615334,-0.30773604,-0.16187847,21.201593,-0.014169719,-0.21741582,-0.023969455,1.6352276,-0.025487764,0.02772474,0.21446306,0.19926468,0.37869838,0.34427667,0.7894391,0.4496056,0.55737966,0.4134372,69.982475,68.91817,68.86216,69.0284,0,0,0,0,0,0,0,0,0,0,0,0,-0.26388204,-0.24168232,-0.0047013564,0.0033933506,0.8323748,0.5104464,0.5573995,0.41345114,-0.0063589737,-0.008223303,0.01613184,0.01203936,164,6,231,2,0,-1029.3492,356.21954,4302.275,21.204445,483591.75,1546.6406,152.36798,156.3123,155.39722,155.39722,-7.315828,1,-44.684223,0,0,1.860269,1.8602686,0,7,255,0,0,0,1,-28,234,0
True,23510765,15999.99,0,3193.018,-9.330638,-0.2664097,11.013759,-0.452478,-0.19371022,22.6467,0.01579209,-0.47497874,-0.03557655,1.5922854,-0.024538986,0.024950722,0.18527766,0.19505869,0.3140975,0.3196067,1.255444,0.43556905,0.55792797,0.25199267,76.25179,73.97119,72.81462,73.18559,0,0,0,0,0,0,0,0,0,0,0,0,-1.0188583,-0.85563,-0.07811863,-0.068201795,1.6168525,0.9601162,0.56337035,0.261059,-0.009939041,-0.008739237,0.0084512755,0.009106278,164,6,231,2,0,-1026.5964,356.26614,4302.196,22.652046,364658.47,1091.8097,151.09348,153.78851,152.79503,152.79503,-10.824399,1,-42.684338,0,0,1.9854107,1.9854102,0,7,255,0,0,0,1,0,229,0
True,23510875,15999.99,0,3389.2168,-4.84589,-0.9167717,12.454528,0.13649836,-0.20484324,24.051054,0.061936192,-0.29881486,-0.011260396,1.5465912,-0.019599076,0.024490023,0.17343211,0.17825557,0.3022669,0.31721047,0.6908245,0.41139957,0.6784662,0.4169529,78.20042,77.98141,78.44141,78.29948,0,0,0,0,0,0,0,0,0,0,0,0,0.1266892,0.12592135,-0.2177793,-0.20276496,0.70234513,0.43023923,0.7125617,0.4636414,-0.0113920905,-0.010800416,0.007044703,0.008821383,164,6,231,2,0,-1024.0521,356.30072,4302.219,24.052313,475005.4,1339.6332,149.48415,151.59262,150.74184,150.74184,-12.578415,1,-40.824738,0,0,2.0943458,2.0943453,0,7,255,0,0,0,1,0,225,0
True,23510968,15999.99,0,3550.0579,-4.216815,-1.1705627,13.279184,0.19236904,-0.19957745,25.337515,0.020233288,-0.106724836,-0.007928205,1.5287818,-0.014422883,0.02355615,0.1666491,0.18082087,0.29330966,0.30308518,0.48907357,0.34083462,0.57899314,0.43831807,81.67218,81.2311,82.41964,82.133,0,0,0,0,0,0,0,0,0,0,0,0,-0.020477716,-0.017205963,-0.13456252,-0.12813422,0.4895021,0.34126863,0.5944242,0.456663,-0.012224138,-0.0104857385,0.005979754,0.007141996,164,6,231,2,0,-1021.69305,356.32227,4302.2837,25.339031,494157.1,1330.6058,147.78331,149.6912,149.07947,149.07947,0,1,-39.098206,0,0,2.1898205,2.18982,0,7,255,0,0,0,1,0,223,0
True,23511093,15999.99,0,3746.9514,-2.218591,-0.52736664,13.898128,0.050415277,-0.2440259,26.898663,-0.0020516692,-0.01432552,0.0011960698,1.5233743,-0.014145324,0.023256678,0.17503907,0.19112827,0.29412168,0.31253147,0.4198836,0.41003186,0.40648395,0.3753161,86.47228,86.492905,86.62525,86.49844,0,0,0,0,0,0,0,0,0,0,0,0,-0.01441149,-0.011394864,-0.027033169,-0.024627252,0.42013085,0.41019017,0.4073819,0.37612325,-0.011194972,-0.009221368,0.0060762987,0.0082650855,164,6,231,2,0,-1018.78534,356.3389,4302.403,26.899817,535861.9,1367.4381,145.883,147.61679,147.2091,147.2091,0,1,-36.968,0,0,2.3011546,2.301154,0,7,255,0,0,0,1,0,221,0
True,23511203,15999.99,0,3963.3389,-0.5441842,-0.5321281,13.726149,-0.030415058,-0.24499692,28.422958,0.02577343,0.0069043855,-0.0058149477,1.5228848,-0.012154845,0.022965048,0.16358139,0.15665907,0.30466136,0.32030442,0.3501383,0.44795662,0.4147864,0.41173315,90.92131,91.69512,91.66217,91.64204,0,0,0,0,0,0,0,0,0,0,0,0,0.13533652,0.14254735,-0.002263815,0.0005972676,0.37538353,0.4700903,0.41479257,0.4117336,-0.012600444,-0.0134495795,0.007329393,0.009189237,164,6,231,2,0,-1015.6687,356.3526,4302.5493,28.424028,565639.4,1364.6874,144.08102,145.69391,145.42215,145.42215,0,1,-34.683704,0,0,2.4138463,2.4138455,0,7,255,0,0,0,1,21,219,0
True,23511312,15999.99,0,4138.257,1.2787473,-0.30295053,10.213677,-0.43250012,-0.27517828,29.546183,-0.0088705905,0.24642922,0.022486107,1.5373173,-0.011899127,0.02442307,0.21978663,0.16168381,0.3118925,0.28906175,0.3153693,0.87855744,0.26946828,0.5005161,94.811226,97.84796,94.90843,95.41317,0,0,0,0,0,0,0,0,0,0,0,0,0.7229228,0.8346222,0.18313034,0.20586807,0.78871745,1.2117993,0.3258065,0.5412006,-0.005705949,-0.012833212,0.008189119,0.005474709,164,6,231,2,0,-1012.3738,356.3604,4302.7217,29.550629,492239.56,1136.9866,142.5152,144.08705,143.75774,143.75774,0,1,-32.267807,0,0,2.5275326,2.5275319,0,7,255,0,0,0,1,60,218,0
True,23511421,15999.99,0,4291.306,1.2256882,0.39943737,10.54389,-0.9468724,-0.23882629,30.70084,0.010829334,0.06806775,0.030376585,1.55769,-0.01280244,0.026361352,0.26874405,0.2141968,0.3969377,0.32541382,0.23165248,0.6472242,0.30398485,0.5046065,97.619675,100.63477,98.58126,99.60663,0,0,0,0,0,0,0,0,0,0,0,0,0.21075472,0.23417333,0.23831305,0.27717337,0.31317794,0.68828505,0.38626403,0.57571936,0.0002994798,-0.0063916333,0.018300362,0.009796701,164,6,231,2,0,-1008.99036,356.36725,4302.886,30.716366,596499.7,1328.7677,141.02376,142.59471,142.29523,142.29523,0,1,-29.787722,0,0,2.6400073,2.640006,0,7,255,0,0,0,1,0,216,0
True,23511531,15999.99,0,4440.737,-4.3446765,0.117260836,10.005072,-1.3876271,-0.19774407,31.663855,-0.0026375556,-0.12590548,-0.017176962,1.55538,-0.011863961,0.026396547,0.263797,0.21207163,0.3770943,0.31941637,0.41611707,0.4144599,0.48679245,0.48406145,101.77026,102.36506,102.60615,103.03613,0,0,0,0,0,0,0,0,0,0,0,0,-0.39637157,-0.3585605,0.3343417,0.34590432,0.5746859,0.54803526,0.5905517,0.59494984,-0.0003073588,-0.0066523217,0.015941128,0.009083655,164,6,231,2,0,-1005.9621,356.38104,4303.0464,31.69486,583580.25,1255.9253,139.80101,141.32626,141.15547,141.15547,0,1,-27.549229,0,0,2.7372284,2.7372274,0,7,255,0,0,0,1,-127,215,0
True,23511640,15999.99,0,4548.346,-5.9475164,0.068253286,9.987555,-1.2180164,-0.23689117,32.563675,-0.018246379,-0.30768844,-0.008670083,1.5370501,-0.0124008395,0.0250634,0.21246451,0.16723168,0.34785035,0.30365488,0.35213077,0.44206473,0.47259715,0.41813403,103.445595,105.94995,104.741295,105.71459,0,0,0,0,0,0,0,0,0,0,0,0,0.086361915,0.09617341,0.25559902,0.26501158,0.36256647,0.4524053,0.5372885,0.49504262,-0.0066041276,-0.012152677,0.012464244,0.0072097294,164,6,231,2,0,-1003.26,356.39386,4303.236,32.58731,611685.44,1284.7832,138.87286,140.3019,140.26198,140.26198,0,1,-25.565357,0,0,2.8215604,2.8215594,0,7,255,0,0,0,1,0,216,0
True,23511750,15999.99,0,4739.7373,-1.6577408,-0.9890799,13.988155,-0.27367306,-0.3159263,34.070004,0.041051954,-0.18540327,-0.029488707,1.5084456,-0.010855671,0.024101842,0.19543612,0.13788955,0.33564636,0.2818708,0.38792437,0.4893184,0.3796677,0.34326282,108.807434,110.57416,109.08016,109.59617,0,0,0,0,0,0,0,0,0,0,0,0,0.16569255,0.17032239,0.011287598,0.014043759,0.42182857,0.5181141,0.37983546,0.34355,-0.008692939,-0.015751971,0.011013277,0.004619766,164,6,231,2,0,-999.5117,356.40332,4303.502,34.072563,664308,1339.1571,137.66293,139.04453,139.07791,139.07791,0,1,-22.813179,0,0,2.9342554,2.9342542,0,7,255,0,0,0,1,0,216,0
True,23511859,15999.99,0,4951.6016,-3.9181142,-0.61332506,14.029578,0.019472837,-0.29537088,35.65923,0.00021126447,-0.05909851,-0.034436982,1.4952745,-0.0069454103,0.02029354,0.22944501,0.17515038,0.33125684,0.28921527,0.31621465,0.32539186,0.3999933,0.36630335,113.59189,113.966255,114.6748,114.6577,0,0,0,0,0,0,0,0,0,0,0,0,0.019543167,0.022042591,-0.025802651,-0.022916209,0.316818,0.3261376,0.4008247,0.36701947,-0.004521191,-0.011181319,0.010491397,0.0054929666,164,6,231,2,0,-995.43097,356.402,4303.8,35.660458,711724.75,1373.2224,136.46278,137.75974,137.92796,137.92796,0,1,-19.81657,0,0,3.0515442,3.0515432,0,7,255,0,0,0,1,0,217,0
True,23511968,15999.99,0,5156.0645,-0.7871549,0.22926253,13.157826,0.032205343,-0.31907517,37.2134,-0.012698561,-0.005173264,-0.032050908,1.4924492,-0.008609775,0.016617367,0.19777419,0.16000445,0.3332061,0.30279398,0.33227748,0.33144635,0.33861396,0.32959938,118.862434,118.865524,119.21152,119.172325,0,0,0,0,0,0,0,0,0,0,0,0,-0.0056853127,-0.0033159123,-0.010358711,-0.00693336,0.3323261,0.33146295,0.33877236,0.3296723,-0.008406136,-0.013039215,0.010723144,0.0071073696,164,6,231,2,0,-991.31805,356.39886,4304.115,37.214783,735215.56,1362.9304,135.38065,136.59427,136.90155,136.90155,0,1,-16.795603,0,0,3.164676,3.1646748,0,7,255,0,0,0,1,0,218,0
True,23512078,15999.99,0,5354.7393,-0.40341532,-0.19453576,13.014562,0.00681901,-0.32554784,38.642433,0.008462034,-0.00018669368,-0.007745872,1.492253,-0.00819022,0.014225358,0.16546616,0.15301472,0.303862,0.28360888,0.34399748,0.29280153,0.34841985,0.35436243,123.48741,122.985664,123.875305,123.91848,0,0,0,0,0,0,0,0,0,0,0,0,-0.0024745709,-0.00022813988,-0.0023040217,-0.0010462261,0.3440064,0.29280162,0.34842744,0.35436395,-0.012369247,-0.01389662,0.0072343536,0.004826408,164,6,231,2,0,-987.1724,356.3992,4304.439,38.643803,731256.44,1305.1821,134.4231,135.54987,135.97908,135.97908,0,1,-13.759067,0,0,3.2742424,3.2742412,0,7,255,0,0,0,1,0,219,0
True,23512187,15999.99,0,5539.367,-0.4376424,-0.26404074,12.787237,-0.0052826405,-0.34473753,40.035347,0.010172088,-0.0003548577,0.0009232596,1.4922526,-0.007857904,0.014264658,0.21370175,0.2041469,0.30407313,0.28696135,0.304877,0.3353983,0.32283008,0.32403845,127.530426,127.849525,128.04614,128.0704,0,0,0,0,0,0,0,0,0,0,0,0,-0.00020679232,0.0029077723,0.00010243574,0.0011681233,0.3048771,0.3354109,0.32283008,0.32404056,-0.0064523593,-0.0076244175,0.007259451,0.005224988,164,6,231,2,0,-982.8931,356.39697,4304.7754,40.036827,743409.2,1282.6302,133.53706,134.58484,135.13564,135.13564,0,1,-10.6153555,0,0,3.3833015,3.3833005,0,7,255,0,0,0,1,0,220,0
True,23512312,15999.99,0,5739.222,0.16383773,-0.012535381,12.485446,-0.00048089027,-0.3366674,41.61456,-0.009232574,-0.0025113586,-0.026751084,1.4921103,-0.0074342233,0.012726586,0.22357918,0.1861466,0.36391598,0.3429041,0.25463563,0.284695,0.29132524,0.2915018,132.06285,132.36176,132.71284,132.73561,0,0,0,0,0,0,0,0,0,0,0,0,0.0016998746,0.00414032,-0.0027260953,0.004077918,0.2546413,0.2847251,0.291338,0.2915303,-0.005240731,-0.009832449,0.014374323,0.011876166,164,6,231,2,0,-977.7514,356.39203,4305.18,41.615917,752302.1,1252.5302,132.58775,133.5634,134.24124,134.24124,0,1,-6.8380504,0,0,3.5095766,3.5095756,0,7,255,0,0,0,1,0,221,0
True,23512406,15999.99,0,5924.8145,-0.15755373,-0.42245102,12.000399,0.0037732124,-0.32580668,42.861633,0.02566745,-0.0010737445,-0.021347273,1.4919442,-0.006201205,0.009826375,0.1831546,0.15757886,0.31285158,0.29000613,0.30280992,0.29263738,0.32505244,0.3239093,136.47014,136.37376,137.05914,137.04446,0,0,0,0,0,0,0,0,0,0,0,0,-0.00026435635,0.0021820664,-0.0011425834,0.00048608592,0.30281004,0.2926455,0.32505444,0.32390967,-0.010199469,-0.013336752,0.008303143,0.005586993,164,6,231,2,0,-973.3382,356.3889,4305.528,42.862865,752284.44,1213.381,131.86386,132.77837,133.5586,133.5586,0,1,-3.5959258,0,0,3.6143332,3.614332,0,7,255,0,0,0,1,0,222,0
True,23512531,15999.99,0,6105.145,0.15523797,-0.8257777,11.659204,0.004867077,-0.34524688,44.246964,0.016043864,-0.0015419922,-0.023022767,1.491854,-0.004027297,0.007547389,0.21744186,0.18588762,0.2821102,0.27365273,0.2677015,0.29574648,0.3057326,0.29450414,140.52641,140.82497,141.21565,141.12083,0,0,0,0,0,0,0,0,0,0,0,0,-0.0004353432,0.002414987,-0.000241429,0.0003293832,0.26770186,0.29575634,0.3057327,0.2945043,-0.005993575,-0.0098642185,0.0046482235,0.0036426932,164,6,231,2,0,-968.1568,356.37482,4305.9365,44.24831,752251.9,1177.4304,131.10912,131.95801,132.85191,132.85191,0,1,0,0,0,3.7336147,3.7336133,0,7,255,0,0,0,1,0,223,0
True,23512640,15999.99,0,6261.618,-0.29186708,-0.26320785,11.417891,0.0042529106,-0.33723775,45.565754,-0.020861985,0.00022602742,-0.009736849,1.4917703,-0.0029463775,0.005348398,0.2396722,0.22628286,0.32969236,0.3143789,0.20839775,0.2056553,0.2637635,0.26377228,144.01971,144.00136,144.93565,144.92982,0,0,0,0,0,0,0,0,0,0,0,0,-0.0014374201,0.0005270273,-0.002479572,0.0011083416,0.20840271,0.20565598,0.26377514,0.2637746,-0.0032666586,-0.0049090795,0.01030539,0.008484729,164,6,231,2,0,-962.9439,356.3512,4306.3486,45.567005,752673.2,1148.5247,130.43198,131.22168,132.22115,132.22115,0,1,4.0332847,0,0,3.850017,3.8500154,0,7,255,0,0,0,1,0,223,0
True,23512750,15999.99,0,6405.1196,-0.033669353,0.73081064,10.915695,0.0031499863,-0.32768762,46.632458,0.001798767,-0.00030572867,-0.017989488,1.4917504,-0.004855785,0.0040065153,0.2461326,0.21921627,0.3574651,0.33190054,0.23677115,0.23108678,0.23977785,0.2431432,147.70625,147.6246,148.04549,148.0795,0,0,0,0,0,0,0,0,0,0,0,0,-0.0007390132,0.0017693669,-0.003008909,0.0024785188,0.23677231,0.23109354,0.23979673,0.24315584,-0.002474185,-0.0057759136,0.01360736,0.01056793,164,6,231,2,0,-958.4298,356.33704,4306.7056,46.63361,752771.75,1123.0894,129.89818,130.64095,131.72906,131.72906,0,1,7.3498616,0,0,3.9481995,3.948198,0,7,255,0,0,0,1,0,223,0
True,23512875,15999.99,0,6610.851,-0.29569864,-0.69178414,10.431234,-0.0041327477,-0.32408822,48.00413,0.040916055,0.0008756587,0.012593075,1.4918026,-0.0029814858,0.0037127722,0.18875906,0.18919751,0.3073141,0.2951627,0.28725848,0.28668648,0.27141583,0.2687249,152.57057,152.59291,152.7406,152.7084,0,0,0,0,0,0,0,0,0,0,0,0,-0.00160582,0.0010919241,-0.0006864163,0.00059238827,0.28726295,0.28668857,0.2714167,0.26872554,-0.009511989,-0.009458207,0.0076447837,0.0062000714,164,6,231,2,0,-952.2194,356.32086,4307.1973,48.005222,752810.4,1088.1051,129.25035,129.93042,131.13193,131.13193,0,1,11.912748,0,0,4.0798,4.079799,0,7,255,0,0,0,1,0,224,0
True,23512984,15999.99,0,6738.674,0.6038382,-0.38269198,10.395034,0.021558762,-0.3433911,49.177822,-0.042754676,0.019898174,-0.010197629,1.492068,-0.0017799096,0.0037720427,0.19572602,0.17189555,0.26746175,0.2616417,0.16350278,0.1875475,0.22475575,0.23376638,154.91774,155.13342,155.94138,155.96133,0,0,0,0,0,0,0,0,0,0,0,0,0.07903904,0.08209977,0.00075330725,0.0015788611,0.18160488,0.20473017,0.224757,0.23377171,-0.008657377,-0.011580577,0.0029066317,0.002214674,164,6,231,2,0,-946.73004,356.29187,4307.6313,49.179028,752543.94,1066.896,128.74963,129.38351,130.6723,130.6723,-0.5804138,1,15.9882555,0,0,4.1930947,4.193094,0,7,255,0,0,0,1,47,226,0
True,23513093,15999.99,0,6906.5146,5.387309,0.81004065,9.597994,-0.073729515,-0.34264165,50.23552,0.004602811,0.2585083,0.019247113,1.5066313,-0.0045493618,0.0043195533,0.23153417,0.18593672,0.3136053,0.27419406,0.18726954,0.3736045,0.19424044,0.28418905,159.05034,160.18597,159.47333,159.40692,0,0,0,0,0,0,0,0,0,0,0,0,0.42991936,0.4827979,0.06824521,0.074401006,0.46893552,0.6104704,0.20588043,0.2937668,-0.004264921,-0.009858195,0.008392759,0.0037070513,164,6,231,2,0,-941.24774,356.27353,4308.0327,50.23674,752784,1041.5823,128.35165,128.93364,130.26855,130.26855,0,1,20.011843,0,0,4.3036294,4.303629,0,7,255,0,0,0,1,127,229,0
True,23513203,15999.99,0,7057.2466,7.3160653,-0.7277031,9.563877,-0.7313156,-0.32516414,51.259975,0.041899342,0.18529736,0.012822834,1.5375501,-0.0025463048,0.005451096,0.25344568,0.21853754,0.3531594,0.30858254,0.21584782,0.32518786,0.21975794,0.3305862,162.4789,162.96005,162.91722,163.33597,0,0,0,0,0,0,0,0,0,0,0,0,0.09290857,0.10006893,0.17228448,0.19239317,0.23499422,0.3402366,0.27924094,0.38249493,-0.0015771128,-0.00585917,0.01309545,0.007795591,164,6,231,2,0,-935.6743,356.258,4308.344,51.266224,752699.1,1018.9248,128.02109,128.57027,129.9328,129.9328,0,1,24.099663,0,0,4.4136014,4.4136,0,7,255,0,0,0,1,0,231,0
True,23513312,15999.99,0,7159.507,6.8876753,-0.38216886,9.689682,-0.47700536,-0.32772744,52.294624,-0.027645588,0.03432929,0.034864377,1.54805,-0.0013547661,0.008334331,0.23794597,0.2112613,0.3150972,0.27125144,0.15177378,0.19756497,0.19740874,0.23789065,164.58954,165.01726,165.50317,165.77367,0,0,0,0,0,0,0,0,0,0,0,0,0.08028792,0.084982775,0.091633774,0.09872547,0.17170157,0.2150674,0.21763952,0.25756294,-0.0034784079,-0.00675172,0.008570135,0.003357198,164,6,231,2,0,-930.0537,356.22974,4308.5645,52.297825,752516.94,1004.09644,127.66884,128.18504,129.64958,129.64958,0,1,28.219566,0,0,4.5222073,4.522205,0,7,255,0,0,0,1,0,232,0
True,23513437,15999.99,0,7367.3047,-2.3332477,-1.0570632,8.619956,-0.153602,-0.32280886,53.389263,0.049774595,-0.23901105,-0.012619777,1.5365459,0.00025187255,0.008382695,0.1693787,0.18687917,0.29935038,0.31182015,0.46608588,0.2562755,0.31966868,0.23497036,171.44633,169.78421,169.89705,169.88222,0,0,0,0,0,0,0,0,0,0,0,0,-0.56599116,-0.5123348,-0.02327717,-0.020382436,0.73319983,0.57285607,0.32051504,0.23585275,-0.011889311,-0.009742588,0.0066979565,0.008180514,164,6,231,2,0,-923.3809,356.19788,4308.779,53.390457,743485,964.22797,127.36023,127.84012,129.32465,129.32465,0,1,33.11649,0,0,4.6484895,4.6484866,0,7,255,0,0,0,1,-127,232,0
True,23513546,15999.99,0,7463.6377,-6.7397594,-1.9512689,8.907001,0.8852427,-0.32874447,54.313854,-0.0038558296,-0.30317697,-0.008096188,1.501153,0.0050156196,0.0066381227,0.15967956,0.20847271,0.2184549,0.24552847,0.24114579,0.14097762,0.34763038,0.22016041,171.29872,171.4186,173.01408,172.8171,0,0,0,0,0,0,0,0,0,0,0,0,-0.087733164,-0.079903714,-0.23776105,-0.21688236,0.25660944,0.16204719,0.4211617,0.3090446,-0.013079068,-0.007093787,-0.0029199198,0.00029892847,164,6,231,2,0,-917.5567,356.1447,4309.041,54.322063,752364.9,962.7413,127.20741,127.64307,129.10071,129.10071,0,1,37.38618,0,0,4.756759,4.7567563,0,7,255,0,0,0,1,0,235,0
True,23513656,15999.99,0,7557.909,-10.485863,0.8911812,8.937473,0.66418695,-0.34215537,55.26527,-0.0044110874,-0.04968974,0.01844582,1.482787,0.0022120276,0.006505334,0.19159055,0.28492874,0.27070716,0.3711524,0.22177574,0.14981827,0.2188464,0.16898152,174.62894,173.91632,174.8625,174.52597,0,0,0,0,0,0,0,0,0,0,0,0,-0.1176213,-0.10962307,-0.13363831,-0.11914471,0.25103635,0.18564141,0.25642335,0.20676126,-0.009164661,0.0022847988,0.003292486,0.015234679,164,6,231,2,0,-911.6357,356.08704,4309.4287,55.270317,752627.25,951.3709,126.954796,127.37604,128.91928,128.91928,0,1,41.72934,0,0,4.865018,4.865015,0,7,255,0,0,0,1,0,239,0
True,23513765,15999.99,0,7711.266,-5.179824,-1.5771129,8.610381,0.17980623,-0.32138625,56.1882,0.039234187,0.019905472,0.029478246,1.4830114,0.006071386,0.0091301575,0.16874385,0.24498248,0.2723276,0.3379313,0.24401635,0.19147304,0.2512882,0.2538002,178.00032,177.18167,178.38132,178.33214,0,0,0,0,0,0,0,0,0,0,0,0,-0.043110147,-0.039694898,-0.03055284,-0.027931185,0.24779521,0.19554439,0.25313878,0.25533253,-0.011967182,-0.0026152655,0.0034851432,0.01128494,164,6,231,2,0,-905.5638,356.02856,4309.9243,56.189404,752509.8,932.1927,126.71674,127.10812,128.7179,128.7179,0,1,46.170372,0,0,4.974321,4.974318,0,7,255,0,0,0,1,0,244,0
True,23513875,15999.99,0,7815.488,-1.2063122,-1.5954616,8.477602,-0.024270535,-0.34586167,57.113544,0.011428952,0.01341206,0.0578367,1.4849943,0.008901868,0.014153415,0.14191797,0.21712294,0.22623628,0.27531102,0.17891097,0.16523013,0.21784897,0.22323382,180.00131,179.71591,180.82893,180.84914,0,0,0,0,0,0,0,0,0,0,0,0,-0.0030572652,-0.0014768183,0.0030609656,0.0041311695,0.17893709,0.16523673,0.21787047,0.22327204,-0.015257817,-0.006032694,-0.00199477,0.0038398504,164,6,231,2,0,-899.4638,355.9452,4310.4478,57.114594,752466.9,919.6589,126.50249,126.864914,128.54282,128.54282,0,1,50.65343,0,0,5.082379,5.082376,0,7,255,0,0,0,1,0,248,0
True,23513984,15999.99,0,7941.349,-1.4936525,-1.2209781,8.302008,-0.10499239,-0.351656,58.008408,0.035619322,-0.061068803,0.035958286,1.4845818,0.010774337,0.02013474,0.196172,0.27165225,0.26355454,0.31405896,0.22082365,0.17472741,0.22521771,0.20821796,183.22455,182.8302,183.5958,183.61223,0,0,0,0,0,0,0,0,0,0,0,0,-0.20917453,-0.1975602,0.0035381385,0.0050496836,0.30416617,0.26374173,0.2252455,0.20827919,-0.008602671,0.00065622106,0.0024420954,0.008446697,164,6,231,2,0,-893.2322,355.84665,4310.988,58.00957,752592.5,905.3418,126.30847,126.64765,128.39134,128.39134,0,1,55.233612,0,0,5.1910286,5.191026,0,7,255,0,0,0,1,-127,251,0
True,23514093,15999.99,0,8087.856,-7.1444993,-1.3228432,7.7905855,0.29941416,-0.3341503,58.837402,0.040748753,-0.31535012,0.0013225474,1.4637395,0.014088476,0.021145739,0.19205578,0.25692877,0.28470254,0.3480954,0.45883965,0.20170702,0.27231318,0.17805573,188.60785,186.35912,186.3626,186.45221,0,0,0,0,0,0,0,0,0,0,0,0,-0.65321213,-0.5736351,-0.114220925,-0.10410035,0.79826057,0.6080649,0.29529795,0.20625404,-0.009107593,-0.0011498556,0.0049564317,0.012493376,164,6,231,2,0,-886.94165,355.73105,4311.5815,58.839115,752739.2,889.2725,126.230385,126.56572,128.26297,128.26297,-0.44017792,1,59.855927,0,0,5.2991586,5.299156,0,7,255,0,0,0,1,-127,254,0
True,23514203,15999.99,0,7737.752,-12.464317,-1.9241884,-2.4461522,1.395133,-0.21437536,58.64403,0.0811901,-0.43682194,-0.012116807,1.4213117,0.02099193,0.020326696,0.15134329,0.24940415,0.21606186,0.3116399,-0.118241094,-0.077109866,-0.22815914,-0.20007291,178.27084,180.83499,177.30086,179.17548,0,0,0,0,0,0,0,0,0,0,0,0,-0.8440164,-0.72672653,-0.3521348,-0.302527,0.85225856,0.73080593,0.4195897,0.36270064,-0.014101649,-0.0020728745,-0.003204435,0.008159086,164,6,231,2,0,-880.6225,355.5904,4312.2983,58.661015,720285.06,889.2858,126.30377,126.68245,128.16422,128.16422,-2.9544783,1,64.51311,0,0,5.406958,5.4069552,0,7,245,255,0,0,1,-127,3,129
True,23514296,15999.99,0,7471.8057,-16.696552,-1.6671541,-11.5736,2.5860443,0.15060402,57.133377,0.05517148,-0.56307155,-0.032365214,1.3689703,0.03115059,0.016524376,0.17716013,0.3095128,0.12662886,0.23194662,-0.37457436,-0.105301976,-0.2660852,-0.2556634,166.90376,175.86389,172.19897,174.18626,0,0,0,0,0,0,0,0,0,0,0,0,-1.0546074,-0.87198466,-0.64182514,-0.5296938,1.1191527,0.87831986,0.69479555,0.58816606,-0.010934789,0.005300436,-0.013837356,-0.0013158545,164,6,231,2,0,-874.48474,355.42816,4313.1685,57.192074,438849.3,560.5409,126.59935,126.99321,128.12125,128.12125,0,1,69.04744,0,0,5.513982,5.5139794,0,7,158,170,0,0,1,-127,11,171
True,23514406,15999.99,0,7988.7075,-18.900183,-2.0357304,1.0944927,3.9021626,0.16267565,57.061157,0.030263599,-0.48144752,0.011814657,1.3084197,0.035228007,0.0130807655,0.15812966,0.30530828,0.10420665,0.2566406,0.73949814,0.20011231,0.6215268,0.33581606,186.66197,181.47408,185.28664,184.16621,0,0,0,0,0,0,0,0,0,0,0,0,-0.6402422,-0.5590012,-0.86861885,-0.7333934,0.97814494,0.5937401,1.0680797,0.8066215,-0.013269186,0.0047846846,-0.01650319,0.0016200803,164,6,231,2,0,-868.46,355.25137,4314.245,57.194656,570159.8,681.7716,126.79821,127.242516,128.21243,128.21243,0,1,73.51194,0,0,5.621349,5.6213465,0,7,255,0,0,0,1,0,22,0
True,23514531,15999.99,0,8028.254,-20.97151,-1.0906963,6.7028775,4.482458,-0.11702481,57.665756,-0.037805688,-0.35626537,-0.032069054,1.254838,0.034219302,0.010380424,0.141669,0.2942445,0.14005485,0.30371767,0.60230887,0.17194535,0.51748294,0.2691124,187.22166,182.81847,186.24077,184.99684,0,0,0,0,0,0,0,0,0,0,0,0,-0.77024496,-0.64196736,-0.9077029,-0.73022425,0.97777975,0.6645956,1.0448508,0.7782345,-0.015288357,0.0034275278,-0.012241105,0.007217191,164,6,231,2,0,-861.5192,355.00754,4315.7607,57.83983,641833.3,763.5678,126.96153,127.45394,128.48955,128.48955,0,1,78.75126,0,0,5.744944,5.744941,0,7,255,0,0,0,1,0,37,0
True,23514640,15999.99,0,8073.6597,-23.574509,0.15380943,7.677377,3.2971964,-0.2042413,58.375557,-0.03037623,-0.11013713,-0.00090095215,1.2307842,0.031790484,0.0065036705,0.13508518,0.29415473,0.17847118,0.35480416,0.4262947,0.12210241,0.4215069,0.25736338,187.36903,183.7348,187.55203,186.34177,0,0,0,0,0,0,0,0,0,0,0,0,-0.3392968,-0.2844437,-0.6257217,-0.518052,0.54483896,0.30954358,0.75445056,0.5784581,-0.016095972,0.003416516,-0.0076736882,0.013290998,164,6,231,2,0,-855.5395,354.79022,4317.3647,58.468952,719955.7,851.46106,127.10553,127.68761,128.71324,128.71324,0,1,83.257614,0,0,5.851498,5.8514953,0,7,255,0,0,0,1,5,53,0
True,23514750,15999.99,0,8179.187,-9.183874,-2.053786,7.939803,2.392088,-0.3163515,59.222416,0.03541807,0.15351251,0.08774851,1.233515,0.034204688,0.014493818,0.09199453,0.21955796,0.17827612,0.30195707,0.25416657,0.2878391,0.31797472,0.3458845,188.21513,188.02174,189.38332,189.24467,0,0,0,0,0,0,0,0,0,0,0,0,0.350022,0.39155206,-0.39167616,-0.37695748,0.43256912,0.48596746,0.5044979,0.5115985,-0.021381745,-0.0057340004,-0.007696878,0.007007867,164,6,231,2,0,-849.5301,354.56177,4319.1743,59.27155,752451.5,878.6563,127.11867,127.70317,128.85547,128.85547,0,1,87.80712,0,0,5.9581633,5.95816,0,7,255,0,0,0,1,127,69,0
True,23514859,15999.99,0,8204.76,-7.4580536,-0.38657743,8.322653,0.22353745,-0.4097162,60.17377,-0.013772789,0.21589102,0.039869204,1.2593017,0.033225372,0.020669488,0.15581404,0.23945986,0.21651646,0.31037065,0.16496333,0.1334436,0.15169516,0.17551352,189.88681,188.41463,189.91931,189.41212,0,0,0,0,0,0,0,0,0,0,0,0,-0.097826935,-0.09304462,-0.00038766547,0.0014011338,0.19178897,0.1626791,0.15169565,0.17551911,-0.013553238,-0.0032927059,-0.0031503849,0.008008186,164,6,231,2,0,-843.3128,354.30045,4321.107,60.175587,752457.44,876.029,127.12441,127.724335,128.89581,128.89581,-0.70095253,1,92.82111,0,0,6.0672407,6.067238,0,7,255,0,0,0,1,0,81,0
True,23514968,15999.99,0,8319.813,0.5351771,-0.054121442,7.716151,-0.36743355,-0.36917818,60.91075,0.034576714,0.06836181,0.070839375,1.2722583,0.033315048,0.027451187,0.175869,0.23566768,0.26384062,0.31893298,0.1553439,0.21515466,0.16753952,0.1937364,191.69821,192.29361,192.20143,192.24077,0,0,0,0,0,0,0,0,0,0,0,0,0.040844254,0.044877578,0.06697874,0.070767485,0.16062373,0.21978518,0.18043183,0.20625672,-0.011093168,-0.0037578791,0.0024761073,0.009026177,164,6,231,2,0,-837.8018,354.07245,4322.852,60.912975,752668.94,864.3012,127.07818,127.67117,128.90057,128.90057,-3.8096285,1,97.0515,0,0,6.1627717,6.162769,0,7,255,0,0,0,1,0,88,0
True,23515078,15999.99,0,8427.328,-4.3924737,-0.6595021,7.621654,-0.44044113,-0.3432842,61.79054,-0.036242515,-0.1849246,-0.028320357,1.2665929,0.03627617,0.028865064,0.20209248,0.23996085,0.23929715,0.29115036,0.18791093,0.11732355,0.19559751,0.14240517,194.36182,194.1502,194.80441,194.8449,0,0,0,0,0,0,0,0,0,0,0,0,-0.45671555,-0.40727997,0.035292182,0.033645995,0.49386194,0.42384169,0.19875595,0.14632596,-0.007876426,-0.0032312497,-0.0004419312,0.005723033,164,6,231,2,0,-830.98663,353.77545,4325.003,61.79306,752360,852.7223,127.09329,127.692345,128.91795,128.91795,-5.1890144,1,102.28209,0,0,6.2793393,6.2793365,0,7,255,0,0,0,1,-127,94,0
True,23515203,15999.99,0,8556.395,-8.283104,1.3814365,7.2774353,0.6056099,-0.29229313,62.60456,0.053142812,-0.2902211,0.016928399,1.2313247,0.033776987,0.025748255,0.22340576,0.30026248,0.3031721,0.3859593,0.23045093,0.16762564,0.22527047,0.14531884,197.31854,197.74313,197.59375,197.69893,0,0,0,0,0,0,0,0,0,0,0,0,-0.032767214,-0.029165367,-0.15205117,-0.13703139,0.23276882,0.17014398,0.27178362,0.19973774,-0.0052620023,0.0041657314,0.0071523264,0.016995113,164,6,231,2,0,-824.07764,353.49026,4327.3066,62.608173,752820.1,840.69635,127.20864,127.85567,128.96408,128.96408,-0.041502953,1,107.70197,0,0,6.396499,6.3964963,0,7,255,0,0,0,1,0,105,0
True,23515296,15999.99,0,8646.254,-8.487418,-1.875355,7.5837727,0.96905136,-0.29370695,63.321323,-0.030014418,-0.12467158,-0.009148534,1.2125003,0.038816243,0.025068318,0.18801346,0.2521168,0.24555524,0.3008253,0.15827045,0.10329953,0.23823062,0.17063121,198.90054,198.65826,200.33212,200.00523,0,0,0,0,0,0,0,0,0,0,0,0,-0.12798971,-0.117866166,-0.18156274,-0.16481611,0.20354582,0.1567266,0.29953104,0.23723271,-0.009603448,-0.0017401241,0.00030210987,0.0068733096,164,6,231,2,0,-818.2189,353.2337,4329.3516,63.32942,752201.44,830.7348,127.20603,127.84854,129.01524,129.01524,0,1,112.24329,0,0,6.49514,6.495137,0,7,255,0,0,0,1,0,115,0
True,23515421,15999.99,0,8721.95,-8.310001,1.929086,7.2236395,0.34941292,-0.3239212,64.06215,0.007593872,0.013794019,0.02341933,1.2078412,0.034029786,0.025602134,0.23975511,0.3198256,0.30089435,0.38448355,0.15057449,0.13807788,0.14825888,0.13382599,201.39679,201.15907,201.61987,201.40216,0,0,0,0,0,0,0,0,0,0,0,0,-0.063421726,-0.060698107,-0.052422073,-0.04556331,0.16338602,0.15083024,0.15725383,0.14136976,-0.0032564886,0.0065654702,0.00688152,0.01681966,164,6,231,2,0,-812.11914,352.96848,4331.5884,64.06392,752264.56,823.9889,127.21238,127.87546,129.07812,129.07812,0,1,116.99267,0,0,6.597194,6.5971913,0,7,255,0,0,0,1,0,122,0
True,23515531,15999.99,0,8834.176,-2.2346091,0.7725339,7.2967715,-0.01158905,-0.32372355,64.970566,-0.04479436,0.010790113,0.041420996,1.2101126,0.033897474,0.029940698,0.24119166,0.30747503,0.29456517,0.3472146,0.102641575,0.098567255,0.13799801,0.14119221,203.50128,203.3804,204.3283,204.34128,0,0,0,0,0,0,0,0,0,0,0,0,-0.002805728,-0.0020758961,0.0016159108,0.004171033,0.102679916,0.098589115,0.13800748,0.14125381,-0.0030802712,0.005050469,0.00612903,0.012388654,164,6,231,2,0,-804.4237,352.64188,4334.482,64.971375,752270.94,813.3313,127.2121,127.868385,129.1272,129.1272,0,1,123.59591,0,0,6.724715,6.724713,0,7,255,0,0,0,1,0,120,0
True,23515640,15999.99,0,8947.212,-1.8735943,3.1253467,6.8560414,-0.07849121,-0.27828348,65.75305,0.005089949,-0.08150072,-0.02137371,1.2087071,0.028109876,0.03184815,0.30363992,0.31330544,0.35554066,0.37286463,0.16052017,0.12196654,0.14279121,0.12595996,206.64162,206.36568,206.6638,206.73764,0,0,0,0,0,0,0,0,0,0,0,0,-0.21406096,-0.20051128,-0.003985443,0.002162171,0.26756087,0.23469257,0.14284682,0.12597851,0.004580032,0.0057656653,0.013378564,0.015438255,164,6,231,2,0,-797.3671,352.3767,4337.148,65.753685,752608.1,803.5833,127.23657,127.88425,129.20609,129.20609,0,1,129.12074,0,0,6.840167,6.840165,0,7,255,0,0,0,1,-127,110,0
True,23515750,15999.99,0,9070.379,-9.436218,0.2484004,6.435729,0.42115593,-0.26484346,66.45078,-0.016080506,-0.35056984,-0.044012547,1.1844511,0.029877024,0.0273305,0.2571203,0.3134013,0.29562166,0.34869486,0.2841801,0.1214685,0.20721398,0.120274186,210.09044,209.0759,209.32378,209.51233,0,0,0,0,0,0,0,0,0,0,0,0,-0.63146025,-0.5372098,-0.120849684,-0.1068268,0.69245964,0.55077124,0.23987973,0.16086592,-0.0011263601,0.005777426,0.0062546358,0.012564648,164,6,231,2,0,-790.53564,352.13214,4339.7983,66.452644,752436.1,792.35266,127.357765,128.04378,129.26384,129.26384,0,1,134.80702,0,0,6.951069,6.9510665,0,7,255,0,0,0,1,-127,97,0
True,23515859,15999.99,0,9181.207,-16.192265,0.48604453,6.329102,1.6758022,-0.25715637,66.989555,-0.029091591,-0.5527629,-0.07432404,1.1396236,0.030086206,0.021326363,0.2418596,0.31436965,0.2636736,0.334772,0.32285166,0.12699905,0.31462368,0.13837649,211.8822,211.2693,212.40933,212.15906,0,0,0,0,0,0,0,0,0,0,0,0,-0.80363953,-0.67181355,-0.3564557,-0.29842332,0.8660656,0.68371207,0.47544584,0.32894456,-0.0029983371,0.005896207,0.0024562478,0.010909319,164,6,231,2,0,-784.49567,351.91254,4342.2983,67.011,752444.06,782.8157,127.58484,128.35234,129.35556,129.35556,-7.4028087,1,139.56815,0,0,7.0490665,7.0490637,0,7,255,0,0,0,1,-127,82,0
True,23515968,15999.99,0,9344.613,-21.280064,0.52230185,5.7373233,3.4038162,-0.19192362,67.43843,0.06379711,-0.49133074,-0.014297061,1.0731518,0.029397096,0.0111469,0.21208726,0.3315798,0.28780997,0.4038164,0.7218137,0.21799643,0.4226795,0.21595655,219.31557,213.73125,215.84404,215.00223,0,0,0,0,0,0,0,0,0,0,0,0,-1.2194157,-1.013047,-0.63536036,-0.53733295,1.4170355,1.0362368,0.76311255,0.57910615,-0.006650403,0.008007314,0.0053258836,0.019118194,164,6,231,2,0,-777.35925,351.66556,4345.5566,67.52454,639657.5,653.9742,128.06114,128.9071,129.58789,129.58789,-14.7,1,145.30107,0,0,7.1657076,7.1657057,0,7,255,0,0,0,1,-127,67,0
True,23516078,15999.99,0,9341.096,-26.5022,1.865592,6.3567476,4.598583,-0.16130948,67.75233,-0.06398981,-0.58337045,-0.09825801,1.0161335,0.027760353,0.0037210623,0.27196673,0.4171207,0.23846897,0.38665375,0.53339314,0.17459714,0.36619693,0.1543936,217.32245,214.32593,215.9413,215.41095,0,0,0,0,0,0,0,0,0,0,0,0,-1.3476503,-1.0593263,-0.78106076,-0.6137237,1.4493687,1.0736184,0.86264485,0.63284606,0.00069479644,0.01850031,-0.00054039434,0.01707768,164,6,231,2,0,-771.2368,351.44708,4348.6323,67.9084,721145.9,737.3715,129.25218,129.98895,129.86537,129.86537,-14.7,1,150.4179,0,0,7.266932,7.2669306,0,7,255,0,0,0,1,-127,58,0
True,23516187,15999.99,0,9414.638,-25.902233,0.6726954,6.5593905,5.4029293,-0.11938465,68.11546,-0.051980942,-0.4322891,-0.06377535,0.95821744,0.026619077,-0.0043628807,0.2457542,0.41261753,0.23954913,0.40255156,0.3862137,0.12681481,0.43869495,0.2153435,217.49995,215.18452,218.5644,217.46138,0,0,0,0,0,0,0,0,0,0,0,0,-0.7503709,-0.6089366,-0.90164894,-0.7112422,0.8439298,0.62200147,1.0027083,0.74312735,-0.0025206022,0.01794792,-0.0004119724,0.018967811,164,6,231,2,0,-764.108,351.20905,4352.624,68.329506,732926.75,743.3631,130.32646,131.16566,130.28314,130.28314,-14.7,1,156.4009,0,0,7.386969,7.3869677,0,7,255,0,0,0,1,0,53,0
True,23516296,15999.99,0,9478.147,-26.291653,-0.06670594,6.6625185,4.641119,-0.12201285,68.643295,-0.029035097,-0.21873322,-0.038654774,0.923456,0.0252362,-0.010610267,0.23054034,0.39048976,0.27800718,0.4520525,0.36700746,0.12931271,0.42041364,0.23273955,219.22002,216.3009,220.22884,218.78291,0,0,0,0,0,0,0,0,0,0,0,0,-0.6732365,-0.55769074,-0.7632901,-0.6050714,0.76677364,0.57248646,0.87141234,0.6482894,-0.004386831,0.0152335875,0.004160404,0.024853103,164,6,231,2,0,-757.4007,350.99014,4356.812,68.800125,734707.8,740.11255,130.51807,131.55649,130.67805,130.67805,0,1,162.4098,0,0,7.5023603,7.502359,0,7,255,0,0,0,1,0,48,0
True,23516406,15999.99,0,9496.934,-27.683725,1.861317,6.6752815,2.27388,-0.20493338,69.322464,0.016527371,0.028478205,0.00895805,0.91239274,0.019642383,-0.015827436,0.2430139,0.43673643,0.25927567,0.464571,0.4375397,0.11789244,0.21675473,0.15243033,222.74411,217.31593,219.37569,218.51808,0,0,0,0,0,0,0,0,0,0,0,0,-0.49134356,-0.41292363,-0.33356693,-0.27313828,0.6579206,0.4294235,0.39780587,0.3127931,-0.0028567426,0.0209065,0.0019333698,0.02634146,164,6,231,2,0,-751.1855,350.80164,4361.108,69.36005,752501.25,756.80896,130.64032,131.87643,130.93784,130.93784,0,1,167.93213,0,0,7.6117597,7.6117573,0,7,255,0,0,0,1,-81,41,0
True,23516515,15999.99,0,9511.379,-20.811037,3.4154074,6.671647,0.74723434,-0.20205846,69.98928,-0.08269564,-0.18716635,0.014143627,0.9057164,0.015168269,-0.013252103,0.26588655,0.43319446,0.2903233,0.46673593,0.14485504,0.07835548,0.15185183,0.09573573,219.37039,219.1303,219.90411,219.86118,0,0,0,0,0,0,0,0,0,0,0,0,-0.42535824,-0.371968,-0.13341273,-0.106058866,0.44934687,0.38013124,0.20213346,0.14287691,-5.1040202E-05,0.02047202,0.0056246966,0.026598856,164,6,231,2,0,-745.2282,350.64072,4365.5454,69.99356,752338.25,755.44055,130.76749,132.13614,131.05276,131.05276,0,1,173.37262,0,0,7.718376,7.7183733,0,7,255,0,0,0,1,-24,32,0
True,23516625,15999.99,0,9621.21,-10.485071,0.911732,6.184559,0.6425972,-0.21895948,70.613365,0.0018857829,-0.039700173,0.02276518,0.89337665,0.01287813,-0.009855113,0.2625663,0.36823514,0.281822,0.4079477,0.13276243,0.11056464,0.1913518,0.15787444,221.52396,221.33243,222.75551,222.47061,0,0,0,0,0,0,0,0,0,0,0,0,-0.0870608,-0.08314245,-0.10098713,-0.088276565,0.15876223,0.1383373,0.21636523,0.18087865,-0.00045832247,0.012503695,0.004613962,0.019609373,164,6,231,2,0,-739.2818,350.52045,4370.186,70.61663,752469.94,747.0089,130.77261,132.18503,131.14967,131.14967,0,1,178.98067,0,0,7.8256674,7.8256645,0,7,255,0,0,0,1,0,21,0
True,23516734,15999.99,0,9675.616,-5.1027136,1.0590146,6.178855,0.21820831,-0.27385926,71.27818,-0.06969863,0.004729924,0.021995123,0.8925775,0.010988364,-0.007842783,0.2800121,0.33093086,0.2893155,0.38245216,0.0838148,0.07900772,0.12300278,0.11899555,222.88193,222.79498,223.82104,223.75179,0,0,0,0,0,0,0,0,0,0,0,0,-0.035444748,-0.035246655,-0.028996645,-0.024622325,0.09100138,0.08651327,0.1263744,0.12151625,0.0016816929,0.007927712,0.00550488,0.016578142,164,6,231,2,0,-733.29224,350.39706,4374.9536,71.27904,752313.5,742.5784,130.75598,132.19191,131.22144,131.22144,0,1,184.55289,0,0,7.9335723,7.9335685,0,7,255,0,0,0,1,-1,3,0
True,23516859,15999.99,0,9799.46,-2.9898553,2.03377,5.6657505,0.01322937,-0.23277271,71.98049,0.030690916,-0.079166174,-0.006074341,0.89110804,0.0054464387,-0.006332723,0.33544463,0.35817873,0.40730563,0.4488728,0.1365481,0.1352387,0.16891351,0.13999765,225.70245,226.11813,226.61801,226.44595,0,0,0,0,0,0,0,0,0,0,0,0,-0.22548746,-0.22405663,-0.021664068,-0.0022005523,0.2636095,0.26170763,0.17029712,0.14001495,0.008481398,0.01127011,0.019533034,0.02447506,164,6,231,2,0,-726.31714,350.3058,4380.561,71.980865,752517.1,733.52625,130.75734,132.21144,131.33714,131.33714,-0.93043804,1,191.0702,0,0,8.058493,8.058489,0,7,255,0,0,0,1,-115,235,0
True,23516968,15999.99,0,9851.894,-10.717781,3.1414967,5.4135656,0.39443588,-0.2518561,72.53703,-0.03738212,-0.3142912,-0.04522387,0.86918443,0.0010285942,-0.012137709,0.39239365,0.41779897,0.38554066,0.41042697,0.1584743,0.081087545,0.13873264,0.08240524,227.28821,227.49568,227.39012,227.80293,0,0,0,0,0,0,0,0,0,0,0,0,-0.05792261,-0.050963413,-0.09762473,-0.08014211,0.16872798,0.09577296,0.16963883,0.11494947,0.01546713,0.01858351,0.016945343,0.019904137,164,6,231,2,0,-720.44806,350.24973,4385.379,72.53854,752423,729.43353,130.87628,132.3837,131.4103,131.4103,-3.3489656,1,196.54457,0,0,8.163562,8.163559,0,7,255,0,0,0,1,0,214,0
True,23517062,15999.99,0,9937.681,-9.596991,0.60449594,5.7763276,0.94779587,-0.22968587,73.102745,-0.01772808,-0.08921641,-0.051762577,0.8487642,0.0008039652,-0.016569596,0.34909827,0.38422394,0.38424572,0.43160963,0.1398326,0.08743651,0.15079203,0.11652256,229.35722,228.83487,229.78593,229.66928,0,0,0,0,0,0,0,0,0,0,0,0,-0.11603464,-0.10518566,-0.14317508,-0.12038078,0.18170634,0.13678145,0.2079359,0.16753818,0.01015624,0.014464982,0.016791381,0.022422597,164,6,231,2,0,-714.51514,350.21628,4390.4004,73.10925,752380.9,723.09247,130.88074,132.41368,131.51158,131.51158,-6.134365,1,202.19081,0,0,8.270289,8.270287,0,7,255,0,0,0,1,0,192,0
True,23517187,15999.99,0,10005.33,-7.471626,2.1393623,5.483298,0.2767105,-0.26929402,73.771286,-0.0779274,-0.047124375,0.005807288,0.8455151,-0.002495821,-0.017222788,0.29251617,0.36671525,0.31813064,0.38782987,0.092913404,0.07462876,0.11001404,0.09480273,230.7264,230.59924,231.30627,231.26874,0,0,0,0,0,0,0,0,0,0,0,0,-0.17689444,-0.16711338,-0.042679716,-0.035541285,0.19981128,0.18302004,0.118002735,0.10124594,0.0032155216,0.012317255,0.008930791,0.017217513,164,6,231,2,0,-707.7076,350.18436,4396.3203,73.77229,752355.9,718.18616,130.89952,132.47302,131.61172,131.61172,-9.986412,1,208.69388,0,0,8.393126,8.393123,0,7,255,0,0,0,1,-93,168,0
True,23517296,15999.99,0,10098.347,-11.54203,3.340956,5.006568,0.41999817,-0.23621964,74.259705,-0.007263152,-0.30079454,-0.041264728,0.8270235,-0.007900446,-0.02027797,0.26768243,0.33777976,0.32067743,0.36527553,0.20060433,0.09777055,0.15998574,0.09288938,233.29178,232.94603,233.2057,233.33263,0,0,0,0,0,0,0,0,0,0,0,0,-0.5723724,-0.5056034,-0.099821314,-0.08536937,0.60650826,0.51496977,0.18857287,0.12616009,0.00016925484,0.008767843,0.009233579,0.014535967,164,6,231,2,0,-701.90564,350.20093,4401.5054,74.26126,752414.06,711.6296,131.00784,132.6489,131.7105,131.7105,-13.87037,1,214.3507,0,0,8.498234,8.498231,0,7,255,0,0,0,1,-127,148,0
True,23517406,15999.99,0,10181.781,-15.723147,0.16496998,5.0261827,1.9750137,-0.25788587,74.70762,-0.027916163,-0.4489345,-0.040852048,0.7832798,-0.00810784,-0.023773396,0.20318238,0.2932676,0.2348978,0.32649764,0.19872011,0.068220384,0.2221479,0.11254098,234.62825,234.4107,235.37578,235.58556,0,0,0,0,0,0,0,0,0,0,0,0,-0.18740292,-0.15316023,-0.33222896,-0.28512743,0.27314746,0.16766657,0.39965707,0.30653405,-0.0077427328,0.0033076964,-0.0009649806,0.009925559,164,6,231,2,0,-696.1153,350.23138,4406.8877,74.73417,752203,705.47107,131.22707,132.9442,131.8084,131.8084,-14.7,1,220.11069,0,0,8.604367,8.604364,0,7,255,0,0,0,1,0,130,0
True,23517515,15999.99,0,10366.666,-16.702368,-1.843765,4.390862,2.5836296,-0.19318539,75.03121,0.13659717,-0.21115445,0.07490268,0.7516809,-0.006070941,-0.016652001,0.17132865,0.313264,0.2374191,0.46768352,0.3494531,0.34179068,0.38113865,0.25703654,239.00327,239.97914,239.95961,238.7822,0,0,0,0,0,0,0,0,0,0,0,0,-0.34469157,-0.3451401,-0.42572266,-0.3679542,0.49084595,0.48573917,0.57140744,0.44884083,-0.011650117,0.005760584,-0.00066521764,0.026711516,164,6,231,2,0,-690.95703,350.26968,4411.939,75.07593,748344.75,690.1027,131.2634,133.0544,131.97377,131.97377,-6.1501083,1,225.30452,0,0,8.700729,8.700727,0,7,255,0,0,0,1,0,129,0
True,23517625,15999.99,0,10333.11,-15.497229,-4.518873,5.502986,2.8312492,-0.4225898,75.504944,-0.04063996,-0.255073,-0.0931045,0.7282223,0.00012814533,-0.020635221,0.10790946,0.22701538,0.12667608,0.23567113,0.32545552,0.11003577,0.24904941,0.15065448,239.8934,237.14041,238.88614,238.52136,0,0,0,0,0,0,0,0,0,0,0,0,-0.6678139,-0.5472379,-0.42704925,-0.35113212,0.7428975,0.558191,0.49436492,0.3820871,-0.019429518,-0.0048192255,-0.013831742,-0.0008730367,164,6,231,2,0,-684.8835,350.23663,4418.1016,75.55918,752116.6,694.9525,131.40587,133.24176,132.13762,132.13762,-7.2114124,1,231.62381,0,0,8.815663,8.81566,0,7,255,0,0,0,1,-127,129,0
True,23517734,15999.99,0,10386.995,-20.78309,-0.9278411,4.7455654,2.4827194,-0.38177127,75.94022,0.025866894,-0.26080003,-0.023730684,0.6993095,-0.00044549536,-0.026657825,0.17537957,0.3228068,0.22664249,0.39687455,0.29527816,0.09776393,0.2618947,0.14757542,240.48041,238.28676,240.45714,239.84798,0,0,0,0,0,0,0,0,0,0,0,0,-0.3652402,-0.3091338,-0.3832692,-0.31975028,0.46966964,0.32422444,0.46420267,0.35216296,-0.011153204,0.0069311634,-0.0019464754,0.018292852,164,6,231,2,0,-679.03143,350.18903,4424.412,75.98175,752252.4,691.46234,131.6783,133.70822,132.33806,132.33806,-6.807599,1,237.90903,0,0,8.92925,8.929246,0,7,255,0,0,0,1,0,129,0
True,23517843,15999.99,0,10390.5205,-19.686749,1.7018719,5.2516904,1.3222198,-0.29148918,76.47992,0.013670959,0.0042361706,0.025098301,0.6855517,-0.0025389583,-0.028018175,0.27797973,0.41187364,0.3081653,0.46023718,0.14878888,0.08581802,0.13697591,0.107063085,240.26225,239.11694,240.31412,239.91077,0,0,0,0,0,0,0,0,0,0,0,0,-0.1870453,-0.16781671,-0.17256872,-0.14247811,0.23900644,0.18848656,0.22032332,0.17822042,0.001432389,0.017856669,0.007745981,0.0258262,164,6,231,2,0,-673.4865,350.15787,4430.7866,76.4919,752412.7,691.6316,131.77335,133.90982,132.49606,132.49606,0,1,244.09627,0,0,9.040053,9.040051,0,7,255,0,0,0,1,0,129,0
True,23517953,15999.99,0,10458.913,-7.948986,0.21078633,4.6463823,0.2492714,-0.26148748,77.00617,0.032870926,0.04748299,0.046215802,0.68941957,-0.0020056646,-0.024215,0.26790395,0.36472762,0.31226182,0.41165945,0.117645286,0.092256844,0.12497677,0.13271391,241.37534,240.71144,241.84251,241.78552,0,0,0,0,0,0,0,0,0,0,0,0,-0.045775663,-0.042106617,-0.027421916,-0.019437427,0.12623718,0.1014115,0.12794982,0.13412978,0.00019643083,0.012073439,0.008233029,0.020050671,164,6,231,2,0,-668.0132,350.1456,4437.335,77.00701,752424.7,687.0951,131.80388,133.96338,132.58386,132.58386,0,1,250.36078,0,0,9.151244,9.151241,0,7,255,0,0,0,1,0,129,0
True,23518062,15999.99,0,10514.588,-1.3471208,0.7535746,4.6922207,-0.057746887,-0.2910574,77.51795,-0.01017966,0.017018406,0.0379916,0.6929432,-0.0026326154,-0.019006915,0.3079433,0.3573999,0.3309736,0.38509586,0.09073332,0.10103815,0.10342264,0.10532235,242.47968,242.6037,243.00378,242.96596,0,0,0,0,0,0,0,0,0,0,0,0,0.001956668,0.0036346328,0.0063847685,0.011911421,0.09075441,0.10110351,0.10361953,0.10599378,0.005107913,0.0111745745,0.010457721,0.016892456,164,6,231,2,0,-662.6241,350.12955,4443.838,77.518524,752403.9,683.4581,131.82874,133.98293,132.66174,132.66174,0,1,256.5463,0,0,9.260549,9.260546,0,7,255,0,0,0,1,0,129,0
True,23518171,15999.99,0,10585.52,0.34734797,-0.21930264,4.579051,-0.044487,-0.27802068,78.01609,-0.023698932,0.0018426799,0.030456297,0.6937322,-0.0018617838,-0.01603554,0.28872564,0.31805027,0.3242343,0.34948897,0.08513274,0.079524614,0.11801658,0.119981505,243.90598,243.79782,244.79062,244.81015,0,0,0,0,0,0,0,0,0,0,0,0,0.0038278066,0.0045187417,0.0033452841,0.0072813598,0.08521875,0.07965289,0.11806398,0.12020225,0.0027505495,0.006347697,0.009656467,0.012659062,164,6,231,2,0,-657.16235,350.1169,4450.42,78.016594,752331.44,678.75854,131.84785,133.9901,132.74707,132.74707,0,1,262.81036,0,0,9.370525,9.370522,0,7,255,0,0,0,1,0,129,0
True,23518296,15999.99,0,10651.81,0.13335419,2.9355838,4.755709,-0.00025558472,-0.30864328,78.50902,-0.017246528,0.00046527272,-0.056780614,0.69377047,-0.006819204,-0.014986286,0.36481705,0.27523047,0.37328932,0.38562772,0.08586771,0.15452282,0.09741149,0.09211772,245.44675,246.76006,246.00874,245.8745,0,0,0,0,0,0,0,0,0,0.120000005,0,0,0.0011645769,0.003550759,-0.0014331288,0.0059396396,0.08587561,0.1545636,0.09742203,0.09230901,0.01208441,0.0010951459,0.015488744,0.016955692,164,6,231,2,0,-651.5536,350.1224,4457.1685,78.50962,752596.1,674.9225,131.89836,134.02994,132.85204,132.85204,0,1,269.4552,0,0,9.482627,9.482622,0,7,255,0,0,0,1,0,129,0
True,23518406,15999.99,0,10767.441,0.3935548,-0.20107995,3.8905687,-0.03734207,-0.23894477,78.969734,0.054031342,0.013920327,-0.054933246,0.69462574,-0.006409404,-0.020717926,0.3736493,0.1353999,0.41063184,0.21073875,0.126672,0.06422049,0.1545169,0.2604888,247.54729,245.69211,248.54448,251.00967,0,0,0,0,0,0,0,0,0,0.120000005,0,0.120000005,0.0028468817,0.007538649,0.0005158701,0.012982824,0.12670399,0.06466144,0.15451777,0.26081213,0.013167828,-0.016057365,0.019928496,-0.0038373135,164,6,231,2,0,-645.8312,350.15927,4464.0474,78.9701,752283.94,667.7249,131.93349,134.08192,132.94917,132.94917,0,1,275.88394,0,0,9.596266,9.59626,0,7,255,0,0,0,1,0,129,0
True,23518515,15999.99,0,9741.376,0.43727207,-5.948472,-12.923424,-0.13779831,-0.08152336,77.47704,0.13549826,-0.0018870276,0.06859335,0.69663364,0.005486073,-0.021186857,0.18472861,0.05211126,0.2200146,0.07541096,-0.35123974,-1.6204098,-0.8629105,-0.11922164,232.12096,203.17874,222.57631,235.28891,0,0,0,0,0,0,0,0,0,0.120000005,0,0.120000005,0.016853735,0.01627755,0.017262276,0.028429827,0.35164386,1.6204916,0.8630831,0.122564495,-0.0100063905,-0.026274081,-0.0027344823,-0.019926785,164,6,231,2,0,-640.1178,350.14047,4470.908,77.47721,754669.9,741.09357,132.49142,134.28093,132.98566,132.98566,-10.842177,1,282.42093,0,0,9.709974,9.709968,0,7,255,253,0,0,1,0,129,130
True,23518625,15999.99,0,10290.528,0.92915773,5.985505,-10.042348,0.055786133,0.5375581,75.9282,-0.25108635,-0.008196883,-0.06415472,0.69569206,0.0036745684,-0.03381272,0.7301097,0.45776412,0.30501205,0.16274193,0.04730312,0.048908897,0.08721111,0.070786916,236.91219,236.91006,237.79454,238.31934,0,0,0,0,0,0,0,0,0,0.120000005,0,0.120000005,0.0020776768,-0.0054319133,-0.0010889574,0.0016759371,0.047348727,0.04920961,0.08721791,0.07080676,0.056893535,0.023485892,0.007371083,-0.00954378,164,6,231,2,0,-634.72174,350.10437,4477.37,75.93012,752254.9,698.11475,132.6663,134.76735,133.07098,133.07098,0,1,288.67673,0,0,9.82035,9.820343,0,7,255,0,0,0,1,0,129,0
True,23518734,15999.99,0,10358.374,4.295462,10.378577,2.0110931,-0.18635559,0.017025948,76.37697,-0.0990008,0.20381907,-0.0954341,0.70540243,-0.020046096,-0.044495847,0.69225955,0.51242393,0.67238533,0.51938176,0.090926036,0.18031922,0.08680825,0.0743296,239.27309,240.21927,239.0615,238.8144,0,0,0,0,0,0,0,0,0,0.120000005,0,0.120000005,0.31141102,0.36663628,-0.0010469921,0.06026551,0.3244139,0.40857947,0.08681456,0.09569128,0.052250594,0.03019081,0.051049046,0.03285805,164,6,231,2,0,-629.4491,350.2168,4483.6475,76.3772,617933.5,569.6258,132.78659,134.91107,133.26556,133.26556,0,1,294.6766,0,0,9.927989,9.927982,0,7,175,0,0,0,1,127,129,0
True,23518843,15999.99,0,10303.985,13.865842,4.2155433,0.8342266,-1.2576294,-0.14512253,76.44313,-0.022921525,0.44258818,0.21454301,0.7409775,-0.025681147,-0.0352323,0.44143045,0.5496227,0.50738215,0.40010053,0.027131109,0.081058346,0.04688942,0.054886848,238.38486,237.30669,239.08882,236.97188,0,0,0,0,0,0,0,0,0,0,0,0,0.5391774,0.6216285,0.17826977,0.2036371,0.5398596,0.62689114,0.1843332,0.21090432,0.021482296,0.03475385,0.03143139,0.0186764,164,6,231,2,0,-624.0403,350.4058,4489.9,76.453606,152735.5,141.4563,133.02974,135.04865,133.38373,133.38373,0,1,300.73117,0,0,10.036151,10.036143,0,7,67,0,0,0,1,62,129,0
True,23518953,15999.99,0,10357.713,15.2868395,-2.4266326,0.06019306,-2.7037582,-0.030016184,76.2831,0.07600402,0.29123783,0.07641354,0.7825584,-0.019615581,-0.02092651,0.33662444,0.3177034,0.39092204,0.37278333,0.045902573,0.1506168,0.09758665,0.19507827,238.24133,238.70709,239.4376,239.76707,0,0,0,0,0,0,0,0,0,0,0,0,0.2778879,0.32192725,0.38738063,0.44443473,0.28165358,0.35541886,0.3994833,0.48536354,0.008626122,0.006305147,0.017585143,0.015428588,164,6,231,2,0,-618.5712,350.59332,4495.9287,76.331,368884.28,340.16623,133.1755,135.07864,133.565,133.565,0,1,306.8651,0,0,10.142761,10.142753,0,7,179,0,0,0,1,0,134,0
True,23519062,15999.99,0,10394.702,22.800007,1.9991137,3.2021503,-1.9515648,-0.110241294,76.62254,-0.049942046,0.13722926,0.05901777,0.8095889,-0.02396396,-0.010881726,0.42143118,0.32181308,0.41612193,0.30865967,0.060626566,0.1342498,0.08492418,0.13960165,239.3127,240.022,240.14775,240.39886,0,0,0,0,0,0,0,0,0,0,0,0,0.36001116,0.42330825,0.22856064,0.27559718,0.3650803,0.44408658,0.24382798,0.30893758,0.019029059,0.006809268,0.020581223,0.007804759,164,6,231,2,0,-612.1441,350.78412,4502.6177,76.64747,586775.2,539.0577,133.41786,135.1587,133.89279,133.89279,0,1,313.6605,0,0,10.264102,10.2640915,0,7,206,0,0,0,1,127,137,0
True,23519171,15999.99,0,10333.153,19.980988,1.0184535,1.4220695,-1.5845222,-0.10348272,76.683716,-0.00053567643,0.30675524,0.011536612,0.8317102,-0.025475863,-0.009103844,0.43561503,0.2937781,0.44075042,0.3017465,0.028428642,0.08398102,0.020771943,0.077378005,238.54256,238.1342,238.96002,238.6437,0,0,0,0,0,0,0,0,0,0,0,0,0.65457237,0.7681897,0.21528511,0.264299,0.6551894,0.77276665,0.21628489,0.275393,0.02076894,0.0033703148,0.023509368,0.006982837,164,6,231,2,0,-606.4038,350.9769,4508.215,76.70015,144818.89,133.81094,133.72002,135.30594,134.09685,134.09685,-0.12004566,1,319.70575,0,0,10.368644,10.368633,0,7,75,0,0,0,1,127,138,0
True,23519281,15999.99,0,10332.486,21.072762,0.5860533,-0.12350941,-2.398899,-0.030227423,76.50302,-0.036040656,0.34313828,-0.0022601308,0.87169075,-0.024907643,-0.008574612,0.4592196,0.2822272,0.43786925,0.27584732,0.023825312,0.059773833,0.034666784,0.11012523,238.6518,237.6916,238.9633,238.77327,0,0,0,0,0,0,0,0,0,0,0,0,0.21468958,0.25377196,0.30781764,0.3764171,0.21600755,0.26071656,0.3097636,0.3921956,0.02366443,0.0019534081,0.02316682,0.0039036125,164,6,231,2,0,-600.4299,351.17508,4513.7236,76.54063,298739.9,276.10266,134.07646,135.4954,134.30452,134.30452,-1.3998051,1,325.65967,0,0,10.474761,10.474749,0,7,129,0,0,0,1,0,136,0
True,23519390,15999.99,0,10454.113,19.967941,0.64961386,2.7266493,-1.8044243,-0.06545806,76.7285,0.014906573,0.08484536,-0.028899528,0.8943943,-0.027299386,-0.011002729,0.44491696,0.27852315,0.45687738,0.28215602,0.09264485,0.16041711,0.13854235,0.20576726,240.26967,241.07973,241.53723,242.14801,0,0,0,0,0,0,0,0,0,0,0,0,0.21173927,0.23306644,0.22030245,0.26179025,0.23112029,0.28293747,0.2602444,0.33297792,0.021909975,0.0014990456,0.025426745,0.0046536736,164,6,231,2,0,-594.0717,351.40002,4519.226,76.74974,752507.9,687.50305,134.2399,135.53412,134.59302,134.59302,-4.1553545,1,332.02258,0,0,10.584564,10.584553,0,7,255,0,0,0,1,0,132,0
True,23519515,15999.99,0,10474.61,13.003151,2.690796,4.2512374,-0.5574455,-0.04140985,77.25866,-0.097439796,-0.03369066,0.07358733,0.89637506,-0.030937528,-0.015839646,0.47451863,0.16389488,0.46687782,0.3196592,0.061738696,0.04383719,0.091549166,0.13616934,241.07967,240.94398,241.953,242.82635,0,0,0,0,0,0,0,0,0,0.120000005,0,0.120000005,0.069659695,0.04511482,0.04534083,0.06779531,0.09308136,0.06290506,0.10216183,0.15211277,0.025541104,-0.012561988,0.026615724,0.009112522,164,6,231,2,0,-587.43585,351.63586,4524.697,77.26068,752226.2,685.8491,134.35649,135.5839,134.76273,134.76273,0,1,338.32382,0,0,10.696282,10.696272,0,7,255,0,0,0,1,0,129,0
True,23519625,15999.99,0,10609.59,3.956968,2.7905712,4.322576,-0.16517639,-0.37774062,77.678955,-0.06455641,0.013345752,-0.17517316,0.8957986,-0.038316693,-0.026584884,0.44079724,0.1426181,0.49431533,0.18701065,0.0791069,0.20644937,0.11100891,0.29934153,242.85655,245.6062,244.57312,246.3302,0,0,0,0,0,0,0,0,0,0.120000005,0,0.120000005,0.022673285,0.03257199,0.007890738,0.035360202,0.082292035,0.20900306,0.111289,0.30142277,0.021404624,-0.015171936,0.029877841,-0.006658409,164,6,231,2,0,-580.6229,351.9207,4530.1943,77.680046,753675.56,679.4312,134.4062,135.74533,134.89177,134.89177,0,1,344.738,0,0,10.809334,10.809323,0,7,255,0,0,0,1,0,129,0
True,23519718,15999.99,0,10594.199,2.1843562,2.1629722,4.4239597,-0.22995758,-0.5259807,78.1119,-0.067371994,0.039215118,-0.09281133,0.8992996,-0.043112595,-0.03899783,0.42246398,0.1527589,0.49010754,0.19382112,0.119463325,0.056748703,0.10353193,0.1050722,244.81557,243.43193,244.71568,245.20872,0,0,0,0,0,0,0,0,0,0.120000005,0,0.120000005,0.024846219,0.024601093,0.020223154,0.029719645,0.12201975,0.06185167,0.10548856,0.109194435,0.019155748,-0.013928,0.029377565,-0.0058486946,164,6,231,2,0,-574.7942,352.17758,4534.871,78.114,751357.2,676.67163,134.43106,135.76785,134.98468,134.98468,0,1,350.44824,0,0,10.905331,10.905319,0,7,255,0,0,0,1,0,129,0
True,23519828,15999.99,0,10676.835,2.6452785,2.5628264,3.9898508,-0.29431915,-0.34770465,78.551254,0.0011939676,0.040827222,-0.005827237,0.9039856,-0.04500711,-0.04858713,0.41169226,0.32061887,0.46400487,0.25375414,0.1461552,0.16110261,0.13425961,0.06621507,246.70038,247.69936,245.85313,246.6251,0,0,0,0,0,0,0,0,0,0.120000005,0,0.120000005,0.030404372,0.03454935,0.027332844,0.033061568,0.14928417,0.16476561,0.13701361,0.07401015,0.017834421,0.0066627786,0.026274152,0.0012768991,164,6,231,2,0,-567.89087,352.52158,4540.371,78.55258,752226.6,672.8259,134.46376,135.86172,135.10657,135.10657,0,1,356.91663,0,0,11.018101,11.01809,0,7,255,0,0,0,1,0,130,0
True,23519937,15999.99,0,10706.072,3.714752,5.6558285,4.2267,-0.15884781,-0.2517028,79.04965,-0.07218214,-0.005523621,0.08047513,0.9073332,-0.05065261,-0.044567533,0.43831608,0.5669711,0.45295858,0.59023446,0.068353176,0.0693238,0.08340265,0.088096626,246.83481,246.86514,247.4277,247.5098,0,0,0,0,0,0,0,0,0,0,0,0,0.016954,0.018487053,0.004883598,0.048161253,0.07042439,0.0717465,0.083545506,0.100401804,0.021100268,0.036881916,0.02496083,0.041281916,164,6,231,2,0,-560.9525,352.9026,4545.849,79.050224,752365.5,671.19226,134.50378,135.92598,135.23303,135.23303,0,1,363.6123,0,0,11.130388,11.130379,0,7,255,0,0,0,1,0,137,0
True,23520046,15999.99,0,10786.085,2.0117779,2.753729,4.2233295,0.11521149,-0.17210793,79.51947,-0.02777272,0.029182447,0.055774342,0.9061021,-0.053435534,-0.035383455,0.40807217,0.47310317,0.4364681,0.51278573,0.07573947,0.09907788,0.10640361,0.11427754,248.48125,248.78293,249.3498,249.35452,0,0,0,0,0,0,0,0,0,0,0,0,0.082523674,0.08884336,-0.02080951,0.008836101,0.112011716,0.13307731,0.10841939,0.114618644,0.01739036,0.025367476,0.023000233,0.032073833,164,6,231,2,0,-553.9902,353.34467,4551.303,79.51974,752346.6,666.16113,134.53134,135.93904,135.3294,135.3294,0,1,370.08423,0,0,11.242071,11.242062,0,7,255,0,0,0,1,23,149,0
True,23520171,15999.99,0,10848.952,7.8877926,3.2584693,4.1249275,-0.28357697,-0.20018935,79.960434,-0.023081165,0.27213964,0.0845952,0.92220503,-0.057550363,-0.030890778,0.44129476,0.43354744,0.46328533,0.44799215,0.08318409,0.1339696,0.08098988,0.13086194,250.43475,250.17389,250.79639,250.57335,0,0,0,0,0,0,0,0,0,0,0,0,0.39937872,0.44395897,0.05043903,0.07830644,0.4079497,0.46373206,0.09541204,0.15250163,0.021465652,0.020515315,0.026188605,0.024370357,164,6,231,2,0,-547.04126,353.81122,4556.6865,79.9612,752445.4,662.44995,134.64116,136.01007,135.4306,135.4306,-4.9928694,1,376.71313,0,0,11.352444,11.352433,0,7,255,0,0,0,1,127,163,0
True,23520281,15999.99,0,10919.584,19.778378,4.8811913,3.9076242,-1.6680641,-0.15752125,80.285614,-0.027119465,0.5325479,0.07759803,0.97007895,-0.062903866,-0.021435708,0.4884857,0.41609803,0.5010283,0.42843148,0.084991895,0.24808228,0.07058433,0.17269877,251.92505,252.62138,252.31923,251.94768,0,0,0,0,0,0,0,0,0,0,0,0,0.6140413,0.7575063,0.21256247,0.27779505,0.61989546,0.7970951,0.22397535,0.32710084,0.027254395,0.01837486,0.030675963,0.02204474,164,6,231,2,0,-539.6358,354.34656,4562.173,80.3031,752489.2,658.2393,135.06763,136.27365,135.62483,135.62483,-14.7,1,383.44177,0,0,11.467636,11.467627,0,7,255,0,0,0,1,127,180,0
True,23520390,15999.99,0,10997.285,25.284163,2.6316845,3.9673595,-3.7186928,-0.092112064,80.42567,-0.016451448,0.6115287,0.05154826,1.0275192,-0.063617915,-0.020593867,0.5146056,0.36344936,0.5332176,0.37989002,0.12621722,0.31689695,0.107384235,0.27546218,253.21759,254.02815,254.00395,254.33305,0,0,0,0,0,0,0,0,0,0,0,0,0.8539088,1.0245885,0.4278104,0.5640572,0.86318654,1.0724763,0.44108173,0.627726,0.03045842,0.011916641,0.034503035,0.016273525,164,6,231,2,0,-533.2011,354.83548,4566.63,80.51165,752382.75,653.42706,135.54901,136.55788,135.92337,135.92337,-14.7,1,389.17337,0,0,11.565171,11.565162,0,7,255,0,0,0,1,127,193,0
True,23520515,15999.99,0,11016.507,35.000275,4.9616323,4.0352364,-5.810049,-0.003220439,80.404785,-0.06361033,0.5987617,0.05232434,1.109251,-0.06925078,-0.014843614,0.58483315,0.3697639,0.5912283,0.37112764,0.12295663,0.437222,0.10810981,0.26962453,252.92157,256.05908,254.26122,254.50539,0,0,0,0,0,0,0,0,0,0,0,0,1.0101879,1.3624663,0.58230174,0.7823498,1.0176433,1.430901,0.5922525,0.8275075,0.039072983,0.012691222,0.041400075,0.015231736,164,6,231,2,0,-524.4244,355.52176,4572.164,80.614426,752305.44,652.1788,136.97778,137.67355,136.62338,136.62338,-14.7,1,396.9224,0,0,11.694228,11.694218,0,7,255,0,0,0,1,127,212,0
True,23520625,15999.99,0,11071.788,31.08853,1.7173731,3.5476246,-6.7700386,0.07932949,80.328285,-0.03423576,0.47436002,-0.014313792,1.164272,-0.0695949,-0.017937707,0.59023714,0.34187973,0.5806916,0.34162533,0.16530903,0.47682655,0.19001873,0.37007684,253.24493,256.87042,255.63805,256.44925,0,0,0,0,0,0,0,0,0,0,0,0,1.1447608,1.4706776,0.73146296,0.93711835,1.1566349,1.5460453,0.7557415,1.0075454,0.039735876,0.009270769,0.040147334,0.011724129,164,6,231,2,0,-516.6701,356.15848,4576.513,80.613106,712815.6,614.7092,139.25479,139.46506,137.32492,137.32492,-14.7,1,403.44235,0,0,11.804807,11.804796,0,7,255,0,0,0,1,127,224,0
True,23520734,15999.99,0,11024.426,37.424488,5.1303473,3.8757277,-6.753887,0.11327577,80.28909,-0.033711866,0.41501436,0.04554517,1.2175896,-0.076501995,-0.017391939,0.60250115,0.35248667,0.64026785,0.3525144,0.14503564,0.5034888,0.13349883,0.27170646,252.52304,257.22632,254.21545,254.69908,0,0,0,0,0,0,0,0,0,0,0,0,1.121152,1.4854425,0.6571589,0.8770071,1.1304942,1.5684515,0.67058164,0.91813177,0.041240253,0.010571886,0.047230512,0.013018757,164,6,231,2,0,-508.65067,356.83554,4580.524,80.57274,752425.1,651.8481,142.18233,141.67526,138.15329,138.15329,0,1,410.0668,0,0,11.916379,11.9163685,0,7,255,0,0,0,1,51,229,0
True,23520843,15999.99,0,11026.776,36.650944,3.3510728,4.3155622,-5.7799797,0.0752002,80.43764,-0.034672406,0.21906942,-0.0067640026,1.2552534,-0.08064893,-0.018941704,0.5521045,0.28304017,0.58188796,0.30859676,0.091815114,0.30818403,0.1504546,0.28700745,252.5088,255.61505,254.44557,255.51532,0,0,0,0,0,0,0,0,0,0,0,0,0.57385516,0.7255134,0.5828572,0.7776122,0.5811538,0.7882557,0.6019627,0.8288872,0.035058275,0.0020531341,0.04028958,0.007797282,164,6,231,2,0,-500.57413,357.55212,4584.053,80.645065,752303.25,651.51715,143.19391,142.34708,138.90984,138.90984,0,1,416.54422,0,0,12.026112,12.0261,0,7,255,0,0,0,1,0,227,0
True,23520953,15999.99,0,10971.065,33.59779,5.4830756,4.0986767,-2.8415031,-0.05071211,80.82972,-0.04420194,-0.038085576,-0.077254914,1.2658999,-0.08946033,-0.021550735,0.56485444,0.3292033,0.64192945,0.34057203,0.07268187,0.11023508,0.09597986,0.12091111,252.55124,253.4047,253.38475,253.78378,0,0,0,0,0,0,0,0,0,0,0,0,-0.13718411,-0.13452224,0.24632232,0.3281446,0.15524863,0.17391954,0.26436114,0.34971184,0.03662227,0.007715799,0.047428064,0.011598904,164,6,231,2,0,-492.2171,358.3219,4587.208,80.87967,752307.25,654.872,143.40784,142.32814,139.4837,139.4837,0,1,423.18848,0,0,12.137154,12.137141,0,7,255,0,0,0,1,-33,222,0
True,23521062,15999.99,0,10998.657,4.485438,5.2226925,2.8381069,-1.363903,-0.21115124,81.16821,-0.08787504,-0.30497897,-0.10056095,1.2470711,-0.09769836,-0.03221894,0.55877846,0.43300703,0.5419915,0.39160222,0.091537625,0.06475664,0.11028026,0.07275834,253.16167,254.06897,253.96352,254.47928,0,0,0,0,0,0,0,0,0,0,0,0,-0.37561563,-0.3373791,0.09038921,0.113482594,0.38660863,0.3435376,0.14259014,0.13480385,0.035876952,0.020449027,0.035546184,0.017666016,164,6,231,2,0,-483.9602,359.1297,4590.122,81.17994,752299.6,653.20087,143.32718,142.26907,139.6775,139.6775,0,1,429.62997,0,0,12.2456665,12.245654,0,7,255,0,0,0,1,-127,220,0
True,23521171,15999.99,0,11050.774,-7.6189446,4.7016416,3.0706668,1.2498341,-0.18521667,81.50954,-0.074243724,-0.31166756,-0.0648195,1.200566,-0.10690898,-0.03644621,0.46026036,0.4614917,0.47343895,0.4619315,0.0752562,0.05701054,0.13764858,0.078490146,253.92752,255.05533,255.47227,255.73196,0,0,0,0,0,0,0,0,0,0,0,0,-0.08861463,-0.0832237,-0.19916838,-0.15404661,0.11625854,0.100878075,0.24210572,0.17289032,0.023792095,0.023943141,0.027395792,0.026027642,164,6,231,2,0,-474.6996,360.12265,4593.4805,81.51932,752289.9,650.10944,143.24104,142.26157,139.79356,139.79356,-0.31454277,1,436.9608,0,0,12.367379,12.367367,0,7,255,0,0,0,1,0,226,0
True,23521281,15999.99,0,11080.922,-14.390988,6.8141956,3.0788796,1.097084,-0.15727854,81.8056,-0.07873,-0.060778886,0.007378325,1.181666,-0.116835624,-0.04088621,0.40330163,0.53476435,0.4349928,0.48697,0.077910095,0.051930424,0.10199633,0.07905459,255.47194,255.28003,256.2389,256.15424,0,0,0,0,0,0,0,0,0,0,0,0,-0.11982181,-0.10605162,-0.14103195,-0.10576934,0.14292392,0.11808351,0.1740496,0.13204841,0.016805172,0.032931224,0.022824831,0.029004537,164,6,231,2,0,-466.62192,361.07147,4596.5747,81.81311,752299.2,648.35803,143.10493,142.22894,139.93042,139.93042,-5.7060976,1,443.3096,0,0,12.473928,12.473914,0,7,255,0,0,0,1,0,240,0
True,23521390,15999.99,0,11130.826,-7.1919384,3.4872727,2.7882562,0.38041306,-0.15464234,82.113075,-0.032520596,0.030403085,0.048202816,1.1813834,-0.12163131,-0.03757868,0.4205359,0.49128538,0.42434785,0.5049621,0.076351665,0.071592264,0.10738391,0.105673864,256.56345,256.36856,257.41946,257.34622,0,0,0,0,0,0,0,0,0,0,0,0,0.18215753,0.18341145,-0.04739628,-0.020394772,0.19751188,0.19688883,0.117378496,0.107623935,0.018919237,0.027597822,0.021559224,0.031143658,164,6,231,2,0,-458.43005,362.11688,4599.8633,82.1141,752309.5,645.4466,142.95879,142.14044,140.01659,140.01659,-14.7,1,449.76816,0,0,12.582377,12.582364,0,7,255,0,0,0,1,18,8,0
True,23521515,15999.99,0,10921.515,20.780731,9.443998,-6.9164543,2.207388,0.25414824,80.6677,-0.09398316,0.42576483,0.030240504,1.2116671,-0.12565665,-0.034009144,0.6576896,0.69198966,0.57704425,0.62221694,0.04808514,0.060716998,0.060599472,0.09854525,252.62982,250.89267,252.91565,252.04243,0,0,0,0,0,0,0,0,0,0,0,0,0.21321647,0.22977498,-0.20524922,-0.14142767,0.21857136,0.23766173,0.21400827,0.17237444,0.04801002,0.05221749,0.039713696,0.045084395,164,6,231,2,0,-450.21606,363.15402,4602.744,80.698296,752333.1,657.9024,142.96733,142.1905,140.29532,140.29532,-14.7,1,456.13495,0,0,12.6908655,12.690852,0,6,255,0,0,0,1,127,28,0
True,23521625,15999.99,0,10948.775,20.609938,6.082723,-0.2670369,-0.0687809,-0.0437634,80.58745,-0.07571931,0.6741458,0.15524648,1.2727969,-0.13375437,-0.03149794,0.5942914,0.59345657,0.5588529,0.5452151,0.06518283,0.15265115,0.04539689,0.15106562,253.39581,251.89636,253.4057,252.53542,0,0,0,0,0,0,0,0,0,0,0,0,0.5385069,0.6275179,0.12766229,0.20181432,0.54243755,0.6458181,0.13549368,0.25209093,0.040233195,0.040130787,0.03755088,0.03592944,164,6,231,2,0,-442.0599,364.2936,4605.435,80.58748,618592.3,539.5902,143.08435,142.29062,140.44527,140.44527,-14.7,1,462.4417,0,0,12.798232,12.798218,0,6,194,0,0,0,1,127,51,0
True,23521734,15999.99,0,10115.139,27.427351,2.5723116,-14.664341,-3.8796234,0.26629388,78.79314,-0.054197036,0.8344968,0.17221645,1.3548398,-0.13139236,-0.028454911,0.5215224,0.46093115,0.4666358,0.37717012,-0.32373905,-0.5078073,-0.24387623,-0.5342054,235.36116,226.93001,239.48497,230.38295,0,0,0,0,0,0,0,0,0,0,0,0,0.78523433,0.9490192,0.5018722,0.6612202,0.84935266,1.076339,0.55798864,0.85005146,0.031306885,0.02387438,0.02658695,0.015950143,164,6,231,2,0,-433.81592,365.4557,4607.8306,78.88904,154443.95,145.38261,143.45148,142.5033,140.66383,140.66383,-14.7,1,468.54626,0,0,12.90649,12.906474,0,6,6,255,0,0,1,127,75,129
True,23521828,15999.99,0,9483.801,35.982666,6.641234,-23.494617,-6.649543,0.71625394,75.78792,-0.033962686,0.85324883,0.07221811,1.4355893,-0.13432354,-0.02447596,0.67346936,0.46305427,0.48468405,0.34717086,-0.5222553,-0.25241894,-0.27249742,-1.2355375,220.82616,220.6935,229.86414,206.30568,0,0,0,0,0,0,0,0,0,0,0,0,1.1301627,1.4516397,0.80479,1.0423177,1.2449974,1.4734222,0.8496716,1.6164713,0.049945667,0.024134815,0.028732754,0.012383457,164,6,231,2,0,-426.94476,366.46194,4609.5376,76.08244,31864.102,31.943464,145.08963,143.69507,141.21259,141.21259,0,1,473.74152,0,0,12.998876,12.998859,0,6,110,255,0,0,1,127,94,129
True,23521937,15999.99,0,10221.01,30.917057,1.724642,-6.8794556,-10.383194,0.58174604,74.11353,-0.057958405,0.83973557,-0.0052203257,1.5301071,-0.13584055,-0.033302568,0.619403,0.39498055,0.50529104,0.27613765,0.115830444,0.3463459,0.17574754,0.42243093,234.84521,235.09373,236.62114,236.6454,0,0,0,0,0,0,0,0,0,0,0,0,1.0907811,1.310652,1.287383,1.6140089,1.0969138,1.3556416,1.2993237,1.6683743,0.043313548,0.015784457,0.031182773,0.003938131,164,6,231,2,0,-418.92383,367.6722,4611.1753,74.83959,499010.66,466.4565,147.4986,145.46771,142.83647,142.83647,0,1,479.60983,0,0,13.108897,13.108882,0,6,255,0,0,0,1,0,113,0
True,23522046,15999.99,0,10222.465,36.471397,5.575436,3.0525107,-13.398567,0.3714494,73.25287,-0.094006866,0.8205614,-0.015929319,1.6276892,-0.1450829,-0.040736172,0.5802767,0.36188275,0.33280176,0.32766894,0.17768854,0.62636346,0.14024459,0.56007606,234.0904,238.10011,234.85686,237.29544,0,0,0,0,0,0,0,0,0,0,0.120000005,0,1.311427,1.7190566,1.0794173,1.8653162,1.3234099,1.8296138,1.08849,1.9475856,0.038514063,0.011724468,0.010675076,0.010064818,164,6,231,2,0,-410.7162,368.92505,4612.4565,74.46907,632088.94,590.12573,150.32149,147.5593,147.30472,147.30472,-11.76,1,485.7402,0,0,13.221433,13.221418,0,6,255,0,0,0,1,0,127,0
True,23522171,15999.99,0,10268.135,27.153828,0.87607574,3.1631417,-17.111855,0.15533572,72.01939,0.07743324,0.72059155,0.16384616,1.7203047,-0.14720576,-0.04158061,0.29916686,0.28109625,0.38328123,0.35784352,0.3021534,0.60844475,0.5469343,0.77621573,236.44067,237.74173,236.94275,237.38261,0,0,0,0,0,0,0,0,0.120000005,0,0.120000005,0,0.6272069,0.78210694,2.399987,2.6263766,0.69619334,0.9909068,2.4615188,2.7386794,0.004031338,0.001814682,0.016676709,0.013652358,164,6,231,2,0,-402.42218,370.23563,4613.321,74.02453,504092.38,469.26144,151.76743,150.62256,149.38567,149.38567,-11.76,1,491.91898,0,0,13.335164,13.33515,0,6,255,0,0,0,1,-125,127,0
True,23522281,15999.99,0,10209.832,9.876888,-1.7482512,1.5015377,-21.017591,0.5294796,70.86444,0.04678753,0.45081556,-0.01071062,1.7868234,-0.13648425,-0.05206796,0.29249835,0.2669239,0.3244252,0.3179288,0.156799,0.17244856,0.8613552,0.9148909,232.48262,231.12613,237.79532,238.09921,0,0,0,0,0,0,0,0,0.120000005,0,0.120000005,0,-0.53772247,-0.032059554,3.156455,2.89219,0.5601173,0.17540331,3.271871,3.0334451,0.0032133348,7.620826E-05,0.009679161,0.008906793,164,6,231,2,0,-394.21783,371.51657,4613.9727,73.91745,517164.5,483.5434,151.43724,150.22408,152.00023,152.00023,-11.76,1,498.1185,0,0,13.44776,13.447744,0,6,255,0,0,0,1,-127,127,0
True,23522390,15999.99,0,10195.35,6.196342,-0.622018,0.056463838,-22.742651,0.4891994,70.105125,0.019723281,0.16338612,0.011080077,1.8206091,-0.13410501,-0.06045304,0.2841732,0.28574556,0.2668683,0.3197148,0.44065538,0.22961877,0.66372,1.0448403,237.10864,232.84816,233.40695,238.02365,0,0,0,0,0,0,0,0,0.120000005,0,0.120000005,0,-0.7934611,-0.008527233,2.5887375,3.3321795,0.90761095,0.22977705,2.6724682,3.49215,0.0021921173,0.0023849942,0.002836071,0.009119131,164,6,231,2,0,-386.1609,372.76776,4614.5464,73.70343,505504.7,473.48752,151.17506,149.79875,154.64688,154.64688,-11.76,1,504.10437,0,0,13.55848,13.558464,0,6,255,0,0,0,1,-127,127,0
True,23522500,15999.99,0,10163.419,2.8188086,-2.5235603,-0.63076967,-22.57719,-0.12694238,69.9968,-0.06779012,-0.11152321,-0.056136183,1.8232467,-0.13635987,-0.07054162,0.4081195,0.22944103,0.13811213,0.28206038,0.25783443,0.26694837,0.67258286,0.9072526,232.93086,233.69919,234.70815,236.24922,0,0,0,0,0,0,0,0,0,0,0.120000005,0,-0.9013736,-0.18737687,2.4091249,2.9337442,0.937525,0.32614648,2.5012498,3.0708244,0.017396163,-0.004521679,-0.01247208,0.0046423003,164,6,231,2,0,-378.11783,373.99768,4615.061,73.547935,515810.7,483.94977,151.08955,149.38417,157.13997,157.13997,0,1,510.23782,0,0,13.669223,13.669207,0,6,255,0,0,0,1,-127,126,0
True,23522609,15999.99,0,10115.301,2.121781,0.2203499,-1.1420007,-20.151962,-0.3145555,70.517624,-0.05304505,-0.3910616,-0.059522204,1.7944779,-0.1410065,-0.07136989,0.3645309,0.24243702,0.43306535,0.3025158,0.29260752,0.16011329,0.6699651,0.7325285,231.9882,232.05862,233.57982,235.35011,0,0,0,0,0,0,0,0,0,0,0,0,-1.1449275,-0.45866865,2.4364183,2.551483,1.1817268,0.4858119,2.5268533,2.654555,0.012049306,-0.0029275082,0.022595674,0.0070743,164,6,231,2,0,-369.98117,375.23065,4615.5376,73.34122,576600.56,544.0801,151.45444,149.07477,161.17062,161.17062,0,1,516.2616,0,0,13.781475,13.781459,0,6,255,0,0,0,1,-127,115,0
True,23522703,15999.99,0,10113.683,3.8227346,1.7585217,-1.1914625,-16.328943,-0.2168995,71.29925,0.01894841,-0.62389076,0.01922425,1.7457982,-0.14533709,-0.06728736,0.3363342,0.31235686,0.41583472,0.37689927,0.5007237,0.23199123,0.63493556,0.5207425,233.16492,232.90898,233.6704,234.048,0,0,0,0,0,0,0,0,0,0,0,0,-1.739597,-0.9708008,2.0049222,2.0815673,1.810227,0.9981353,2.1030588,2.1457155,0.008590519,0.005649306,0.02054708,0.015917946,164,6,231,2,0,-363.13837,376.28607,4615.914,73.1455,588570.44,555.8143,152.99901,149.02762,168.73676,168.73676,0,1,521.32745,0,0,13.876146,13.876131,0,6,255,0,0,0,1,-127,104,0
True,23522828,15999.99,0,10117.729,0.8388303,-2.255894,-1.4800885,-10.022118,-0.22051069,72.269066,-0.013618916,-0.8968619,-0.0060902033,1.6592269,-0.14581805,-0.05539562,0.29111004,0.31637585,0.30881986,0.28661832,0.76979923,0.31622997,0.5364893,0.39249286,233.53864,232.6931,233.29492,234.62611,0,0,0,0,0,0,0,0,0,0,0,0,-2.5362039,-1.6202294,1.2072904,1.2242532,2.6504567,1.6508012,1.3211249,1.2856308,0.003043037,0.0061423033,0.007823806,0.0051842034,164,6,231,2,0,-355.06198,377.51727,4616.323,72.961006,524866.6,495.0451,157.71567,150.38387,171.98645,171.98645,-10.038517,1,527.3788,0,0,13.988139,13.988123,0,6,255,0,0,0,1,-127,88,0
True,23522937,15999.99,0,9915.869,0.65008414,1.9091951,-0.89039135,-1.4234407,-0.17538936,72.85002,0.002373118,-1.1722274,-0.021199686,1.5409427,-0.1549413,-0.033747982,0.35669708,0.37498865,0.3521078,0.3637001,0.94342303,0.45429733,0.2148013,0.043748155,228.68648,230.08804,227.86868,229.71918,0,0,0,0,0,0,0,0,0,0,0,0,-3.4790301,-2.6178484,0.018375058,0.022640953,3.6046772,2.656975,0.21558581,0.04925966,0.01108836,0.013332121,0.012970421,0.01434866,164,6,231,2,0,-346.92975,378.75793,4616.725,72.86413,599380.2,577.1998,167.28743,156.82388,171.2682,171.2682,0,1,533.3799,0,0,14.101106,14.1010895,0,6,255,0,0,0,1,-28,70,0
True,23523046,15999.99,0,10089.534,-17.62971,-0.51472527,1.4131895,5.849249,-0.0789434,72.59574,0.055396907,-1.0923358,-0.03594147,1.4087478,-0.15639777,-0.019433074,0.27396223,0.36280772,0.3306424,0.41113466,0.61176896,0.12706506,0.5570617,0.22219782,233.82033,230.62807,233.6946,233.18439,0,0,0,0,0,0,0,0,0,0,0,0,-0.6467429,-0.5412776,-1.0415968,-0.86047095,0.8902458,0.5559918,1.1812034,0.8886969,0.0009395741,0.011837933,0.010418344,0.019988276,164,6,231,2,0,-339.00745,379.98737,4617.237,72.83104,647190.75,612.65765,172.19333,161.71353,169.93042,169.93042,0,1,539.2701,0,0,14.211427,14.21141,0,6,255,0,0,0,1,0,55,0
True,23523156,15999.99,0,10046.694,-26.767311,1.4609364,4.2972927,11.40876,0.06231016,71.901215,0.0021093525,-1.01803,-0.030265743,1.2891003,-0.15815109,-0.004341414,0.2722831,0.43998888,0.26535532,0.4416602,0.6697278,0.18292738,0.57835084,0.25043407,233.3237,229.84894,232.43895,232.08107,0,0,0,0,0,0,0,0,0,0,0,0,-1.5188109,-1.2006013,-1.7746086,-1.3919461,1.6599163,1.214457,1.8664742,1.4142952,0.0007336028,0.021305464,0.0026561916,0.023617536,164,6,231,2,0,-331.2015,381.20566,4618.0254,72.800735,511152.25,485.79907,171.38031,161.48416,170.56561,170.56561,0,1,545.07245,0,0,14.320421,14.320406,0,6,206,0,0,0,1,0,44,0
True,23523281,15999.99,0,8095.554,-22.634586,-0.89059705,-7.2718334,16.584461,0.39231506,69.42129,0.11988969,-0.8003953,0.06346567,1.1726437,-0.15168273,0.015810829,0.22922495,0.42437664,0.23372133,0.4464837,-1.1042199,-1.4096494,-1.683403,-1.419983,197.94278,190.8062,180.98518,184.9238,0,0,0,0,0,0,0,0,0,0,0,0,-0.8408816,-0.6102393,-2.7499716,-2.3183992,1.3879422,1.5360675,3.2243123,2.7186995,-0.0045481846,0.019390367,-0.001104854,0.024191014,164,6,231,2,0,-322.36957,382.62387,4619.316,71.37586,121391,142.68849,173.58801,164.68466,174.46396,174.46396,0,1,551.69025,0,0,14.445368,14.445353,0,6,0,255,0,0,1,46,39,129
True,23523390,15999.99,0,8237.114,-8.113266,-1.2296989,-17.571787,21.009048,0.51066065,65.8656,0.0010184944,-0.558641,0.116509244,1.0974786,-0.14146921,0.03898063,0.28920048,0.4385956,0.15905616,0.31404334,-0.46324864,-0.32690546,-1.184777,-1.1227897,201.68939,208.38823,180.64992,183.79858,0,0,0,0,0,0,0,0,0,0,0,0,0.11035809,0.75209695,-3.2883682,-3.141994,0.47621235,0.82007134,3.4952915,3.3365827,0.002808798,0.021134555,-0.00998199,0.008444838,164,6,231,2,0,-314.90088,383.8019,4620.54,69.13695,-86195.016,-100,172.54066,164.32681,181.64511,181.64511,0,1,557.311,0,0,14.554414,14.5544,0,6,0,255,0,0,1,127,37,129
True,23523500,15999.99,0,7682.1167,-7.4727197,-0.28266308,-18.53428,23.203379,0.5146599,62.745663,0.055675223,-0.29631388,0.0362555,1.0512196,-0.13808134,0.052108634,0.3480799,0.434704,0.28075963,0.35354924,-0.68191147,-0.39444533,-1.7872078,-1.2879012,193.49657,199.72931,162.20667,171.85695,0,0,0,0,0,0,0,0,0,0,0,0,-0.029099174,0.8196754,-3.7261,-3.6895468,0.6825321,0.90964544,4.1325455,3.9078696,0.01003132,0.02065719,0.0044876486,0.013141796,164,6,231,2,0,-307.74097,384.94,4621.7046,66.90053,-75235.875,-93.577934,171.29642,163.98488,189.94342,189.94342,0,1,562.6885,0,0,14.662513,14.662498,0,6,0,255,0,0,1,127,34,129
True,23523609,15999.99,0,7979.06,-7.3071322,-0.77385366,-17.706465,23.563805,0.49930954,60.438667,0.03125084,-0.032581784,0.03757601,1.0337584,-0.13341823,0.05985733,0.35108012,0.44205666,0.20012927,0.28631487,-0.57573044,-0.3894849,-0.2136369,-0.53229964,191.08592,188.98932,184.85202,177.4571,0,0,0,0,0,0,0,0,0,0,0,0,0.021685302,0.99121845,-3.9839504,-3.693839,0.5761387,1.0649941,3.9896743,3.7319956,0.010399349,0.021559112,-0.0050987005,0.0051481277,164,6,231,2,0,-300.76468,386.03873,4622.839,64.87167,371256.66,443.52945,170.13394,164.1756,197.15134,197.15134,0,1,567.8827,0,0,14.771106,14.77109,0,6,186,212,0,0,1,127,33,150
True,23523703,15999.99,0,8924.831,-5.27925,-5.1449494,-6.7119813,22.32247,0.3017594,60.02207,0.10157168,0.22685562,0.037315723,1.0455089,-0.12660447,0.06166017,0.24916202,0.30528477,0.21676739,0.28109646,0.327604,0.47152144,1.3435189,1.2440877,204.86293,205.23341,207.205,206.1779,0,0,0,0,0,0,0,0,0,0,0,0,0.14368938,1.2321124,-4.057109,-3.8766825,0.35773036,1.3192549,4.2737775,4.0714154,-0.0021025762,0.0047817975,-0.0031205527,0.0045276955,164,6,231,2,0,-293.93918,387.086,4623.969,64.03931,387429.5,415.095,168.92368,163.68803,203.75171,203.75171,0,1,573.00604,0,0,14.879925,14.8799095,0,6,255,0,0,0,1,127,36,0
True,23523812,15999.99,0,8890.698,-1.06442,-3.1143622,-1.6196858,20.078972,-0.14463872,60.725197,-0.040630296,0.4747027,-0.013900172,1.0832405,-0.1279381,0.06046872,0.26783794,0.28475305,0.22669335,0.22600417,0.16918421,0.492815,0.91477185,1.0109323,203.08812,204.91751,206.16635,205.918,0,0,0,0,0,0,0,0,0,0,0,0,0.45682064,1.4376491,-3.0033998,-3.0143838,0.4871431,1.5197701,3.1396205,3.1793857,0.00018833205,0.002263248,-0.0019404292,-0.002022367,164,6,231,2,0,-287.21155,388.04446,4625.0913,63.95886,457646.97,491.42996,167.83354,164.04784,209.55882,209.55882,0,1,578.04895,0,0,14.987552,14.987537,0,6,255,0,0,0,1,127,40,0
True,23523953,15999.99,0,8930.322,-1.6700943,-3.0628207,-1.1674353,14.927945,-0.15844774,61.99353,0.028136551,0.77715087,0.0011610826,1.1619834,-0.12786132,0.048533365,0.23223084,0.23715462,0.2775659,0.2768315,0.2974144,0.76912016,0.72511727,0.9425619,204.50551,205.69609,207.0114,206.70534,0,0,0,0,0,0,0,0,0,0,0,0,1.2225199,2.242329,-2.2671568,-2.3221204,1.2581773,2.3705664,2.3802931,2.5061257,-0.004179463,-0.0035754815,0.004107937,0.0040206276,164,6,231,2,0,-279.48325,389.11932,4626.414,63.76571,372848,398.61096,166.94766,166.75073,215.19748,215.19748,0,1,583.8672,0,0,15.111488,15.111474,0,6,255,0,0,0,1,127,45,0
True,23524062,15999.99,0,8807.294,-1.0572869,-0.5526676,-1.0800232,8.391742,-0.17981602,63.088295,-0.004332865,1.0472962,-0.009695994,1.2643363,-0.13166785,0.035447598,0.29628325,0.29831803,0.28366786,0.28070322,0.46205384,0.9129826,0.2949231,0.49190822,204.77998,203.28583,203.61252,202.50346,0,0,0,0,0,0,0,0,0,0,0,0,2.1211674,2.9735134,-1.1146767,-1.0895461,2.1709087,3.1105175,1.1530324,1.1954432,0.003677614,0.003927212,0.004833419,0.004480947,164,6,231,2,0,-272.58167,390.05203,4627.609,63.64422,485319.38,526.0617,168.90756,173.31451,215.41014,215.41014,0,1,589.04205,0,0,15.222421,15.222407,0,6,255,0,0,0,1,8,48,0
True,23524171,15999.99,0,8825.724,0.5033056,-3.760883,3.7129843,-1.0309601,-0.24611728,64.04734,0.029239152,1.2286997,0.02473646,1.4123524,-0.12894051,0.016470011,0.21492381,0.21820337,0.2623366,0.2765942,0.15613219,0.27159336,0.179364,0.48406333,204.41158,200.25278,204.99275,204.2745,0,0,0,0,0,0,0,0,0,0,0,0,-0.20716143,-0.21275102,0.3626922,0.3922022,0.2594092,0.34500137,0.40461966,0.6230087,-0.0063024536,-0.005900163,0.0022972897,0.0039924085,164,6,231,2,0,-264.89032,391.06412,4628.9795,64.056114,752342.2,814.10645,169.81113,175.89575,211.3627,211.3627,0,1,594.81085,0,0,15.345952,15.34594,0,6,255,0,0,0,1,-3,51,0
True,23524281,15999.99,0,7695.3057,10.510286,-2.5830455,-6.855571,-6.4780283,-0.13693742,62.960518,0.124802046,1.0043598,0.04812857,1.5165042,-0.12552905,0.0074492707,0.29252604,0.27514797,0.31377515,0.28903648,-0.6483704,-1.9688791,-0.7454165,-0.69684494,184.8068,157.87833,182.33385,180.00237,0,0,0,0,0,0,0,0,0,0,0,0,0.7616248,0.8621643,1.1502587,1.3200139,1.0002283,2.1493747,1.3706716,1.4926585,0.0032167323,0.001085028,0.00841295,0.0054717064,164,6,231,2,0,-259.08496,391.79492,4629.954,63.293053,522763.53,645.4569,168.94032,174.8636,208.63226,208.63226,-0.26638222,1,599.18823,0,0,15.438719,15.438706,0,6,0,255,0,0,1,0,51,129
True,23524390,15999.99,0,6619.28,14.262144,-2.1184971,-18.145365,-11.190407,0.26294094,59.952465,0.038598854,1.0655358,0.03186526,1.6170679,-0.116460636,-0.00038986187,0.3789063,0.2951609,0.2716404,0.19977371,-1.161333,-2.2209566,-1.8357173,-1.9463528,164.6826,142.91312,153.3779,151.35558,0,0,0,0,0,0,0,0,0,0,0,0,1.3942081,1.6240413,1.9150414,2.200488,1.8145276,2.7513921,2.65278,2.9377606,0.013812687,0.0035399385,0.0034034401,-0.005140975,164,6,231,2,0,-253.05783,392.52792,4630.8574,60.98846,132028.77,189.67738,170.2781,177.55882,209.98999,209.98999,-2.8966713,1,603.6824,0,0,15.53744,15.537428,0,6,0,255,0,0,1,0,48,129
True,23524500,15999.99,0,6096.325,14.620249,-2.1240025,-17.068771,-16.278576,0.389929,56.393856,0.03744034,1.0421164,0.02977442,1.7302798,-0.11123844,-0.010372507,0.40255782,0.3232681,0.2972362,0.21466994,-1.1042073,-2.4966946,-2.5410807,-2.319191,160.6188,135.84624,136.37445,137.16043,0,0,0,0,0,0,0,0,0,0,0,0,2.1506205,2.4928195,3.0133502,3.341418,2.4175282,3.5281205,3.9417472,4.067397,0.016713932,0.006987747,0.0064465925,-0.0033699237,164,6,231,2,0,-246.77164,393.28177,4631.6836,58.697617,-47268.812,-74.19356,177.92787,184.03828,216.01996,216.01996,-7.334493,1,608.3541,0,0,15.64438,15.644368,0,6,0,255,0,0,1,-14,42,129
True,23524609,15999.99,0,6330.139,9.516237,-1.9293927,-15.354739,-21.811378,0.3784086,52.299004,0.007731716,0.8970398,-0.05846355,1.8513596,-0.104003735,-0.023268122,0.40390736,0.29931462,0.2791758,0.19751859,-0.30883238,-0.21735778,-1.5007522,-2.3443644,169.99664,168.44743,141.14627,126.325386,0,0,0,0,0,0,0,0,0,0,0,0,-1.1073247,-0.043747894,4.07336,4.3924713,1.1495849,0.22171669,4.3410273,4.9789405,0.016879477,0.0040494613,0.0042993426,-0.0054090917,164,6,231,2,0,-239.8728,394.0703,4632.5005,56.66626,-51097.49,-77.139824,179.63535,187.35854,223.1529,223.1529,-14.03465,1,613.48315,0,0,15.765555,15.765542,0,6,0,255,0,0,1,-127,32,129
True,23524718,15999.99,0,6080.606,8.026781,-1.2446527,-14.311032,-25.069195,0.42746487,48.857773,0.063128725,0.64383453,-0.0004650224,1.9314344,-0.09858058,-0.033264603,0.41699052,0.36569333,0.29547653,0.24026306,-0.7209947,-1.0308387,-1.2673157,-1.5172181,157.33875,152.08015,135.38292,130.02737,0,0,0,0,0,0,0,0,0,0,0,0,-1.5953693,0.029282663,5.109485,5.435464,1.7507246,1.0312545,5.264307,5.643245,0.01848434,0.012191899,0.00623738,-0.00032709166,164,6,231,2,0,-234.15627,394.71796,4633.1704,54.915653,-47339.09,-74.248695,180.22258,185.4746,229.58199,229.58199,-14.7,1,617.7129,0,0,15.869523,15.86951,0,6,0,255,0,0,1,-127,23,129
True,23524843,15999.99,0,5551.136,6.306432,-4.0445385,-10.696493,-27.366241,0.2105979,46.0063,0.049091235,0.40164897,-0.002245089,1.9927943,-0.08948714,-0.03943291,0.3216136,0.28368235,0.22271524,0.19935754,-0.7662021,-1.6422713,-1.6211156,-2.0411706,149.59662,139.8999,122.35633,116.14648,0,0,0,0,0,0,0,0,0,0,0,0,-2.4063377,-0.17186682,5.678936,5.9457984,2.5253766,1.6512399,5.905788,6.286406,0.0067848004,0.0021319091,-0.0024133958,-0.0051904544,164,6,231,2,0,-227.80067,395.39584,4633.914,53.530693,-39513.85,-67.879814,183.01773,184.59726,235.06998,235.06998,-14.7,1,622.412,0,0,15.988201,15.988189,0,6,0,255,0,0,1,-127,12,129
True,23524937,15999.99,0,5498.1865,8.525345,-0.43271813,-14.003034,-27.79972,0.29131913,43.770744,0.018505652,0.15664494,-0.018536882,2.0205479,-0.08492279,-0.044233616,0.38687757,0.31497598,0.23465447,0.18266103,-0.46050644,-0.25415784,-1.3133894,-2.312757,150.3304,156.16785,118.60568,106.933655,0,0,0,0,0,0,0,0,0,0,0,0,-1.8982818,0.17135417,5.5163527,5.9833765,1.9533408,0.30652645,5.6705503,6.4147983,0.014790494,0.0059705824,-0.0009939112,-0.007175546,164,6,231,2,0,-222.55688,395.92645,4634.535,51.853516,-38615.793,-67.05966,186.98875,183.69077,240.5437,240.5437,-14.7,1,626.28784,0,0,16.088879,16.088865,0,6,0,255,0,0,1,-127,3,129
True,23525062,15999.99,0,5161.833,7.896691,-2.2947881,-11.158466,-26.94123,0.27108675,42.388794,0.0144248735,-0.110625885,0.022995759,2.0226376,-0.08179538,-0.040784705,0.33908033,0.30777147,0.24235678,0.2083666,-0.60933936,-0.47275642,-1.7184474,-2.9586008,144.12839,149.53392,110.47696,98.06636,0,0,0,0,0,0,0,0,0,0,0,0,-1.8918127,0.22875375,5.9174175,6.280408,1.9875236,0.52519226,6.16189,6.9423947,0.008927379,0.0050868355,-7.816404E-05,-0.004119344,164,6,231,2,0,-216.61244,396.52335,4635.2334,50.226612,-34104.51,-63.020927,189.91313,181.86389,246.3447,246.3447,-14.7,1,630.6728,0,0,16.20688,16.206867,0,6,0,255,0,0,1,-127,248,129
True,23525171,15999.99,0,4987.33,7.1814265,-2.0305817,-12.263835,-25.185184,0.19445002,41.749146,0.020813603,-0.3603749,0.01811792,1.9979901,-0.08082318,-0.03700815,0.32186902,0.28908104,0.19341324,0.16772713,-0.60024506,-1.0506372,-1.8572637,-2.8319056,139.47987,138.91487,106.45619,97.92498,0,0,0,0,0,0,0,0,0,0,0,0,-2.0516324,0.029165864,5.5868773,5.8495913,2.1376364,1.051042,5.8874974,6.499031,0.00681613,0.0027941465,-0.0058971867,-0.008951075,164,6,231,2,0,-211.59496,396.99994,4635.823,48.757793,-31761.92,-60.818016,192.28667,180.40608,250.7927,250.7927,-14.7,1,634.3725,0,0,16.309425,16.309414,0,6,0,255,0,0,1,-127,238,129
True,23525281,15999.99,0,4951.1714,5.360731,-1.1129838,-14.668857,-22.433212,0.2030786,41.416683,0.024761159,-0.6133142,0.019069916,1.9468142,-0.081134744,-0.031170964,0.32721445,0.30412325,0.1986099,0.1946915,-0.684284,-0.85209465,-1.7700571,-2.565125,132.35365,137.60191,106.326195,100.04576,0,0,0,0,0,0,0,0,0,0,0,0,-2.4097452,-0.4038433,5.1680903,5.0731487,2.5050182,0.94295,5.462807,5.684778,0.0074718334,0.00463932,-0.0052793436,-0.0057452135,164,6,231,2,0,-206.65791,397.45654,4636.4175,47.102356,-31309.191,-60.383015,195.69724,179.0389,255.27783,255.27783,-14.7,1,638.0143,0,0,16.413677,16.413668,0,6,0,255,0,0,1,-127,228,129
True,23525375,15999.99,0,4857.515,2.9096494,-2.2167408,-13.499462,-18.75592,0.17336568,41.675385,0.046167694,-0.8735684,-0.01644333,1.8667995,-0.07843262,-0.023636406,0.31167695,0.27161655,0.19301999,0.17624499,-1.4375793,-0.52158386,-1.9516422,-2.5491798,118.787476,137.5561,104.971504,102.09683,0,0,0,0,0,0,0,0,0,0,0,0,-2.4881964,-0.75101674,4.4555974,4.3702717,2.873631,0.91437185,4.8642836,5.0594063,0.005565904,0.0006518401,-0.005943943,-0.007938366,164,6,231,2,0,-201.76611,397.8901,4637.0317,45.701775,-30157.22,-59.261757,201.06824,177.94154,258.91858,258.91858,-14.7,1,641.6072,0,0,16.520374,16.520363,0,6,0,112,0,0,1,0,218,200
True,23525500,15999.99,0,5616.742,9.721288,-1.8794445,-6.3979154,-12.506853,0.11791383,42.795227,0.052092656,-1.0620227,0.063493825,1.7440435,-0.07857184,-0.009948346,0.2768679,0.26554003,0.22546223,0.17884752,-0.01173878,-0.09509022,-0.21555471,-0.9387972,134.94025,138.75511,127.30458,124.413155,0,0,0,0,0,0,0,0,0,0,0,0,1.6920636,1.9004074,2.4084113,2.779761,1.6921042,1.902785,2.4180381,2.9340096,0.0012960024,-9.3545765E-05,-0.0020867996,-0.007628944,164,6,231,2,0,-196.28215,398.3504,4637.7236,44.5855,-40196.15,-68.41811,200.64572,176.68542,262.86093,262.86093,-14.7,1,645.64355,0,0,16.643465,16.643454,0,6,0,0,0,0,1,0,207,0
True,23525609,15999.99,0,5749.4707,14.597279,-2.4648175,-4.395712,-6.162876,0.08328805,43.508907,-0.009708133,-0.9841068,0.0669712,1.6351793,-0.074649744,0.004532185,0.289541,0.2346288,0.22377841,0.17162794,-0.044030398,-0.15053867,-0.06474468,-0.3861318,131.89742,135.4731,131.69572,132.88896,0,0,0,0,0,0,0,0,0,0,0,0,1.6160697,1.8382003,1.1352848,1.2677233,1.6166693,1.8443542,1.1371294,1.3252246,0.0028505698,-0.0038853139,-0.002286993,-0.008487299,164,6,231,2,0,-191.72281,398.7064,4638.1587,43.94329,-42147.145,-70.05884,203.52061,179.41925,261.74103,261.74103,-14.7,1,648.97876,0,0,16.747263,16.747252,0,6,0,0,0,0,1,0,194,0
True,23525718,15999.99,0,5886.526,14.788392,-0.32410848,-3.0692596,-0.089753866,-0.017091442,43.585876,-0.025795717,-0.87251484,-0.05817259,1.5346508,-0.07622853,0.016028767,0.34021583,0.22645088,0.3009352,0.1815815,0.06992507,0.031257693,0.15921442,-0.024382403,133.91171,137.6582,135.1486,136.91902,0,0,0,0,0,0,0,0,0,0,0,0,0.3231539,0.3246544,-0.20807005,-0.20182723,0.3306327,0.3261557,0.2619969,0.2032947,0.009066667,-0.004888471,0.006886378,-0.0073038936,164,6,231,2,0,-187.15974,399.05148,4638.4,43.58597,165671.81,268.83292,202.49365,179.09088,256.17007,256.17007,-14.7,1,652.28394,0,0,16.852161,16.852152,0,6,230,0,0,0,1,0,177,0
True,23525828,15999.99,0,6126.1562,-8.799503,-1.2654359,3.545168,2.1039054,-0.066616245,43.940773,0.02210242,-0.612061,-0.108094744,1.4549059,-0.07359332,0.010472581,0.280124,0.22277616,0.2894549,0.22598018,0.53592545,0.14817049,0.65764105,0.28329107,140.96167,139.65762,142.53659,141.69122,0,0,0,0,0,0,0,0,0,0,0,0,-0.3102638,-0.27033716,-0.7016705,-0.5967036,0.6192574,0.30828017,0.96168256,0.6605369,0.0016954206,-0.005339235,0.0055214576,-0.0020252205,164,6,231,2,0,-182.47192,399.40222,4638.6406,43.99116,512813.9,799.7954,199.885,177.70631,250.57889,250.57889,-14.7,1,655.6782,0,0,16.959757,16.959745,0,6,255,0,0,0,1,0,159,0
True,23525937,15999.99,0,6248.4146,-16.928717,-0.80255985,7.3789754,2.4967437,-0.15192728,44.63721,-0.007462804,-0.36292452,-0.0878975,1.401342,-0.073771216,0.003583148,0.22572,0.24886884,0.25277346,0.27963677,0.83912,0.17317538,0.59192973,0.29204428,147.34544,141.63164,144.80878,143.59991,0,0,0,0,0,0,0,0,0,0,0,0,-0.52559984,-0.44236243,-0.6993649,-0.5841055,0.99014014,0.47505182,0.916238,0.653046,-0.004978124,-0.0021385401,0.001160305,0.004354149,164,6,231,2,0,-177.64198,399.7475,4639.0776,44.707233,573060.3,876.0883,197.55142,176.52318,245.41298,245.41298,-14.7,1,659.1808,0,0,17.06938,17.069368,0,6,255,0,0,0,1,-4,145,0
True,23526046,15999.99,0,6329.7095,-17.404015,-0.77688855,7.9155645,1.8650851,-0.19393043,45.398468,-0.00062141125,-0.2386158,-0.0329435,1.372382,-0.0732843,-0.00036565677,0.15749362,0.24544114,0.22443551,0.30495414,0.7199894,0.21844523,0.5135423,0.28837314,148.59413,144.11034,146.65474,145.52377,0,0,0,0,0,0,0,0,0,0,0,0,-0.76714665,-0.65813726,-0.50642586,-0.4370558,1.0520926,0.6934428,0.721244,0.523619,-0.0133472085,-0.0025590025,-0.00220887,0.0073642023,164,6,231,2,0,-172.81001,400.08795,4639.743,45.437176,607534.3,916.8347,195.48888,175.52708,240.59116,240.59116,-3.7963037,1,662.7451,0,0,17.177874,17.177862,0,7,255,0,0,0,1,-127,135,0
True,23526156,15999.99,0,6451.591,-15.24315,-1.0607796,8.437147,1.2171307,-0.2541147,46.3639,0.031255856,-0.13208103,0.004002447,1.3445393,-0.07200141,-0.00015099345,0.15518142,0.24073318,0.22918469,0.32203722,0.52521706,0.18934406,0.510949,0.33391905,149.73587,146.6424,150.00839,148.85747,0,0,0,0,0,0,0,0,0,0,0,0,-0.24949689,-0.22664969,-0.32776555,-0.29281047,0.58146507,0.29533243,0.6070413,0.444117,-0.013630839,-0.003136512,-0.0016442277,0.009395249,164,6,231,2,0,-167.15428,400.48035,4640.775,46.380566,675670.9,1001.02844,193.29108,174.50128,235.33063,235.33063,-14.60528,1,666.95966,0,0,17.303423,17.30341,0,7,255,0,0,0,1,0,129,0
True,23526265,15999.99,0,6603.905,-10.230386,-0.27272242,9.109745,0.486228,-0.37859368,47.3088,-0.027044341,0.01596534,-0.06850186,1.3388917,-0.07271988,0.0013838003,0.14565402,0.13164544,0.23550738,0.23424228,0.16454265,0.7318788,0.22487436,0.5892529,149.03947,155.76459,150.64119,154.50789,0,0,0,0,0,0,0,0,0,0.120000005,0,0.120000005,-0.11263177,-0.12407014,-0.10153898,-0.11124696,0.19939959,0.74232066,0.24673598,0.5996623,-0.014799528,-0.016517911,-0.00089250505,-0.0010429174,164,6,231,2,0,-162.39879,400.79977,4641.8003,47.312813,670423.6,973.73944,191.42542,173.51715,231.20789,231.20789,-14.7,1,670.52954,0,0,17.407393,17.407381,0,7,233,0,0,0,1,0,129,123
True,23526375,15999.99,0,6509.404,-1.605484,-2.601751,6.096277,0.12393093,-0.48417664,47.94822,0.109791234,0.11884476,-0.118175276,1.3448868,-0.06986204,-0.008774488,0.15632692,0.04401513,0.2600243,0.1694222,0.092388034,0.28212637,0.10985069,0.11235748,150.04507,150.41748,150.45009,150.32138,0,0,0,0,0,0,0,0,0,0.120000005,0,0.120000005,0.25193208,0.25290373,0.0114488695,0.016073734,0.26833808,0.3788873,0.110445686,0.11350141,-0.013490323,-0.027267206,0.0020223744,-0.008749545,164,6,231,2,0,-157.51285,401.1154,4642.916,47.95082,289721.97,424.7401,189.59447,172.55406,227.23195,227.23195,-14.7,1,674.2186,0,0,17.512695,17.512684,0,6,99,0,0,0,1,69,129,125
True,23526500,15999.99,0,5910.884,9.434831,1.8700702,-17.777193,-0.14522552,0.11942968,45.75821,0.112574995,0.36811274,0.032284595,1.3747238,-0.060707808,-0.012931959,0.3795497,0.30036733,0.28084448,0.27066112,-0.091043845,-0.49862027,-0.22217216,-0.536266,141.19965,133.66238,139.82228,132.1984,0,0,0,0,0,0,0,0,0,0.120000005,0,0.120000005,0.43149808,0.61150277,0.120875314,0.1428368,0.44099838,0.78902334,0.25292552,0.5549627,0.013891611,0.004178595,0.0044977404,0.00328701,164,6,231,2,0,-152.01866,401.4551,4644.1074,45.758595,-45240.086,-72.58395,187.86612,171.64664,222.9992,222.9992,-14.7,1,678.34406,0,0,17.63245,17.632439,0,6,0,255,0,0,1,125,129,238
True,23526593,15999.99,0,5430.7026,10.564979,0.3235408,-21.11645,-1.0865884,0.42533976,43.485077,0.0043147625,0.4537917,0.015124292,1.4196569,-0.0539253,-0.022062607,0.45958483,0.30145785,0.26559803,0.14222403,-0.23338883,-0.08083829,-0.38864145,-1.8365393,132.76524,130.80247,131.12653,112.828224,0,0,0,0,0,0,0,0,0,0.120000005,0,0.120000005,0.09793577,0.09558837,0.36435688,0.36420047,0.25310424,0.12518772,0.53272706,1.872303,0.02370923,0.0043123662,0.0026850514,-0.0119832065,164,6,231,2,0,-147.55338,401.74216,4644.9497,43.50073,-37011.684,-65.652054,186.60281,171.54756,219.71262,219.71262,-14.7,1,681.6762,0,0,17.734325,17.734316,0,5,0,129,0,0,1,0,129,24
True,23526718,15999.99,0,5723.219,14.514698,0.1953075,-6.50849,-1.2152419,0.3766767,42.69343,-0.05596934,0.25920013,0.099874265,1.4630191,-0.054280423,-0.018840877,0.3952943,0.34284127,0.23451664,0.13963112,-0.0031783602,-0.0051083583,-0.008201112,-0.0402143,132.99161,131.67313,132.91956,131.26013,0,0,0,0,0,0,0,0,0,0.120000005,0,0.120000005,0.18620358,0.21209285,0.3276595,0.41979983,0.18623072,0.21215436,0.3277621,0.42172158,0.015822943,0.009388719,-0.0010102987,-0.012291484,164,6,231,2,0,-142.50871,402.06873,4645.749,42.712383,-41856.11,-69.816536,184.95995,170.64076,216.16336,216.16336,-14.7,1,685.41534,0,0,17.853548,17.853539,0,5,0,0,0,0,1,0,129,60
True,23526828,15999.99,0,5693.1377,12.16286,-0.58784616,-2.8151703,-0.6440108,0.00499098,42.454227,-0.04254491,0.06516695,-0.005866736,1.4790952,-0.061577555,-0.016902043,0.36221904,0.26856405,0.27129292,0.15993409,-0.0042292215,-0.059381317,-0.0061388006,-0.004832834,131.70319,131.29507,131.64276,131.29735,0,0,0,0,0,0,0,0,0,0.120000005,0,0.120000005,0.13547955,0.13095292,0.17439435,0.16535777,0.13554555,0.14378738,0.17450237,0.16542837,0.011765718,0.00027740002,0.0033621304,-0.009877611,164,6,231,2,0,-138.22377,402.33795,4646.268,42.459106,-41372.566,-69.41209,183.63104,169.89775,213.28793,213.28793,-14.7,1,689.15375,0,0,17.955112,17.955105,0,5,0,0,0,0,1,0,129,43
True,23526921,15999.99,0,4769.163,5.297719,0.07589963,-15.256119,-0.17193866,0.07906169,41.080715,0.07290636,-0.032500952,0.11606556,1.4787887,-0.06000593,-0.012150943,0.11191167,0.17722099,0.22669786,0.12833354,-3.9540699,-0.78045654,-0.4766916,-1.4160177,84.1626,112.76684,122.3038,110.6096,0,0,0,0,0,0,0,0,0.120000005,0.120000005,0,0.120000005,0.057263017,0.06621024,0.025725534,0.046124026,3.9544845,0.78326,0.47738525,1.4167687,-0.018938582,-0.010927325,-0.0019398928,-0.013634682,164,6,231,2,0,-134.04433,402.6064,4646.684,41.08115,-30743.43,-60.45549,182.49817,169.78827,210.56503,210.56503,-14.7,1,692.2401,0,0,18.055376,18.055367,0,5,0,255,0,0,1,3,129,155
True,23527046,15999.99,0,4172.9004,3.8485298,-1.13351,-19.21952,0.30675817,0.53788704,38.87773,-0.05428115,0.0455474,0.19375494,1.4754303,-0.042994216,-0.012577213,0.3951547,0.36209172,0.060419433,0.067029275,-0.3351193,-0.15828252,0,-0.6455591,116.4748,120.338684,57.34787,111.559204,0,0,0,0,0,0,0,0,0.120000005,0.59999996,0.120000005,0.59999996,0.23924373,0.21737978,0,-0.07428583,0.41175538,0.26890022,0,0.64981914,0.015805822,0.011750102,-0.021709166,-0.020923305,164,6,231,2,0,-129.34697,402.87802,4647.128,38.882668,-23211.826,-52.386032,182.97972,170.94536,207.67648,207.67648,-14.7,1,695.70544,0,0,18.173487,18.173477,0,5,0,255,0,0,1,105,129,138
True,23527140,15999.99,0,4349.179,7.928482,0.2382267,-19.608759,0.8336034,0.55212855,36.872627,-0.1181823,0.1382769,0.23676112,1.4803418,-0.041364253,-0.00265744,0.36945158,0.45275334,0.13092485,0.13980033,-0.25885203,-0.19531122,-1.9952147,-1.8086412,110.512375,110.834564,97.05167,92.765884,0,0,0,0,0,0,0,0,0.120000005,0.59999996,0.120000005,0.59999996,0.36071044,0.49286082,-0.18539675,-0.2234118,0.44397792,0.5301493,2.0038097,1.8223875,0.012652911,0.022871234,-0.013326595,-0.012271367,164,6,231,2,0,-125.535446,403.08704,4647.4385,36.88618,-24101.107,-52.97822,182.42029,170.15582,205.85843,205.85843,-14.7,1,698.51245,0,0,18.274624,18.274614,0,5,0,255,0,0,1,127,129,129
True,23527265,15999.99,0,4443.8647,3.8077562,1.5973788,-27.90904,0.17688656,0.4079853,33.587105,-0.12640668,0.34107587,0.2203249,1.5097287,-0.0530791,0.006620342,0.409765,0.50308627,0.18035302,0.12159586,-0.6307512,-0.26680592,-0.059058826,-0.24364881,99.330025,100.856674,104.340034,103.66041,0,0,0,0,0,0,0,0,0.120000005,0.59999996,0.120000005,0.59999996,0.5314602,0.6052387,0.008397345,0.030318677,0.8248012,0.6614372,0.05965283,0.24552794,0.01759801,0.029045396,-0.007449951,-0.014435742,164,6,231,2,0,-121.34052,403.33987,4647.6997,33.590046,-25009.086,-53.966938,181.18504,169.22162,203.89972,203.89972,-14.7,1,704.1049,0,0,18.393728,18.393719,0,4,0,255,0,0,1,127,129,129
True,23527375,15999.99,0,3856.146,10.042229,1.8079128,-19.020897,-0.17036825,0.2612003,32.05407,0.03145409,0.49220204,0.074776486,1.5544672,-0.061919723,0.016089082,0.30087957,0.2340736,0.3050813,0.29065734,-0.06908629,-1.8719045,-0.15082538,-2.3954902,99.36236,81.958664,98.09896,78.276955,0,0,0,0,0,0,0,0,0.120000005,0.59999996,0.120000005,0.59999996,0.61713207,0.9535432,0.18823953,0.28177795,0.620987,2.1007786,0.24121031,2.412006,0.0042414293,-0.0039534196,0.007379316,0.0056644157,164,6,231,2,0,-117.96371,403.56824,4647.835,32.055588,-19265.254,-47.365948,180.20955,169.11273,202.15363,202.15363,-14.7,1,706.4552,0,0,18.49692,18.496912,0,4,0,255,0,0,1,127,129,142
True,23527468,15999.99,0,3115.2402,26.550533,-3.1065116,-113.21858,0.058949113,-0.021665204,24.13831,0.03378497,0.70479274,-0.16365814,1.6175696,-0.060877252,0.009243409,0.4948672,0.14630988,0.2910095,0.11838861,-0.83061576,-0.12579225,-0.007826498,-0.36188623,66.95756,72.10402,75.87813,70.62312,0,0,0,0,0,0,0,0,0.120000005,0.120000005,0.120000005,0.120000005,0.7063211,0.7054618,0.3158687,0.46012047,1.0903265,0.71658915,0.31596565,0.58538234,0.02803719,-0.014719078,0.0057062805,-0.014817061,164,6,231,2,0,-114.92549,403.76624,4647.8247,24.138391,-12715.4375,-38.48084,179.84682,168.9768,200.61488,200.61488,-5.879999,1,708.6025,0,0,18.60195,18.601944,0,4,0,255,0,0,1,127,146,129
True,23527593,15999.99,0,2834.9343,16.23581,-0.8039595,-25.753248,2.2788262,-0.11120582,20.134005,0.08745617,0.8687572,0.019297393,1.7142074,-0.054487664,-0.006257114,0.4332416,0.23468319,0.39279443,0.08785418,-0.21345675,-1.2856191,-0.19944279,-0.23443691,68.84701,58.725624,66.55667,66.20894,0,0,0,0,0,0,0,0,0.120000005,0.120000005,0.120000005,0.120000005,1.321931,1.7973129,0.65422857,0.72407705,1.339054,2.209785,0.6839535,0.7610836,0.020477802,-0.0038786419,0.017807763,-0.018447379,164,6,231,2,0,-112.09691,403.93094,4647.5337,20.262861,-10426.944,-34.84636,180.12148,169.97281,198.73912,198.73912,-14.7,1,712.6397,0,0,18.72689,18.726885,0,3,0,255,0,0,1,127,180,129
True,23527718,15999.99,0,2354.4683,24.8879,0.2313263,-27.13748,1.7865257,0.12154115,17.809519,0.05373063,1.1828929,-0.056975603,1.829933,-0.046075817,-0.022679761,0.4876079,0.34135637,0.35688543,0.25158304,-0.37018943,-0.2952532,-0.20466504,-0.38300455,57.96133,51.391243,56.24609,52.178963,0,0,0,0,0,0,0,0,0.120000005,0.120000005,0.120000005,0.120000005,0.73201424,1.0591129,-0.1856009,-0.19644023,0.8202957,1.0994974,0.27628875,0.43044308,0.02714672,0.009206571,0.013538446,0.00101877,164,6,231,2,0,-110.10377,404.03067,4646.8564,17.899311,-6977.882,-28.506289,179.5061,169.83427,196.88626,196.88626,-14.7,1,713.7929,0,0,18.83814,18.838137,0,3,0,255,0,0,1,127,207,129
True,23527812,15999.99,0,2127.7979,18.071548,0.8104036,-13.92477,1.1967597,0.22970435,16.991043,0.032474045,1.4295285,-0.019574191,1.9690247,-0.03652987,-0.032708764,0.54057527,0.395497,0.35693783,0.262588,-0.14922105,-1.4910293,-0.62075824,-1.1118547,55.772057,43.69791,52.41213,45.22572,0,0,0,0,0,0,0,0,0.120000005,0.120000005,0.120000005,0.120000005,1.0535443,1.6286695,0.3204528,0.38918748,1.0640594,2.208106,0.698592,1.1780015,0.033644028,0.015847806,0.013544671,0.0023271777,164,6,231,2,0,-108.364105,404.1109,4646.07,17.034685,-5746.3223,-25.868654,179.01862,169.94391,195.09174,195.09174,-14.7,1,714.9289,0,0,18.94489,18.944885,0,3,0,255,0,0,1,127,233,129
True,23527937,15999.99,0,1865.3107,14.443338,-0.9010515,-11.2030735,-0.14717102,0.1450994,15.557322,0.014638802,1.4708416,-0.028408155,2.142943,-0.02792659,-0.04118612,0.43649513,0.28001395,0.29016936,0.19093138,-0.25849178,-1.494508,-0.028859412,-2.4122918,50.197212,38.328133,51.621376,33.254585,0,0,0,0,0,0,0,0,0.120000005,0.120000005,0.120000005,0.120000005,1.7405672,2.522576,1.1667717,1.4764657,1.7596568,2.9320548,1.1671286,2.8282685,0.0208769,0.0016819201,0.0056064017,-0.006192263,164,6,231,2,0,-106.70158,404.19345,4645.1274,15.558694,-4574.544,-23.080902,179.86136,172.09723,193.90033,193.90033,-14.7,1,716.14044,0,0,19.062828,19.062824,0,3,0,255,0,0,1,127,6,129
True,23528031,15999.99,0,1697.9885,13.911221,-0.79898596,-10.563059,-1.0248885,0.117281675,14.299692,0.009761149,1.47776,-0.023329971,2.2897155,-0.017946672,-0.04818231,0.43598655,0.26512927,0.26359507,0.15346597,-0.3116131,-1.5422858,-1.3021712,-1.032124,45.491756,34.084763,39.858177,37.94935,0,0,0,0,0,0,0,0,0.120000005,0.120000005,0.120000005,0.120000005,2.1517756,3.0686622,1.926946,2.3098066,2.174222,3.4344335,2.3256764,2.5299182,0.020814516,-0.00014393032,0.002446916,-0.010646623,164,6,231,2,0,-105.46033,404.24426,4644.268,14.336851,-3778.1062,-20.975676,182.47171,175.7665,194.35748,194.35748,-14.7,1,717.1479,0,0,19.164017,19.164013,0,3,0,255,0,0,1,127,27,129
True,23528156,15999.99,0,1888.3411,16.280087,-0.47085366,-4.0458565,-1.5823264,0.08605781,13.358178,-0.0076186284,1.4514247,-0.01821662,2.461317,-0.007943907,-0.052313194,0.394026,0.24840285,0.24139826,0.118995786,0.110682555,1.1317593,-0.026436375,1.8777618,43.98632,39.921993,44.82649,44.18557,0,0,0,0,0,0,0,0,0.120000005,0.120000005,0.120000005,0.120000005,2.5333796,3.473758,2.1498363,3.030123,2.5357962,3.653474,2.149999,3.564777,0.015667368,-0.002195701,-0.0001921244,-0.014744872,164,6,231,2,0,-104.2202,404.28522,4643.2104,13.451844,48064.977,243.47983,186.3886,180.28384,196.22621,196.22621,-14.7,1,718.0367,0,0,19.28233,19.282324,0,4,70,0,0,0,1,127,49,0
True,23528250,15999.99,0,1878.0558,15.088591,-0.56120026,2.1697083,-1.9213209,0.03145893,13.293258,0.010801207,1.3703173,0.023054413,2.607854,-0.0010830837,-0.054245763,0.3307885,0.19351335,0.2916399,0.18804051,0.30115482,2.4655974,0.18446663,1.1752926,43.76725,42.74623,45.26409,41.607002,0,0,0,0,0,0,0,0,0.120000005,0.120000005,0.120000005,0.120000005,2.905347,3.935439,2.365353,3.1120303,2.9209137,4.6440125,2.3725352,3.3265665,0.007910248,-0.008928798,0.0057812333,-0.006535966,164,6,231,2,0,-103.29861,404.30783,4642.1875,13.431425,0,0,190.10675,183.93396,198.65627,198.65627,-2.480421,1,718.561,0,0,19.385098,19.38509,0,3,255,0,0,0,1,124,64,0
True,23528375,15999.99,0,1954.7988,15.753248,-0.32689148,3.8834057,-2.114657,0.02245009,13.306793,0.017874472,1.3064451,-0.028239574,2.7679093,0.009075325,-0.05365331,0.28491738,0.1384606,0.28714877,0.1718442,0.051999506,1.672855,0.56891894,2.2724986,44.402958,43.088814,46.63756,45.16621,0,0,0,0,0,0,0,0,0.120000005,0.120000005,0.120000005,0.120000005,0.31109804,0.4241856,2.5673401,3.1098795,0.31541392,1.7257977,2.6296206,3.851701,0.0022834055,-0.01568192,0.0052472763,-0.008461587,164,6,231,2,0,-102.389084,404.3185,4640.862,13.47379,0,0,192.74799,186.74846,202.03703,202.03703,0,1,719.61444,0,0,19.504898,19.504892,0,4,255,0,0,0,1,0,77,0
True,23528484,15999.99,0,2034.3284,14.12992,-0.98621315,5.3031116,-2.322199,-0.028642327,13.499568,0.07900687,1.111991,-0.0043585002,2.89012,0.020406015,-0.05330438,0.20762125,0.08219245,0.2910603,0.17234907,0.20304759,1.611005,0.7811618,2.844077,45.036263,44.617943,47.44574,48.84862,0,0,0,0,0,0,0,0,0.120000005,0.120000005,0.120000005,0.120000005,0.5746575,0.7412483,2.4018548,3.0987372,0.60947484,1.7733544,2.525692,4.206061,-0.007198233,-0.022584131,0.0057123266,-0.0084015615,164,6,231,2,0,-101.75201,404.30984,4639.627,13.697874,84303.26,394.1156,191.28041,186.13667,204.84705,204.84705,0,1,720.57495,0,0,19.607244,19.607239,0,4,255,0,0,0,1,0,86,0
True,23528593,15999.99,0,2021.1298,14.798371,-0.6365774,5.1711106,-2.2821493,0.03378582,13.733519,0.12414821,0.9845848,-0.029576538,3.014957,0.03849162,-0.049294587,0.16297299,0.043448787,0.302177,0.16300121,0.011238473,1.0355937,0.63519645,2.7497175,45.130795,42.553944,47.11545,49.304718,0,0,0,0,0,0,0,0,0.120000005,0.120000005,0.120000005,0.120000005,0.36856332,0.489766,2.3147354,3.022965,0.36873463,1.1455677,2.4003072,4.086473,-0.012675073,-0.027336676,0.0070340224,-0.009512953,164,6,231,2,0,-101.17955,404.27545,4638.0923,13.921885,0,0,189.76602,185.52141,207.69592,207.69592,0,1,721.7473,0,0,19.726074,19.726068,0,4,255,0,0,0,1,-13,92,0
True,23528718,15999.99,0,2124.2917,2.0618618,-0.7733344,5.0653143,-3.3082,-0.007599652,14.076387,0.018570876,0.37011954,-0.05057108,3.0955296,0.05047272,-0.05329178,0.18812098,0.16923341,0.1819502,0.10307953,1.0901138,0.35547802,1.5586331,2.2399714,48.501244,44.018387,50.45922,50.68807,0,0,0,0,0,0,0,0,0.120000005,0.120000005,0.120000005,0.120000005,-1.6922728,-0.9310662,2.7500622,2.8660948,2.0129917,0.99661875,3.161041,3.6375778,-0.009590261,-0.011907132,-0.007260058,-0.016637197,164,6,231,2,0,-100.71171,404.21808,4636.4575,14.4599085,0,0,188.78833,184.0962,210.13629,210.13629,0,1,722.9821,0,0,19.845835,19.845827,0,4,255,0,0,0,1,-127,97,0
True,23528828,15999.99,0,2187.2112,0.23529425,-0.24939445,4.150533,-3.5305667,-0.04780239,14.426126,-0.018410964,-0.036056064,-0.020143118,3.1111078,0.051145066,-0.056126617,0.21914044,0.2311486,0.1664451,0.1370825,1.1947302,0.4066339,1.6486852,1.9907526,49.77086,47.147724,51.005016,52.24114,0,0,0,0,0,0,0,0,0.120000005,0.120000005,0.120000005,0.120000005,-1.7398304,-0.8857914,2.4105163,2.5093231,2.1105425,0.9746679,2.9204025,3.2030919,-0.0057852156,-0.0043122172,-0.009103499,-0.012594495,164,6,231,2,0,-100.2972,404.15842,4634.979,14.851945,31665.979,136.7754,189.59424,182.99675,212.68079,212.68079,0,1,724.0983,0,0,19.950687,19.950676,0,4,255,0,0,0,1,-127,101,0
True,23528937,15999.99,0,2252.3694,0.77361,0.3623427,4.766062,-3.1753411,-0.033379674,15.004666,-0.015323543,-0.30157724,-0.00408661,3.092814,0.048458803,-0.056372017,0.1997833,0.2375554,0.22418061,0.22420684,1.256497,0.59388566,1.4976203,1.8146482,51.05176,50.082573,51.080894,54.522514,0,0,0,0,0,0,0,0,0.120000005,0.120000005,0.120000005,0.120000005,-1.9152948,-1.1068971,1.7940164,1.8926301,2.2906635,1.2561535,2.3369555,2.6220214,-0.008159686,-0.0035263188,-0.0022391751,-0.002236057,164,6,231,2,0,-99.888214,404.09637,4633.464,15.337011,4425.1514,18.43472,190.6846,182.00201,214.57062,214.57062,0,1,725.2406,0,0,20.054829,20.05482,0,4,255,0,0,0,1,-127,105,0
True,23529062,15999.99,0,2326.0088,1.523798,-0.0024175644,5.528796,-2.156735,-0.05679041,15.827806,0.0040905606,-0.59686124,0.043479513,3.037971,0.045035116,-0.055432677,0.18088628,0.21961448,0.22855291,0.24883746,1.2008959,0.6861938,1.0964552,0.6193084,52.98256,54.425865,53.357277,54.09379,0,0,0,0,0,0,0,0,0.120000005,0.120000005,0.120000005,0.120000005,-2.3989756,-1.6768391,0.90761286,0.89698917,2.6827662,1.8118088,1.4233676,1.0900149,-0.010477714,-0.0057270676,-0.0017193407,0.0006923415,164,6,231,2,0,-99.421745,404.02048,4631.625,15.974172,371933.34,1546.6406,192.76093,181.78036,214.80696,214.80696,0,1,726.6239,0,0,20.176205,20.176197,0,4,255,0,0,0,1,-127,110,0
True,23529156,15999.99,0,2419.0862,-0.98475254,-0.119057536,7.94829,-1.0487294,-0.06555003,16.791681,-0.019830417,-0.85366356,0.0019639656,2.961185,0.040972795,-0.055317383,0.17003115,0.26480606,0.23362514,0.24251193,1.0907665,0.27977112,1.1664139,0.28057897,55.424423,55.942215,56.095844,55.838764,0,0,0,0,0,0,0,0,0.120000005,0.120000005,0.120000005,0.120000005,-0.9158709,-0.67168593,-0.0034012434,-0.002026022,1.4242862,0.72762203,1.1664189,0.28058627,-0.011809275,-0.00018357858,-0.0011162907,-5.9716403E-05,164,6,231,2,0,-99.01842,403.9479,4629.9487,16.824526,389069.75,1546.6406,195.29686,182.51279,212.66776,212.66776,0,1,727.8826,0,0,20.281656,20.281649,0,4,255,0,0,0,1,0,115,0
