IsRaceOn,TimestampMS,EngineMaxRpm,EngineIdleRpm,CurrentEngineRpm,AccelerationX,AccelerationY,AccelerationZ,VelocityX,VelocityY,VelocityZ,AngularVelocityX,AngularVelocityY,AngularVelocityZ,Yaw,Pitch,Roll,NormalizedSuspensionTravelFrontLeft,NormalizedSuspensionTravelFrontRight,NormalizedSuspensionTravelRearLeft,NormalizedSuspensionTravelRearRight,TireSlipRatioFrontLeft,TireSlipRatioFrontRight,TireSlipRatioRearLeft,TireSlipRatioRearRight,WheelRotationSpeedFrontLeft,WheelRotationSpeedFrontRight,WheelRotationSpeedRearLeft,WheelRotationSpeedRearRight,WheelOnRumbleStripFrontLeft,WheelOnRumbleStripFrontRight,WheelOnRumbleStripRearLeft,WheelOnRumbleStripRearRight,WheelInPuddleDepthFrontLeft,WheelInPuddleDepthFrontRight,WheelInPuddleDepthRearLeft,WheelInPuddleDepthRearRight,SurfaceRumbleFrontLeft,SurfaceRumbleFrontRight,SurfaceRumbleRearLeft,SurfaceRumbleRearRight,TireSlipAngleFrontLeft,TireSlipAngleFrontRight,TireSlipAngleRearLeft,TireSlipAngleRearRight,TireCombinedSlipFrontLeft,TireCombinedSlipFrontRight,TireCombinedSlipRearLeft,TireCombinedSlipRearRight,SuspensionTravelMetersFrontLeft,SuspensionTravelMetersFrontRight,SuspensionTravelMetersRearLeft,SuspensionTravelMetersRearRight,CarOrdinal,CarClass,CarPerformanceIndex,DrivetrainType,NumCylinders,PositionX,PositionY,PositionZ,Speed,Power,Torque,TireTempFl,TireTempFr,TireTempRl,TireTempRr,Boost,Fuel,Distance,BestLapTime,LastLapTime,CurrentLapTime,CurrentRaceTime,Lap,RacePosition,Accelerator,Brake,Clutch,Handbrake,Gear,Steer,NormalDrivingLine,NormalAiBrakeDifference
True,33311859,15999.99,0,1.4265602E-12,-0.007323532,-0.033058196,0.0028456468,-0.007716366,-5.629597E-05,0.0015446697,0.00012679858,0.0005973674,-0.00025664328,-0.19758235,-0.0018407865,6.260917E-05,0.27573103,0.2560042,0.24372128,0.24316189,0.00032969206,0.00039955095,-0.026844595,0.023140168,0.0047881887,0.0047881887,0.0047881887,0.0047881887,0,0,0,0,0,0,0,0,0,0,0,0,0.024667714,0.01792961,-0.0045526503,-0.00460941,0.024669915,0.017934062,0.027227907,0.023594787,0.0011565462,-0.0012632683,8.40649E-05,1.7557293E-05,164,6,231,2,0,-1263.0823,462.63397,1068.3002,0.007869656,-2.6078284E-27,-1.7436748E-14,123.15975,123.544266,120.15445,120.15445,-14.7,1,0,0,0,0,237.7342,0,0,0,0,0,255,1,-127,0,0
True,33334578,15999.99,0,94.443474,-0.04434848,-0.037181526,4.770851,-0.006123066,-0.0040852,0.52375424,-0.025341928,-0.0017871254,-0.010174816,-2.2487211,0.014961603,0.04811923,0.25931516,0.2608296,0.2512397,0.2496389,1.0756242,0.95762056,0.2634381,0.049679708,1.444187,1.5155804,2.1328573,2.9879036,0,0,0,0,0,0,0,0,0,0,0,0,0.018510116,0.018551435,0.006516299,0.0065552127,1.0757835,0.9578002,0.2635187,0.050110318,-0.00085712597,-0.0006713569,0.0009779483,0.00078762695,164,6,231,2,0,-1202.0741,163.04381,1111.2977,0.523806,7528.1387,716.8047,101.2823,103.03529,103.19696,103.19696,0,1,-75.994774,0,0,0.09277369,0.09277369,0,7,255,0,0,0,1,0,49,0
True,33334687,15999.99,0,324.01538,-0.021092892,0.0028903484,12.142355,0.0012730956,-0.0061062314,1.9538076,-0.039449118,-0.003770282,-0.019327257,-2.2490344,0.01132862,0.046432663,0.24378386,0.2593187,0.28688002,0.29431182,1.806472,0.39364928,0.7137419,0.508875,9.344673,6.6986256,7.324579,7.0587163,0,0,0,0,0,0,0,0,0,0,0,0,0.046167936,0.045806106,-0.0014660003,-0.0013567074,1.8070618,0.39630538,0.7137434,0.5088768,-0.0027622953,-0.0008566901,0.005215317,0.0060989037,164,6,231,2,0,-1202.178,163.04137,1111.2142,1.9538176,51248.61,1546.6406,101.45118,103.21924,103.38449,103.38449,0,1,-75.86813,0,0,0.20510943,0.20510942,0,7,255,0,0,0,1,0,49,0
True,33334796,15999.99,0,516.4055,0.09193659,0.10402857,12.934498,0.017551064,0.0037558004,3.2879107,-0.018860321,0.007231422,-0.0034204228,-2.2494586,0.008783255,0.045058995,0.23149239,0.2603741,0.30961114,0.32694113,1.7361184,0.4695765,0.9294138,0.9098795,13.377396,11.233162,11.815032,11.627136,0,0,0,0,0,0,0,0,0,0,0,0,0.3900161,0.3894349,-0.019292772,-0.015674438,1.7793875,0.6100505,0.929614,0.9100145,-0.004270047,-0.00072723255,0.007917881,0.009978287,164,6,231,2,0,-1202.3822,163.03903,1111.0497,3.2879596,82637.85,1546.6406,104.62619,103.301956,103.636734,103.636734,0,1,-75.61897,0,0,0.30454952,0.30454952,0,7,255,0,0,0,1,20,49,0
True,33334906,15999.99,0,701.98395,2.9033158,-0.15476067,11.625496,0.33782053,-0.019084558,4.669817,-0.00908431,0.28181368,-0.020518389,-2.228754,0.007003792,0.046808146,0.21665289,0.2223075,0.30568746,0.31156904,1.1053894,0.53112745,0.69054806,1.6465065,17.512877,14.896076,15.909281,16.522795,0,0,0,0,0,0,0,0,0,0,0,0,-0.26194203,-0.29276028,0.041100487,0.04695703,1.1360015,0.6064693,0.6917701,1.6471759,-0.006090354,-0.0053967237,0.007451389,0.0081506595,164,6,231,2,0,-1202.7666,163.03578,1110.7776,4.682059,113881.34,1546.6406,106.05254,104.860855,104.01075,104.01075,0,1,-75.172325,0,0,0.42263994,0.42263997,0,7,255,0,0,0,1,0,48,0
True,33335031,15999.99,0,913.9702,-1.2305636,-0.21430898,13.6435,0.0034396648,-0.044877306,6.257559,-0.004394472,0.0025010903,-0.00579267,-2.2162046,0.005675711,0.044885084,0.18450627,0.21039394,0.29567745,0.32562768,1.8218665,0.19635713,0.0073634232,0.18797,21.95999,20.070915,21.749727,20.56545,0,0,0,0,0,0,0,0,0,0,0,0,-0.016683133,-0.012925533,0.0039046863,0.006380355,1.8219429,0.19678208,0.008334661,0.18807825,-0.010033663,-0.006858118,0.0062612705,0.009822134,164,6,231,2,0,-1203.2885,163.0287,1110.4003,6.2577205,140830.05,1546.6406,107.47455,105.07712,104.471436,104.471436,0,1,-74.561226,0,0,0.54050016,0.54050016,0,7,255,0,0,0,1,0,48,0
True,33335140,15999.99,0,1182.9221,-0.43041277,-0.24641287,15.538765,-0.01976204,-0.076520786,8.109095,0.0042064223,-0.017033467,0.0083592255,-2.2174418,0.005253419,0.04510631,0.16140363,0.18939564,0.30330685,0.3369218,2.3321512,0.5828262,0.72036135,0.58364946,30.29275,26.486689,26.854574,26.625317,0,0,0,0,0,0,0,0,0,0,0,0,0.051469553,0.054027166,-0.005823989,-0.0021011895,2.332719,0.58532494,0.7203849,0.5836532,-0.012867583,-0.009433903,0.007168345,0.011164919,164,6,231,2,0,-1203.9569,163.01709,1109.895,8.10948,190431.8,1546.6406,109.93184,105.174385,104.80973,104.80973,0,1,-73.76543,0,0,0.6567548,0.6567548,0,7,255,0,0,0,1,0,47,0
True,33335234,15999.99,0,1383.6477,-0.13811111,-0.24976265,15.88087,-0.023121357,-0.09179841,9.649244,0.01222731,-0.01367852,0.011217107,-2.2189229,0.0063222446,0.046132717,0.15775211,0.17585446,0.31019124,0.3363995,1.1265436,0.7373968,0.66850495,0.6175842,32.72027,31.91538,31.793423,31.723104,0,0,0,0,0,0,0,0,0,0,0,0,0.041250806,0.044806663,0.00123582,0.0051085344,1.1272986,0.73875684,0.6685061,0.6176053,-0.013315499,-0.011094952,0.007986855,0.011102822,164,6,231,2,0,-1204.646,163.00372,1109.3718,9.64971,223283.47,1546.6406,111.87541,105.28964,105.05939,105.05939,0,1,-72.943634,0,0,0.75409454,0.7540945,0,7,255,0,0,0,1,0,47,0
True,33335343,15999.99,0,1632.0938,-0.09812784,-0.25478968,15.9949,-0.019771576,-0.10674542,11.471729,0.013096051,-0.0050558457,0.0075678932,-2.2197793,0.007848794,0.047315802,0.15719812,0.16204047,0.3157789,0.32731205,0.5956166,0.8365324,0.60314924,0.6047802,37.431213,38.188656,37.614693,37.643005,0,0,0,0,0,0,0,0,0,0,0,0,0.021154188,0.024642868,0.008092507,0.011886419,0.59599215,0.8368953,0.6032035,0.60489696,-0.013383456,-0.012789462,0.008651182,0.010022387,164,6,231,2,0,-1205.6035,162.9838,1108.6436,11.472243,263383.16,1546.6406,111.65472,105.525375,105.33084,105.33084,0,1,-71.80093,0,0,0.86776054,0.8677605,0,7,255,0,0,0,1,0,46,0
True,33335468,15999.99,0,1883.1267,-0.10673046,-0.2601107,16.078667,-0.018933296,-0.12474486,13.279955,0.0039869333,-0.0037678024,0.0026289315,-2.220204,0.008929648,0.047840398,0.15436217,0.1540477,0.3149972,0.31594014,0.5756117,0.68054354,0.5835343,0.5916506,43.2733,43.659466,43.4804,43.52483,0,0,0,0,0,0,0,0,0,0,0,0,0.017349722,0.020144822,0.0083488375,0.0117383795,0.57587314,0.6808416,0.583594,0.591767,-0.0137313325,-0.013769908,0.008558247,0.008670352,164,6,231,2,0,-1206.7184,162.95872,1107.7954,13.280557,304043.97,1546.6406,111.389175,105.74395,105.59274,105.59274,0,1,-70.470314,0,0,0.9807628,0.9807628,0,7,255,0,0,0,1,0,46,0
True,33335562,15999.99,0,2097.2395,-0.10025835,-0.14534417,16.002588,-0.018290997,-0.14354306,14.850581,-0.012939917,-0.0036010114,0.00023605395,-2.220582,0.008536443,0.04796588,0.15576509,0.15329967,0.31162298,0.3094747,0.52091306,0.57756954,0.54653114,0.5526121,48.191193,48.43311,48.482063,48.52,0,0,0,0,0,0,0,0,0,0,0,0,0.015458897,0.017664783,0.007468279,0.010596951,0.5211424,0.5778396,0.54658216,0.55271375,-0.013559241,-0.013861664,0.008157074,0.007901665,164,6,231,2,0,-1207.8181,162.93324,1106.9586,14.851286,338711.44,1546.6406,111.179405,105.89566,105.81148,105.81148,0,1,-69.15765,0,0,1.0788726,1.0788726,0,7,255,0,0,0,1,0,45,0
True,33335687,15999.99,0,2355.304,4.08251,0.20044252,13.752038,0.26780796,-0.152138,16.501871,-0.029008055,0.2496998,0.020143643,-2.2075596,0.0055842595,0.050123807,0.19090183,0.16522524,0.31384614,0.29800612,0.37530693,1.2504628,0.43479773,0.7126614,53.579628,56.11095,54.029484,54.272232,0,0,0,0,0,0,0,0,0,0,0,0,0.4488895,0.51165617,0.018487768,0.022584246,0.58511287,1.3510919,0.43519062,0.71301913,-0.009249143,-0.012398798,0.008421395,0.0065381303,164,6,231,2,0,-1209.3203,162.90253,1105.8466,16.504744,380075.5,1546.6406,111.50512,107.91887,106.02761,106.02761,0,1,-67.38303,0,0,1.1977223,1.1977224,0,7,255,0,0,0,1,0,44,0
True,33335796,15999.99,0,2561.096,0.84008884,0.32934186,15.594981,-0.010128021,-0.19207862,18.195482,-0.04131081,0.06949675,-0.0072862916,-2.190336,7.168949E-05,0.04918779,0.2016401,0.18130313,0.32228953,0.31202632,0.50945777,0.62290275,0.44055605,0.5032856,59.211742,59.420273,59.07427,59.03775,0,0,0,0,0,0,0,0,0,0,0,0,-0.0515645,-0.049541384,0.051854864,0.056626383,0.51206064,0.62486976,0.4435973,0.5064612,-0.007931918,-0.010426581,0.009425245,0.008205026,164,6,231,2,0,-1210.8102,162.88019,1104.7821,18.196495,413910.06,1546.6406,111.33111,108.20952,106.23027,106.23027,0,1,-65.64595,0,0,1.3031209,1.303121,0,7,255,0,0,0,1,0,42,0
True,33335906,15999.99,0,2815.9243,0.4221115,0.054133236,15.604816,-0.024328232,-0.21015394,19.8641,0.019611917,0.008722933,-0.006257852,-2.1871953,-0.0013575427,0.04846729,0.18546788,0.17089586,0.34609255,0.33474755,0.7248378,0.7895777,0.4987099,0.5234496,65.57843,65.85255,64.62422,64.70172,0,0,0,0,0,0,0,0,0,0,0,0,0.0052666604,0.009615289,0.015263083,0.02130868,0.7248569,0.78963625,0.49894342,0.52388316,-0.009915706,-0.011703206,0.012255251,0.010906413,164,6,231,2,0,-1212.461,162.86078,1103.6085,19.865225,455007.66,1546.6406,111.17848,108.31149,106.4328,106.4328,0,1,-63.72476,0,0,1.4094378,1.409438,0,7,255,0,0,0,1,0,39,0
True,33336031,15999.99,0,3082.579,0.035363674,-0.66955423,15.449507,-0.026644707,-0.20271003,21.761944,0.03985795,-0.0024134028,-0.001048753,-2.186869,0.0034028261,0.04803161,0.168851,0.1607676,0.3349944,0.32458523,0.6074257,0.5993812,0.58501464,0.601999,71.035225,71.02079,71.23283,71.32447,0,0,0,0,0,0,0,0,0,0,0,0,0.012934832,0.016708154,0.008342652,0.013119276,0.60756344,0.599614,0.5850741,0.6021419,-0.011954041,-0.0129456,0.010935761,0.0096981935,164,6,231,2,0,-1214.5558,162.83296,1102.1228,21.762901,478703.5,1485.471,111.09918,108.45853,106.70473,106.70473,0,1,-61.288944,0,0,1.5326912,1.5326915,0,7,255,0,0,0,1,0,37,0
True,33336125,15999.99,0,3284.73,-0.09819794,-0.5958938,15.446699,-0.025720596,-0.21776873,23.327972,0.0018292436,-0.0035865991,-0.0002189168,-2.1870654,0.005615707,0.04802032,0.17727429,0.16712135,0.319745,0.31204912,0.4476087,0.5293655,0.5384717,0.53476113,75.21366,75.74138,76.06986,76.061554,0,0,0,0,0,0,0,0,0,0,0,0,0.01245527,0.015333582,0.0070473757,0.01058686,0.44778198,0.5295875,0.5385178,0.5348659,-0.010920787,-0.012166211,0.009122722,0.008207738,164,6,231,2,0,-1216.4229,162.80045,1100.7987,23.329002,521103.5,1517.2015,111.000626,108.54375,106.9399,106.9399,0,1,-59.117855,0,0,1.6341584,1.6341586,0,7,255,0,0,0,1,0,34,0
True,33336234,15999.99,0,3520.253,-0.08705282,0.19123057,15.626625,-0.020874023,-0.24889374,25.192984,-0.0350544,-0.004858724,-0.005904899,-2.1877007,0.0031990279,0.047575697,0.19804107,0.18570758,0.32860547,0.32027572,0.4014072,0.43221766,0.43039304,0.4297379,80.96706,81.18408,81.40824,81.43002,0,0,0,0,0,0,0,0,0,0,0,0,0.010939562,0.013480144,0.003829767,0.008413943,0.40155625,0.43242782,0.4304101,0.42982027,-0.008373398,-0.009886302,0.010176167,0.009185825,164,6,231,2,0,-1218.7861,162.75887,1099.122,25.194221,554216.8,1505.3987,110.86807,108.626045,107.18805,107.18805,0,1,-56.36838,0,0,1.7535056,1.7535057,0,7,255,0,0,0,1,0,31,0
True,33336343,15999.99,0,3716.5435,-0.5677352,0.3855092,14.946669,-0.05702305,-0.266173,26.680017,-0.0048771417,-0.034131065,-0.013508838,-2.1888063,0.00076839695,0.046822876,0.19383423,0.19205645,0.34384203,0.33707193,0.49349475,0.37916604,0.38450852,0.3640061,86.32546,85.601555,85.75925,85.7618,0,0,0,0,0,0,0,0,0,0,0,0,-0.20725285,-0.19658008,0.0032028807,0.0091590425,0.53524834,0.42709556,0.38452184,0.36412132,-0.008889437,-0.0091075115,0.011987682,0.011182763,164,6,231,2,0,-1220.9092,162.72824,1097.6132,26.681406,538205,1384.9749,110.773254,108.68288,107.36279,107.36279,0,1,-53.8979,0,0,1.8538058,1.8538059,0,7,255,0,0,0,1,-26,28,0
True,33336468,15999.99,0,3944.6482,-0.99461746,-0.08057347,14.003317,0.0060453415,-0.2505589,28.310982,0.0051361024,-0.045103494,-0.0012260152,-2.197254,0.002267789,0.04610554,0.18492056,0.1920853,0.33024514,0.33622867,0.37219116,0.3762187,0.42962945,0.40156317,90.59505,90.85725,91.295616,91.308,0,0,0,0,0,0,0,0,0,0,0,0,0.020097626,0.022927606,-0.024571018,-0.019164793,0.37273338,0.37691668,0.4303315,0.40202022,-0.009982843,-0.009103972,0.010371115,0.011082508,164,6,231,2,0,-1223.5458,162.69287,1095.7145,28.312088,571618.9,1385.4697,110.71199,108.75223,107.56041,107.56041,0,1,-50.815037,0,0,1.9719251,1.9719253,0,7,255,0,0,0,1,0,25,0
True,33336578,15999.99,0,4174.3535,-0.75627804,0.010110587,14.172321,0.00076675415,-0.2687477,29.983643,-0.0046779625,-0.010754049,-0.011255692,-2.2000206,0.0017760071,0.04533162,0.1931555,0.18291552,0.31873038,0.32839593,0.37349913,0.4119382,0.39431474,0.381459,96.072075,96.414154,96.511406,96.47266,0,0,0,0,0,0,0,0,0,0,0,0,0.0045660394,0.007466551,-0.005694562,-0.0015673576,0.37352705,0.41200584,0.39435583,0.38146222,-0.008972693,-0.010228794,0.009002093,0.010151252,164,6,231,2,0,-1226.34,162.65489,1093.6879,29.984842,610099.25,1397.4813,110.62983,108.825134,107.76366,107.76366,0,1,-47.539314,0,0,2.0902848,2.090285,0,7,255,0,0,0,1,0,21,0
True,33336687,15999.99,0,4397.023,-0.4369974,-0.10608417,14.107826,-0.012648582,-0.27788532,31.578465,0.00057648914,-0.004714959,-0.0076990966,-2.2008045,0.0019193173,0.04406257,0.19025831,0.18219739,0.32183662,0.31792548,0.3897129,0.36855033,0.3973853,0.4010778,101.322754,101.17395,101.68306,101.734344,0,0,0,0,0,0,0,0,0,0,0,0,0.005676624,0.008410111,0.00074125093,0.004481477,0.38975427,0.3686463,0.39738598,0.40110287,-0.009328082,-0.010316886,0.009371404,0.008906398,164,6,231,2,0,-1229.1653,162.61758,1091.63,31.579687,642598.06,1397.2074,110.578,108.905594,107.95499,107.95499,0,1,-44.221977,0,0,2.2037683,2.203769,0,7,255,0,0,0,1,0,18,0
True,33336796,15999.99,0,4615.332,-0.1478076,-0.041033626,14.092802,-0.021217346,-0.2985958,33.160763,-0.003790779,-0.0035521328,0.005157622,-2.2012582,0.0014214854,0.043998197,0.19125967,0.19152811,0.32172513,0.31801897,0.39514187,0.38324657,0.38228935,0.38596416,106.45191,106.37628,106.66252,106.70423,0,0,0,0,0,0,0,0,0,0,0,0,0.0062732035,0.0091763595,0.0024984994,0.0062006605,0.39519167,0.38335642,0.38229752,0.38601395,-0.009205248,-0.00917232,0.009358145,0.008917514,164,6,231,2,0,-1232.0942,162.5791,1089.4928,33.162113,677715.1,1403.8145,110.54776,108.98383,108.1471,108.1471,0,1,-40.78067,0,0,2.3157172,2.315718,0,7,255,0,0,0,1,0,15,0
True,33336906,15999.99,0,4802.54,-0.14105129,-0.028260738,14.079857,-0.02528572,-0.30131507,34.54639,-0.005703062,-0.0034567625,0.008224077,-2.2016172,0.0014506322,0.044751026,0.1961713,0.2002665,0.32579884,0.32242274,0.33892605,0.34757924,0.38726687,0.38940892,110.39611,110.49736,111.15052,111.17777,0,0,0,0,0,0,0,0,0,0,0,0,0.006974924,0.009635208,0.0030300482,0.007227466,0.3389978,0.34771276,0.3872787,0.38947597,-0.008602757,-0.008100413,0.009842481,0.009441089,164,6,231,2,0,-1234.7947,162.54448,1087.5199,34.547714,700985.44,1395.3115,110.534225,109.05997,108.31504,108.31504,0,1,-37.606113,0,0,2.4144514,2.4144526,0,7,255,0,0,0,1,0,12,0
True,33337015,15999.99,0,5019.3203,-0.22951746,0.17117651,13.848167,-0.031988144,-0.3240801,36.155197,0.004323343,-0.012058377,-0.012929854,-2.202234,6.747059E-05,0.04482044,0.22397701,0.20700099,0.3390167,0.33751968,0.34786302,0.42506072,0.35066846,0.33569723,115.58717,116.34148,115.93784,115.85042,0,0,0,0,0,0,0,0,0,0,0,0,-0.05178013,-0.048891954,0.0027229157,0.008034905,0.3516957,0.42786333,0.35067904,0.33579338,-0.0051919296,-0.0072743185,0.011413984,0.011236001,164,6,231,2,0,-1238.1127,162.50528,1085.0934,36.156666,706288.8,1345.117,110.51762,109.15049,108.50903,108.50903,0,1,-33.70446,0,0,2.5306487,2.5306497,0,7,255,0,0,0,1,-13,9,0
True,33337140,15999.99,0,5221.0044,-3.6083622,-0.5989181,12.659779,-0.032133102,-0.30261135,37.595474,0.016728116,-0.19203171,-0.029956944,-2.2132726,0.003246412,0.04106896,0.22335304,0.20868666,0.34023204,0.33698687,0.4446492,0.24981463,0.43186134,0.33422807,120.456726,119.75798,120.79948,120.86119,0,0,0,0,0,0,0,0,0,0,0,0,0.09044492,0.08934197,-0.053102944,-0.045725603,0.45375454,0.2653099,0.43511394,0.33734143,-0.0052684695,-0.0070675425,0.011558484,0.011172656,164,6,231,2,0,-1241.5068,162.46283,1082.5839,37.596706,684182.4,1252.1631,110.57333,109.28046,108.692856,108.692856,0,1,-29.696955,0,0,2.6450374,2.6450381,0,7,255,0,0,0,1,0,5,0
True,33337250,15999.99,0,5416.764,-2.7700644,-0.076517075,12.911149,0.13716507,-0.3132435,39.120922,-0.0016138267,-0.041263204,0.0031085452,-2.2253816,0.0036515372,0.039686568,0.22966774,0.24201816,0.3453732,0.34406412,0.37031627,0.27107334,0.34600696,0.31938788,125.19161,124.423615,125.285095,125.2236,0,0,0,0,0,0,0,0,0,0,0,0,-0.024097918,-0.020414216,-0.05147067,-0.04481803,0.3710995,0.27184093,0.3498143,0.3225171,-0.00449387,-0.0029788874,0.01216973,0.012014084,164,6,231,2,0,-1245.0905,162.41078,1079.8787,39.122417,738096.9,1302.2273,110.60443,109.35453,108.89181,108.89181,0,1,-25.432707,0,0,2.7620416,2.7620425,0,7,255,0,0,0,1,0,3,0
True,33337359,15999.99,0,5587.3076,-1.8528461,0.06418729,12.960469,0.037670135,-0.31305063,40.418045,-0.010135859,-0.006261775,0.01424154,-2.2272508,0.0035539395,0.040852338,0.23313238,0.25425553,0.34576443,0.35915402,0.27948132,0.27608755,0.33216265,0.32214946,128.49237,128.49808,129.35628,129.30113,0,0,0,0,0,0,0,0,0,0,0,0,-0.010292216,-0.007584736,-0.015600344,-0.008741545,0.27967077,0.2761917,0.3325288,0.32226804,-0.004068874,-0.0014777742,0.012216244,0.013808165,164,6,231,2,0,-1248.2732,162.3649,1077.442,40.419277,752283.5,1286.5927,110.627335,109.419754,109.04751,109.04751,0,1,-21.625263,0,0,2.8627918,2.8627925,0,7,255,0,0,0,1,0,1,0
True,33337468,15999.99,0,5788.947,-0.64704704,0.30347827,12.450233,-0.013103485,-0.3250875,41.92623,0.005041052,-0.002468726,-0.00093909516,-2.2276688,0.0021498704,0.041752648,0.25093192,0.25728172,0.35508052,0.37009358,0.28796965,0.3155293,0.29703546,0.29365242,133.39241,133.69489,133.78043,133.76689,0,0,0,0,0,0,0,0,0,0,0,0,0.0024673874,0.005848963,-0.0011268286,0.0063894982,0.28798023,0.3155835,0.29703757,0.2937219,-0.00188547,-0.0011065602,0.013323851,0.015108798,164,6,231,2,0,-1252.2228,162.31284,1074.4004,41.927498,752280,1241.9331,110.646675,109.49846,109.223755,109.223755,0,1,-16.890034,0,0,2.9838047,2.9838054,0,7,255,0,0,0,1,0,255,0
True,33337593,15999.99,0,5981.024,-0.3703375,-0.38475308,12.014755,-0.020641327,-0.3143056,43.34051,-0.0048553008,-0.002300388,-0.006681913,-2.2279203,0.0038784633,0.04139862,0.24322313,0.237663,0.35206944,0.35179916,0.24371807,0.28013268,0.31432208,0.30691203,137.37045,137.80437,138.461,138.38234,0,0,0,0,0,0,0,0,0,0,0,0,0.0047899033,0.007420014,0.001031287,0.0076901955,0.24376513,0.28023094,0.31432378,0.30700836,-0.002831079,-0.00351312,0.012965858,0.012933724,164,6,231,2,0,-1256.2108,162.25949,1071.3236,43.341656,752286.6,1201.752,110.67814,109.58135,109.39247,109.39247,0,1,-12.105217,0,0,3.1019106,3.1019108,0,7,255,0,0,0,1,0,254,0
True,33337703,15999.99,0,6156.352,-0.1202755,0.15754056,11.6111965,-0.019573212,-0.3356499,44.670567,0.021690672,-0.0040073413,-0.00427859,-2.2283046,0.0024707844,0.041383255,0.22683069,0.22133948,0.3450647,0.33880484,0.29916382,0.32074928,0.26145682,0.25928727,142.21564,142.4928,142.07932,142.086,0,0,0,0,0,0,0,0,0,0,0,0,0.0046671797,0.007988511,0.00065511395,0.0059568966,0.29920024,0.32084876,0.26145765,0.2593557,-0.004841879,-0.0055154674,0.012133051,0.011388797,164,6,231,2,0,-1260.2239,162.20732,1068.2252,44.67183,753015.4,1169.1321,110.70698,109.65261,109.54617,109.54617,0,1,-7.2890368,0,0,3.2170572,3.2170577,0,7,255,0,0,0,1,0,252,0
True,33337812,15999.99,0,6318.5337,-1.3090849,-1.0909357,11.1514225,-0.066488266,-0.31644005,45.752556,0.023760952,-0.06628962,-0.035834312,-2.229861,0.0058903033,0.039474178,0.20727327,0.18650305,0.30701125,0.3083358,0.29722556,0.255662,0.3436018,0.30516377,145.47672,145.28156,146.24344,146.19229,0,0,0,0,0,0,0,0,0,0,0,0,-0.2053079,-0.19680105,-0.0016594882,0.00053763605,0.36124006,0.3226356,0.34360582,0.30516425,-0.0072409175,-0.0097887255,0.0076087713,0.007766258,164,6,231,2,0,-1263.7174,162.15712,1065.5237,45.753696,752742.6,1138.2592,110.7447,109.72662,109.67704,109.67704,0,1,-3.0937965,0,0,3.3147082,3.314709,0,7,255,0,0,0,1,-110,250,0
True,33337921,15999.99,0,6505.7104,-5.6980486,-0.6612121,10.04079,0.15808678,-0.37119818,46.778767,0.04498776,-0.25987825,-0.050386548,-2.2487214,0.006941439,0.03388391,0.24708185,0.251746,0.30556852,0.3120114,0.80075455,0.54787403,0.30606404,0.20264293,154.03154,152.4356,148.63399,148.62718,0,0,0,0,0,0,0,0,0,0,0,0,-0.61992705,-0.5830378,-0.09745725,-0.089252055,1.0126784,0.8000619,0.3212057,0.22142738,-0.0023577437,-0.0017856099,0.007437244,0.008203253,164,6,231,2,0,-1267.4406,162.09277,1062.5917,46.780502,632217.44,929.06714,110.85359,109.87048,109.81949,109.81949,0,1,1.4101144,0,0,3.4170496,3.4170506,0,7,249,0,0,0,1,-122,250,0
True,33338015,15999.99,0,6525.446,-7.072983,-0.057020724,9.999095,0.5851917,-0.32196474,47.811996,-0.0489225,-0.14498545,-0.016073817,-2.274511,0.009290446,0.03093803,0.2949389,0.33924302,0.3489423,0.37819985,0.17583284,0.108695924,0.21330594,0.15218593,150.28531,150.19926,150.9774,150.92384,0,0,0,0,0,0,0,0,0,0,0,0,-0.08427998,-0.07616807,-0.1620155,-0.14343871,0.19498795,0.1327267,0.267859,0.20912968,0.0035127066,0.008947335,0.012594067,0.016072571,164,6,231,2,0,-1271.3638,162.01172,1059.402,47.816658,587072.9,859.3338,110.98528,109.997,109.98952,109.98952,0,1,6.214731,0,0,3.5239341,3.5239353,0,7,193,0,0,0,1,0,252,0
True,33338125,15999.99,0,6569.9404,-5.86565,0.7792693,6.29853,0.2090931,-0.23408514,48.414154,0.03246889,-0.0049396213,0.016186697,-2.2799659,0.008689459,0.031272735,0.3129383,0.3504656,0.38236243,0.43540064,0.107279375,0.09694804,0.13012342,0.11815053,151.51152,151.42416,151.9211,151.82121,0,0,0,0,0,0,0,0,0,0,0,0,-0.04715596,-0.04347818,-0.05165075,-0.035076044,0.11718596,0.106251,0.13999966,0.12324722,0.0057206303,0.010323968,0.016567472,0.02287332,164,6,231,2,0,-1275.189,161.94247,1056.1833,48.415173,369177.66,536.7413,110.99027,110.03313,110.08187,110.08187,0,1,10.963298,0,0,3.6277752,3.6277764,0,7,134,0,0,0,1,0,1,0
True,33338250,15999.99,0,6617.3447,-2.2290082,0.08090203,4.495828,0.023691177,-0.16746664,48.857014,-0.0131586455,-0.002220962,0.0034188754,-2.2798293,0.010481365,0.03257311,0.3069783,0.3326677,0.35846606,0.38866854,0.07222176,0.07107745,0.106326625,0.10341792,152.49756,152.4853,153.01523,152.99362,0,0,0,0,0,0,0,0,0,0,0,0,-0.04149268,-0.040066406,-0.009302658,-0.0008117045,0.08329241,0.08159241,0.1067328,0.1034211,0.0049895346,0.008140765,0.013726369,0.01731722,164,6,231,2,0,-1279.1011,161.8705,1052.8417,48.857307,321245.94,463.66034,110.982185,110.04512,110.12469,110.12469,0,1,15.849249,0,0,3.7335486,3.7335503,0,7,119,0,0,0,1,-9,4,0
True,33338375,15999.99,0,6618.289,-7.3215923,0.36423606,1.7695873,0.06065941,-0.09832537,49.180656,-0.0047686193,-0.31702065,-0.03365375,-2.3014133,0.010543577,0.028737035,0.2868954,0.33166972,0.30621776,0.33595106,0.048251104,0.01096063,0.062022775,0.005807923,152.1542,153.21394,152.56316,153.30452,0,0,0,0,0,0,0,0,0,0,0,0,-0.5244388,-0.4547083,-0.09245789,-0.08185811,0.5266538,0.4548404,0.11133412,0.0820639,0.0025260411,0.008018345,0.007514432,0.011049505,164,6,231,2,0,-1284.7233,161.7749,1047.9486,49.18079,67666.03,97.6276,111.05722,110.18283,110.17148,110.17148,0,1,22.951725,0,0,3.885442,3.8854437,0,7,39,0,0,0,1,-127,4,0
True,33338484,15999.99,0,6565.275,-16.828787,3.319422,-1.2112103,0.47441864,-0.014136851,48.95118,-0.09313501,-0.56972194,-0.06493759,-2.3478796,0.005961981,0.023360133,0.3300794,0.42435044,0.28032935,0.36581808,-0.00882562,-0.0047918316,-0.0060008676,-0.008996768,150.0621,152.89427,150.35117,153.04791,0,0,0,0,0,0,0,0,0,0,0,0,-0.5831226,-0.4862075,-0.23489991,-0.19665399,0.5831894,0.4862311,0.23497654,0.19685969,0.007823266,0.019387156,0.0044364966,0.014600474,164,6,231,2,0,-1288.4592,161.72324,1044.4882,48.953476,-55061.81,-80.076324,111.26456,110.49036,110.20436,110.20436,0,1,27.793245,0,0,3.9891958,3.9891973,0,7,0,0,0,0,1,-127,6,0
True,33338578,15999.99,0,6515.045,-22.304146,4.109565,-1.6184998,1.3903694,0.06506479,48.62452,-0.023807764,-0.68066466,-0.015789028,-2.4157643,-0.0007425603,0.018155126,0.3285028,0.4815408,0.34308833,0.46856964,-0.019189408,-0.0039949645,-0.0062381034,-0.009875518,148.3972,151.93036,149.0006,152.24539,0,0,0,0,0,0,0,0,0,0,0,0,-0.85847056,-0.6869858,-0.4677185,-0.3824404,0.858685,0.6869974,0.46776012,0.38256788,0.0076298714,0.026402488,0.011898074,0.026816867,164,6,231,2,0,-1291.9513,161.71869,1040.9463,48.644436,-54230.977,-79.46989,111.48648,110.86896,110.32906,110.32906,0,1,32.52201,0,0,4.0911403,4.091141,0,7,0,0,0,0,1,-127,8,0
True,33338703,15999.99,0,6446.434,-23.111744,1.548173,-1.4406786,2.6796188,0.123724476,48.15867,-0.020719733,-0.71822166,-0.011741399,-2.4990537,-0.0011420145,0.01728432,0.27753854,0.44777015,0.24715395,0.4113669,-0.014002784,-0.005180269,-0.010963959,-0.014711372,146.62265,150.25854,147.41249,150.81439,0,0,0,0,0,0,0,0,0,0,0,0,-1.1429012,-0.9376352,-0.7995175,-0.6450796,1.142987,0.9376495,0.7995927,0.64524734,0.001378268,0.022259966,0.00049218535,0.020015892,164,6,231,2,0,-1295.7648,161.74045,1036.6505,48.233315,-53095.99,-78.63389,111.83946,111.42305,110.55556,110.55556,0,1,37.96928,0,0,4.209737,4.209738,0,7,0,0,0,0,1,-127,11,0
True,33338812,15999.99,0,6378.173,-25.98461,2.4039016,-1.3783484,3.6608086,0.14389962,47.650684,-0.068285525,-0.7620197,-0.022899982,-2.5756881,-0.0048625944,0.015237633,0.28552264,0.48256835,0.21867022,0.4106448,-0.011289226,-0.005116828,-0.0068740747,-0.013980501,144.81902,148.63673,145.82722,149.39412,0,0,0,0,0,0,0,0,0,0,0,0,-1.3556132,-1.0758066,-1.0218793,-0.80577075,1.3556602,1.0758188,1.0219024,0.805892,0.0023576505,0.026528537,-0.0028943196,0.019930039,164,6,231,2,0,-1298.8202,161.77234,1032.7971,47.791313,-51982.625,-77.805084,112.577896,112.34708,110.85017,110.85017,-0.22180176,1,42.746048,0,0,4.3121758,4.3121767,0,7,0,0,0,0,1,-127,12,0
True,33338921,15999.99,0,6299.8267,-25.61563,2.1724007,-1.2412262,4.4444923,0.18075964,47.11323,-0.02144606,-0.669246,0.012551759,-2.6480587,-0.007913133,0.015585762,0.32774445,0.55683166,0.24207847,0.46526685,-0.015647443,-0.004319781,-0.010939652,-0.01720851,143.08398,146.529,144.29257,147.43124,0,0,0,0,0,0,0,0,0,0,0,0,-1.5797176,-1.3066534,-1.205984,-0.9660769,1.5797951,1.3066605,1.2060336,0.96623015,0.007536847,0.035638146,-0.00011125207,0.026424192,164,6,231,2,0,-1301.6041,161.82802,1028.8453,47.322754,-50715.418,-76.85088,113.94728,114.14768,111.27237,111.27237,-1.2949581,1,47.34586,0,0,4.413853,4.413854,0,6,0,0,0,0,1,-127,14,0
True,33339031,15999.99,0,6227.574,-25.617067,1.9883264,-1.3201513,5.063553,0.21467173,46.512234,-0.057128977,-0.6797008,-0.033077504,-2.7194366,-0.010326852,0.01585043,0.33386922,0.4957945,0.26310492,0.4745742,-0.041550364,-0.016573949,-0.018502695,-0.021823995,141.80377,145.39777,142.32622,145.55962,0,0,0,0,0,0,0,0,0,0,0,0,-1.1675539,-0.9973135,-1.37431,-1.0677999,1.168293,0.99745125,1.3744346,1.0680228,0.008288149,0.028150938,0.0023886375,0.027530767,164,6,231,2,0,-1304.2921,161.90211,1024.5488,46.787533,-49538.88,-75.95423,116.043816,116.77438,112.17495,112.17495,-3.3792133,1,52.16422,0,0,4.521581,4.5215826,0,6,0,0,0,0,1,0,18,0
True,33339156,15999.99,0,6222.1294,-24.032503,1.1076322,-0.4943447,5.614873,0.21327664,45.99076,0.01957792,-0.5580897,0.010833111,-2.7887568,-0.012219957,0.015885336,0.27820575,0.46157038,0.25475636,0.46698165,0.094493166,0.0078025097,0.20299971,0.007429786,142.45024,144.05304,143.74661,144.1293,0,0,0,0,0,0,0,0,0,0,0,0,-1.1512727,-0.9827952,-1.5148222,-1.2452914,1.155144,0.9828261,1.5283636,1.2453135,0.0014601126,0.02395279,0.0013960563,0.02662807,164,6,231,2,0,-1306.7446,161.99597,1020.0656,46.332737,60624.645,93.07085,116.32202,117.237305,113.60857,113.60857,-5.978118,1,57.00203,0,0,4.6314187,4.6314206,0,6,35,0,0,0,1,0,22,0
True,33339265,15999.99,0,6226.084,-27.23011,2.5476618,1.0965204,5.978387,0.16541618,45.646355,-0.09922253,-0.64136875,-0.020146139,-2.8593647,-0.017381486,0.015600477,0.3094833,0.49441978,0.22890322,0.43476087,0.14183734,0.020772342,0.3164866,0.06185043,142.37595,144.06894,144.0313,144.15765,0,0,0,0,0,0,0,0,0,0,0,0,-0.71315515,-0.55850667,-1.5627497,-1.2217615,0.72712314,0.55889285,1.594475,1.223326,0.005296815,0.02798231,-0.0016776919,0.022797257,164,6,231,2,0,-1308.9995,162.10014,1015.3282,46.036484,107699.28,165.1629,116.70331,117.74182,115.49469,115.49469,-8.847777,1,62.20044,0,0,4.745082,4.745084,0,6,50,0,0,0,1,36,26,0
True,33339359,15999.99,0,6200.9595,-12.3714285,1.3067081,1.0705578,7.144512,0.09294176,45.378937,0.014155066,-0.40830085,0.04881161,-2.908773,-0.020356813,0.022146381,0.31008407,0.45213822,0.2904353,0.44574806,0.061170023,0.0316475,0.28266403,0.13292922,141.9203,143.51059,143.37103,143.57825,0,0,0,0,0,0,0,0,0,0,0,0,0.021536298,0.18090436,-1.7119133,-1.5947975,0.06485047,0.18365172,1.7350925,1.6003278,0.0053705126,0.022795781,0.0056380183,0.024103552,164,6,231,2,0,-1310.6865,162.20926,1011.3191,45.938004,120593.38,185.71011,116.62661,117.73229,117.72858,117.72858,-10.779953,1,66.33857,0,0,4.839704,4.8397055,0,6,54,0,0,0,1,127,29,0
True,33339484,15999.99,0,6202.1245,-8.217733,1.5366284,0.64625573,7.66403,0.01779747,45.19882,-0.062316507,-0.09534764,0.022962999,-2.9408844,-0.023269715,0.026945453,0.35668853,0.44696847,0.35728347,0.45131484,0.05616154,0.040993243,0.27299568,0.20455767,142.6182,142.87897,143.5486,143.44772,0,0,0,0,0,0,0,0,0,0,0,0,0.038977146,0.22013116,-1.7146719,-1.5714434,0.068361804,0.22391555,1.7362678,1.5847013,0.011087313,0.022161625,0.013585772,0.024765402,164,6,231,2,0,-1312.874,162.361,1005.8319,45.84398,183442.11,282.48297,116.46096,117.6676,121.50412,121.50412,0,1,71.95674,0,0,4.968471,4.9684725,0,6,74,0,0,0,1,127,30,0
True,33339578,15999.99,0,6206.1167,-8.891358,1.7764862,1.0541615,6.778699,0.011098444,45.31017,-0.013929043,0.122593835,0.02295311,-2.9394875,-0.026853088,0.029244564,0.34105453,0.41742754,0.36029604,0.45415658,0.05695889,0.06117611,0.23161705,0.21569735,143.16034,142.6135,143.77733,143.35347,0,0,0,0,0,0,0,0,0,0,0,0,0.0798745,0.23790266,-1.4870296,-1.3305998,0.09810327,0.2456424,1.5049597,1.3479693,0.009169545,0.018537946,0.013943944,0.025103264,164,6,231,2,0,-1314.3136,162.48291,1001.9999,45.81443,192819.02,296.69122,116.35802,117.63759,123.66664,123.66664,0,1,75.84746,0,0,5.0578413,5.0578427,0,6,77,0,0,0,1,86,30,0
True,33339703,15999.99,0,6214.5376,-16.997625,-0.5116582,1.5956452,3.308899,-0.0054567456,45.70704,0.02520755,0.33713752,-0.05504463,-2.90777,-0.026986381,0.02496901,0.31759617,0.39280993,0.30591384,0.40103477,0.21688743,0.10396355,0.12221112,0.14320923,145.09834,142.25337,143.95822,142.91856,0,0,0,0,0,0,0,0,0,0,0,0,-0.93591726,-0.8173213,-0.7058585,-0.5928866,0.9607191,0.82390684,0.71636015,0.60993725,0.006291993,0.015518192,0.0074782968,0.018787477,164,6,231,2,0,-1316.2094,162.6602,996.4956,45.826656,183295.73,281.64117,116.41289,117.799515,124.37741,124.37741,0,1,81.57367,0,0,5.1849594,5.1849613,0,6,74,0,0,0,1,0,29,0
True,33339796,15999.99,0,6207.858,-14.736513,-1.2964826,1.6940742,0.45315456,-0.039874554,45.954952,-0.0022705207,0.28818786,0.008450772,-2.8751867,-0.025640486,0.02142945,0.26162753,0.3430245,0.2762497,0.37139854,0.0563967,0.050078563,0.050619848,0.100010425,143.88437,142.4379,143.82265,143.1355,0,0,0,0,0,0,0,0,0,0,0,0,-0.20172407,-0.19214635,-0.030248014,-0.025574278,0.20945928,0.19856505,0.05896873,0.103228524,-0.00057347864,0.009411193,0.0039514564,0.015263949,164,6,231,2,0,-1317.4095,162.77211,992.44495,45.957195,192806.5,296.6151,116.47959,117.94243,123.988495,123.988495,0,1,85.58928,0,0,5.277071,5.2770734,0,6,77,0,0,0,1,0,27,0
True,33339906,15999.99,0,6238.907,8.177442,1.5295149,1.7508173,-0.3822527,-0.09278405,46.132046,-0.063118905,0.46895978,0.07554521,-2.8346288,-0.031577274,0.028170388,0.349004,0.3410223,0.29334614,0.3094902,0.034667302,0.119685285,0.023673164,0.13565953,144.58807,143.33836,144.56056,143.73975,0,0,0,0,0,0,0,0,0,0,0,0,0.4063604,0.47789684,0.18031217,0.20422582,0.40783647,0.49265602,0.18185955,0.24517687,0.010144681,0.0091655925,0.0059840903,0.007903505,164,6,231,2,0,-1318.8706,162.90987,987.4419,46.13372,198761.53,304.25256,116.51476,117.92926,123.47738,123.47738,0,1,90.54363,0,0,5.390285,5.3902884,0,6,79,0,0,0,1,106,23,0
True,33340015,15999.99,0,6297.1055,12.562227,-0.8570146,1.9845588,-1.1548023,-0.048784554,46.277573,0.065399386,0.44259727,0.042895354,-2.7846138,-0.030801965,0.032149225,0.32623684,0.2799046,0.35720134,0.3072867,0.075271755,0.23545381,0.08010814,0.2564346,145.26698,144.95345,145.6207,145.58089,0,0,0,0,0,0,0,0,0,0,0,0,0.59719795,0.6816797,0.34925634,0.40108377,0.6019229,0.7211974,0.3583257,0.47605345,0.0073519126,0.0016685054,0.013576001,0.007641528,164,6,231,2,0,-1320.45,163.06393,982.6156,46.292004,220156.52,333.93524,116.65852,117.99379,123.136086,123.136086,0,1,95.366554,0,0,5.5002255,5.5002284,0,6,86,0,0,0,1,105,18,0
True,33340140,15999.99,0,6333.013,17.898773,-0.30174953,2.5976233,-1.8585453,-0.060005367,46.448174,0.0037772874,0.49076134,0.026458755,-2.7201207,-0.031784747,0.035927758,0.33909965,0.22783297,0.34675312,0.25184968,0.07605955,0.326673,0.07652375,0.2630757,145.97737,146.49074,146.35823,146.18327,0,0,0,0,0,0,0,0,0,0,0,0,0.67730504,0.81370836,0.47504205,0.5626619,0.6815623,0.87683326,0.48116612,0.62112576,0.008929748,-0.0047189333,0.012333792,0.0010504723,164,6,231,2,0,-1322.536,163.23282,977.0056,46.48538,244986.3,369.46198,116.98402,118.18219,122.88746,122.88746,0,1,101.018814,0,0,5.6293054,5.629308,0,6,94,0,0,0,1,68,9,0
True,33340265,15999.99,0,6351.3843,18.285835,-0.62541467,3.2207713,-1.7026291,-0.053873777,46.715927,-0.013446299,0.22094415,0.015442156,-2.6744206,-0.031552717,0.03648429,0.33772123,0.207999,0.323054,0.19683318,0.05542616,0.15820576,0.095517345,0.21962552,146.17378,146.29022,146.79036,147.06082,0,0,0,0,0,0,0,0,0,0,0,0,0.28289986,0.32850504,0.39013097,0.4617165,0.2882783,0.3646157,0.40165377,0.51129,0.008760661,-0.0071518943,0.009516135,-0.0054905824,164,6,231,2,0,-1324.8373,163.40129,971.66254,46.746967,257397.95,386.9878,117.15909,118.25868,122.76172,122.76172,0,1,106.52287,0,0,5.754183,5.7541857,0,6,98,0,0,0,1,0,252,0
True,33340375,15999.99,0,6426.771,14.11841,0.03514385,4.7124043,-0.64645386,-0.12289858,47.212128,0.0033446532,-0.0098343445,-0.04861804,-2.6646073,-0.03381586,0.034450367,0.39170662,0.24567854,0.38069254,0.24492294,0.105574995,0.17650284,0.13624704,0.16953124,147.80518,148.6418,148.3601,148.70218,0,0,0,0,0,0,0,0,0,0,0,0,0.14669055,0.15797974,0.13008286,0.14482307,0.18073238,0.23687729,0.18837412,0.22296764,0.015382856,-0.002529882,0.016368933,0.00022693351,164,6,231,2,0,-1327.0328,163.55368,967.1132,47.216713,417654.78,620.7384,117.22133,118.25988,122.58728,122.58728,-7.1043744,1,111.27738,0,0,5.861794,5.861798,0,6,149,0,0,0,1,0,238,0
True,33340484,15999.99,0,6499.6484,4.618762,-0.6851875,5.1108704,-0.097473145,-0.14464915,47.80041,0.0015169019,-0.026028428,-0.026894173,-2.6677358,-0.032171372,0.030062314,0.34045562,0.26591855,0.3991519,0.29600132,0.10430446,0.10978448,0.15394716,0.1519107,149.55574,149.75914,150.31215,150.38577,0,0,0,0,0,0,0,0,0,0,0,0,0.030009298,0.03156554,0.0097938785,0.016104098,0.10853561,0.11423228,0.15425839,0.15276192,0.009096079,-4.7113746E-05,0.018563613,0.006299775,164,6,231,2,0,-1329.393,163.70947,962.45624,47.800735,429779.25,631.5467,117.19898,118.2267,122.31299,122.31299,-14.578388,1,116.17684,0,0,5.971726,5.9717298,0,6,153,0,0,0,1,0,225,0
True,33340593,15999.99,0,6609.623,0.79880595,0.3575062,5.82339,0.0058612823,-0.18913013,48.42058,0.023881169,-0.009817151,-0.045235626,-2.6695106,-0.034267392,0.02654459,0.34562203,0.2902294,0.3718095,0.33354542,0.17616811,0.19130595,0.1740777,0.16869749,152.49898,152.70253,152.66399,152.6771,0,0,0,0,0,0,0,0,0,0,0,0,0.003278158,0.0062080743,-0.004538497,0.0007686279,0.1761986,0.19140665,0.17413686,0.16869923,0.009729825,0.002935011,0.015312806,0.010763489,164,6,231,2,0,-1331.7009,163.8612,957.9387,48.420948,558976.9,808.07916,117.17284,118.18922,122.0642,122.0642,-14.7,1,121.19668,0,0,6.0772257,6.0772295,0,6,194,0,0,0,1,0,217,0
True,33340703,15999.99,0,6765.61,1.1043537,-1.2870408,8.010349,0.034015656,-0.2185927,49.310875,-0.0007331702,0.06233057,-0.003259254,-2.668029,-0.031199804,0.023376726,0.29813796,0.26668552,0.3563742,0.32001618,0.1953571,0.21003222,0.23556165,0.26463962,155.75743,155.6383,156.523,156.56953,0,0,0,0,0,0,0,0,0,0,0,0,0.11026515,0.11390002,0.004760231,0.009634278,0.22432745,0.23892833,0.23560975,0.2648149,0.003905125,4.696846E-05,0.013477661,0.0091549605,164,6,231,2,0,-1334.1132,164.01166,953.2224,49.311367,682346,963.4845,117.17475,118.184296,121.86513,121.86513,-14.7,1,126.23371,0,0,6.185692,6.185695,0,6,233,0,0,0,1,28,211,0
True,33340812,15999.99,0,6905.392,2.193989,0.2727754,8.876805,-0.18799782,-0.2870189,50.35901,-0.007048676,0.073354654,0.0069089774,-2.657245,-0.03385232,0.024153637,0.2958224,0.27968937,0.36280727,0.3403958,0.20840277,0.27107993,0.19657302,0.21988885,159.35052,159.84492,159.43939,159.38304,0,0,0,0,0,0,0,0,0,0,0,0,0.015274237,0.018778123,0.048181027,0.054666758,0.20896176,0.27172956,0.20239161,0.22658235,0.0036210865,0.0016421042,0.014242511,0.011577949,164,6,231,2,0,-1336.6797,164.16396,948.26495,50.360176,752251.06,1040.9762,117.196686,118.19997,121.7074,121.7074,-14.7,1,131.54065,0,0,6.2977276,6.297731,0,6,255,0,0,0,1,0,209,0
True,33340921,15999.99,0,7077.7383,1.7582695,-2.2712045,9.10461,-0.16661835,-0.27484924,51.371025,0.022218768,0.014410744,-0.014558539,-2.6535351,-0.02824877,0.023214325,0.2521724,0.2374935,0.3307859,0.31471282,0.20631535,0.21573406,0.3154585,0.33830488,162.26814,162.3177,163.98839,164.18452,0,0,0,0,0,0,0,0,0,0,0,0,0.029309442,0.03143527,0.035149977,0.039495066,0.20838682,0.2180123,0.31741077,0.3406025,-0.0017333031,-0.003533911,0.010435402,0.0085244365,164,6,231,2,0,-1339.3007,164.30891,943.2686,51.372025,752276.7,1015.08044,117.21685,118.23291,121.57794,121.57794,0,1,137.29474,0,0,6.4086823,6.408685,0,6,255,0,0,0,1,0,212,0
True,33341031,15999.99,0,7167.2134,1.2688541,1.4103494,10.230572,-0.05480385,-0.32805336,52.41233,-0.016255239,-0.0038094444,0.0047018616,-2.6530964,-0.032495275,0.022422563,0.31440428,0.2998732,0.3801912,0.3555785,0.20969713,0.1884757,0.17759822,0.18313137,165.64503,165.3808,165.4988,165.55911,0,0,0,0,0,0,0,0,0,0,0,0,0.010460774,0.01326134,0.0048900726,0.011867042,0.20995788,0.18894167,0.17766553,0.18351546,0.0059004575,0.0041179806,0.016309328,0.013383064,164,6,231,2,0,-1342.0111,164.44836,938.1444,52.41338,752284.1,1002.8583,117.24059,118.25086,121.475784,121.475784,0,1,142.75804,0,0,6.5203676,6.5203705,0,6,255,0,0,0,1,0,223,0
True,33341156,15999.99,0,7334.4775,0.34202504,-1.3335824,8.696178,-0.0124053955,-0.29715353,53.375397,0.044951968,0.0010728651,0.004937225,-2.6535094,-0.028790213,0.023612345,0.2677815,0.2694248,0.3600227,0.35442883,0.22268665,0.2751568,0.25736153,0.25354463,168.77094,169.51707,169.53665,169.49773,0,0,0,0,0,0,0,0,0,0,0,0,0.044595983,0.049122643,-0.0012735941,0.005391953,0.22710823,0.27950725,0.2573647,0.25360194,0.00018140674,0.00038298592,0.013911445,0.013246376,164,6,231,2,0,-1344.7655,164.59676,932.953,53.37622,752279.6,979.92957,117.25804,118.26015,121.37782,121.37782,0,1,148.29785,0,0,6.6314864,6.6314893,0,6,255,0,0,0,1,9,239,0
True,33341250,15999.99,0,7438.323,4.310501,-0.9144176,8.6955805,0.008367538,-0.3054601,54.319313,-0.030536212,0.19423175,0.014448981,-2.6450164,-0.026844867,0.023494229,0.29295644,0.25629398,0.34065318,0.32284003,0.14783023,0.22919688,0.18255001,0.25579125,171.2365,171.41537,172.01921,172.0457,0,0,0,0,0,0,0,0,0,0,0,0,0.34378675,0.37734416,0.03524847,0.042007327,0.37422335,0.44149727,0.18592192,0.25921762,0.003269527,-0.0012277253,0.011608548,0.009490702,164,6,231,2,0,-1347.5151,164.72197,927.8103,54.32017,752281.4,966.00415,117.323044,118.31586,121.30254,121.30254,0,1,153.79675,0,0,6.7397847,6.739788,0,6,255,0,0,0,1,127,3,0
True,33341359,15999.99,0,7587.421,11.144483,1.1276478,8.057383,-0.62412834,-0.2834633,55.165913,0.00061744265,0.4401779,0.04120461,-2.6092296,-0.03060788,0.026052859,0.3382368,0.27797508,0.41077015,0.3421328,0.18628427,0.4294264,0.16243087,0.31331393,174.9339,176.18974,175.05574,175.03857,0,0,0,0,0,0,0,0,0,0,0,0,0.5912383,0.6801861,0.1775245,0.21010882,0.6198908,0.8044005,0.24062157,0.37724173,0.008823905,0.001431819,0.01994494,0.011784464,164,6,231,2,0,-1350.43,164.86261,922.5826,55.17017,752268.6,947.35345,117.55348,118.5002,121.2706,121.2706,0,1,159.35457,0,0,6.8491116,6.849115,0,6,255,0,0,0,1,127,23,0
True,33341468,15999.99,0,7742.3374,14.407275,-0.6397102,7.4211154,-1.8333111,-0.25413817,55.832138,0.02200534,0.5069462,0.034885734,-2.558838,-0.029976835,0.029121583,0.3034369,0.2234707,0.38840967,0.30847305,0.21789274,0.66628236,0.21869127,0.4450121,177.4529,181.06563,178.24081,178.87946,0,0,0,0,0,0,0,0,0,0,0,0,0.80698913,0.9541788,0.3925584,0.46136576,0.83588797,1.1637824,0.44936395,0.6410102,0.0045551285,-0.0052540377,0.017286442,0.0077825747,164,6,231,2,0,-1353.3986,165.00804,917.5798,55.862804,650792.94,802.9505,117.86523,118.767075,121.32797,121.32797,0,1,164.79417,0,0,6.953889,6.9538927,0,6,255,0,0,0,1,127,43,0
True,33341578,15999.99,0,7775.952,26.295265,4.704968,7.7725496,-2.571436,-0.2137109,56.42147,-0.25416055,0.71949553,0.12388452,-2.494708,-0.040480766,0.035347436,0.5053123,0.3914491,0.3969753,0.25085083,0.102369025,0.2974207,0.1505536,0.4547814,178.43031,177.79343,180.04752,180.70624,0,0,0,0,0,0,0,0,0,0,0,0,0.7013419,0.8920374,0.47142932,0.62884754,0.70877355,0.94031364,0.49488583,0.77606404,0.02931846,0.015351266,0.018304836,0.00093171746,164,6,231,2,0,-1356.6786,165.17438,912.4944,56.480442,752273.9,924.0165,118.45871,119.23042,121.56995,121.56995,0,1,170.48781,0,0,7.061644,7.061649,0,6,255,0,0,0,1,118,61,0
True,33341703,15999.99,0,7834.0117,33.979248,10.492954,8.953719,-2.7115402,-0.021316528,57.136642,-0.11331188,0.54636335,9.638816E-05,-2.4110568,-0.068944156,0.038677372,0.757399,0.5083867,0.7277523,0.4718721,0.0853288,0.24054779,0.12619674,0.32545775,180.22128,179.79636,181.32852,181.50542,0,0,0,0,0,0,0,0,0,0,0,0,0.29454276,0.36111552,0.4114915,0.59817326,0.30665362,0.4338982,0.4304078,0.6809802,0.06024102,0.029695578,0.05763177,0.027209505,164,6,231,2,0,-1360.9666,165.5551,906.8058,57.200947,752275.9,917.39557,119.136154,119.62951,122.08273,122.08273,-0.12892818,1,177.13133,0,0,7.1871915,7.1871963,0,6,255,0,0,0,1,0,74,0
True,33341812,15999.99,0,7962.599,26.16359,4.04626,8.253373,-2.477438,-0.08537996,57.820137,-0.047353156,0.28470704,-0.04280953,-2.3672903,-0.07781786,0.03314101,0.6040807,0.37694183,0.65938264,0.43009925,0.12436417,0.3463089,0.19917296,0.3701654,182.26007,183.9596,183.88618,184.74498,0,0,0,0,0,0,0,0,0,0,0,0,0.3325955,0.38947618,0.38294947,0.5220048,0.3550862,0.52117324,0.4316482,0.6399308,0.041434012,0.013571713,0.049503125,0.022243023,164,6,231,2,0,-1364.9534,165.99579,902.1608,57.87325,752278,902.22675,119.34715,119.746414,122.37224,122.37224,-2.355504,1,182.9571,0,0,7.2938595,7.2938643,0,6,255,0,0,0,1,0,79,0
True,33341921,15999.99,0,8000.7354,21.25099,3.8693986,8.040543,-1.1661625,-0.1784823,58.629303,-0.05002273,0.028095754,-0.07049365,-2.3508027,-0.08660304,0.027296694,0.59362817,0.388196,0.62514585,0.4088563,0.1064479,0.21391805,0.14087452,0.18815249,183.83763,185.21129,184.71198,185.1032,0,0,0,0,0,0,0,0,0,0,0,0,0.18629746,0.21261932,0.14367048,0.21269877,0.21456444,0.30160886,0.20121342,0.28397557,0.040151842,0.01495222,0.04543262,0.019717395,164,6,231,2,0,-1369.2726,166.49489,897.554,58.64117,752251.4,898.07227,119.533905,119.85452,122.57732,122.57732,-6.4183254,1,188.97536,0,0,7.4025807,7.4025855,0,6,255,0,0,0,1,0,79,0
True,33342031,15999.99,0,8127.2456,8.415957,0.65207136,7.1166306,-0.28749657,-0.19711137,59.388374,0.02657684,-0.034191262,-0.10222948,-2.3528662,-0.08745861,0.016515693,0.4462054,0.31096068,0.5318938,0.3795503,0.1921037,0.20625302,0.20678432,0.2075734,187.24504,187.63177,187.77689,187.89008,0,0,0,0,0,0,0,0,0,0,0,0,0.06436925,0.068408124,0.020831797,0.051676918,0.20260116,0.21730159,0.207831,0.21390937,0.022068024,0.005478043,0.03434564,0.016233131,164,6,231,2,0,-1373.725,167.03078,893.0473,59.389393,752270.56,884.277,119.58519,119.88445,122.62311,122.62311,-11.092409,1,195.04181,0,0,7.510294,7.5102983,0,6,255,0,0,0,1,0,75,0
True,33342140,15999.99,0,8245.164,1.7993982,-2.5200455,7.0109987,0.011444092,-0.27165532,60.15783,0.03306576,-0.022586733,-0.053562615,-2.356178,-0.083053224,0.008219143,0.34725857,0.25443655,0.4067393,0.32346752,0.208017,0.18838502,0.24242583,0.24126703,189.90262,189.71458,190.7004,190.79495,0,0,0,0,0,0,0,0,0,0,0,0,0.0053379037,0.007785503,-0.011191434,-0.0017710552,0.20808549,0.18854584,0.24268402,0.24127352,0.009930573,-0.0014555678,0.0194657,0.009565301,164,6,231,2,0,-1378.3734,167.5664,888.39703,60.158443,752277.25,871.3805,119.599686,119.89681,122.63179,122.63179,-14.7,1,201.30363,0,0,7.6206512,7.6206555,0,6,255,0,0,0,1,0,70,0
True,33342234,15999.99,0,8325.757,0.0003142357,-1.9976034,6.526169,0.050186157,-0.2961967,60.816273,0.040058266,-0.0060258815,-0.03006578,-2.3574226,-0.080294736,0.0047940416,0.3156342,0.26620463,0.3966332,0.33988795,0.17982389,0.19213215,0.23043434,0.21961547,191.56773,191.7947,192.65363,192.55193,0,0,0,0,0,0,0,0,0,0,0,0,-0.006966998,-0.004378599,-0.014692263,-0.005599608,0.1799588,0.19218203,0.23090225,0.21968685,0.0060513243,-1.2021512E-05,0.018264163,0.011517573,164,6,231,2,0,-1382.3981,168.00537,884.3721,60.81701,752268.75,863.15686,119.611534,119.9057,122.645905,122.645905,-14.7,1,206.72252,0,0,7.7150097,7.715014,0,6,255,0,0,0,1,0,65,0
True,33342359,15999.99,0,8419.063,-0.27681828,-0.5546186,6.7947893,0.022397995,-0.31010962,61.686317,0.017183036,0.0013188596,-0.032342646,-2.357619,-0.07907169,0.0011834354,0.33725145,0.29245064,0.40723893,0.3873253,0.15731558,0.19315843,0.17431925,0.16599478,194.04718,194.6062,194.53511,194.44957,0,0,0,0,0,0,0,0,0,0,0,0,-0.003951365,-0.0011370057,-0.008752665,0.0025734222,0.1573652,0.19316177,0.17453885,0.16601472,0.008703038,0.0032074824,0.019525107,0.017157521,164,6,231,2,0,-1387.851,168.58003,878.91077,61.687096,752264.06,853.5679,119.62764,119.91812,122.66835,122.66835,-0.35041904,1,214.06674,0,0,7.841323,7.841327,0,6,255,0,0,0,1,0,59,0
True,33342468,15999.99,0,8407.195,-3.387796,-0.96725214,0.13416445,-0.4053669,-0.28602672,61.524033,-0.012464362,-0.021219896,0.017200112,-2.3585567,-0.076061055,-0.000991583,0.2827364,0.26319322,0.350162,0.3174326,0.13238905,0.13474807,0.1721547,0.18351062,193.49762,193.62782,194.39473,194.57164,0,0,0,0,0,0,0,0,0,0,0,0,0.054362085,0.055843093,0.0415833,0.046937384,0.14311567,0.14586121,0.17710564,0.18941823,0.00201587,-0.0003814213,0.012739081,0.008847795,164,6,231,2,0,-1392.3751,169.0438,874.32947,61.526028,752256.25,854.52167,119.64276,119.93356,122.6971,122.6971,0,1,220.19557,0,0,7.9462085,7.946213,0,6,255,0,0,0,1,0,58,0
True,33342578,15999.99,0,8437.114,-1.713091,-1.188836,1.052599,-0.3291149,-0.26476526,61.69155,0.02229992,-0.045223966,0.0002380414,-2.3626597,-0.07396426,0.0012845101,0.29280314,0.28185067,0.35026833,0.34057784,0.13058831,0.16662154,0.20615903,0.20501271,193.72862,194.45956,195.18866,195.33226,0,0,0,0,0,0,0,0,0,0,0,0,0.04338065,0.046813216,0.023515627,0.02899299,0.13760519,0.17307286,0.20749585,0.20705266,0.0032507218,0.001907222,0.012751725,0.011599593,164,6,231,2,0,-1396.9373,169.50516,869.66974,61.692997,752274,851.63525,119.6613,119.94237,122.73942,122.73942,0,1,226.4034,0,0,8.052428,8.052432,0,6,255,0,0,0,1,0,56,0
True,33342687,15999.99,0,8475.826,-3.4201002,-0.22332093,3.3067014,-0.39085007,-0.24729466,62.09958,-0.0055277105,-0.058713812,-0.012623075,-2.3686247,-0.073476546,0.000539694,0.32598266,0.29790172,0.36835915,0.34828952,0.11703801,0.13473639,0.17829017,0.17854269,194.77339,195.2817,196.04167,196.22467,0,0,0,0,0,0,0,0,0,0,0,0,0.052455373,0.05523523,0.026611865,0.03338617,0.12825546,0.14561877,0.18026529,0.18163735,0.0073207356,0.003876146,0.014902588,0.012516454,164,6,231,2,0,-1401.622,169.97183,864.82935,62.101303,752270.2,847.7456,119.68573,119.9572,122.785095,122.785095,0,1,232.8162,0,0,8.16155,8.161553,0,6,255,0,0,0,1,0,56,0
True,33342781,15999.99,0,8542.122,-3.2680445,0.6454185,3.6467266,-0.26166916,-0.23009992,62.531715,0.028398056,-0.0688336,-0.009092277,-2.3758228,-0.075018376,-0.000324253,0.33343688,0.30179644,0.39129502,0.35963064,0.16742903,0.16850923,0.18565808,0.18513134,196.71431,197.02426,197.38123,197.6112,0,0,0,0,0,0,0,0,0,0,0,0,0.050010443,0.05227974,0.015487498,0.024419473,0.17473845,0.17643279,0.18630295,0.1867349,0.008235116,0.004353896,0.017629493,0.01386483,164,6,231,2,0,-1406.3463,170.45595,859.8839,62.53269,752274.4,841.29364,119.71074,119.97268,122.84178,122.84178,0,1,239.32887,0,0,8.271643,8.2716465,0,6,255,0,0,0,1,0,53,0
True,33342906,15999.99,0,8628.026,-0.74845886,0.56466544,5.965724,0.065740585,-0.3127601,63.281044,0.00883032,-0.024511345,-0.008601908,-2.381548,-0.07656347,-0.00037821752,0.29556134,0.28517094,0.35373944,0.3397269,0.1777555,0.16361497,0.1555405,0.15126896,199.32458,199.204,199.23792,199.27779,0,0,0,0,0,0,0,0,0,0,0,0,-0.005853873,-0.0032093725,-0.016546104,-0.011663586,0.17785187,0.16364644,0.15641809,0.15171796,0.0035890602,0.002314508,0.0131644085,0.011498425,164,6,231,2,0,-1411.5265,170.99095,854.4474,63.28185,752268.56,832.9398,119.73021,119.989456,122.892975,122.892975,0,1,246.48006,0,0,8.39132,8.391325,0,6,255,0,0,0,1,0,50,0
True,33343015,15999.99,0,8707.345,0.47463584,-0.29348907,6.486067,0.100328445,-0.30884266,63.951015,-0.03641978,0.059171345,0.015212484,-2.3814244,-0.075238585,-0.00024548176,0.2944238,0.29466894,0.33299157,0.32821107,0.1134437,0.12912008,0.14710957,0.16030529,200.60855,200.59317,201.37904,201.33588,0,0,0,0,0,0,0,0,0,0,0,0,0.10597209,0.110494375,-0.0072389357,-0.0038960655,0.15524031,0.16994412,0.14728756,0.16035263,0.003449522,0.0034795925,0.010697644,0.010129277,164,6,231,2,0,-1416.0625,171.45506,849.68304,63.95184,752255.6,825.111,119.74754,120.00374,122.930176,122.930176,0,1,252.74428,0,0,8.494983,8.494988,0,6,255,0,0,0,1,57,47,0
True,33343125,15999.99,0,8841.314,7.3889213,-0.77509934,6.0577197,-0.529644,-0.28215003,64.65992,-0.011627848,0.3377704,0.057298586,-2.357517,-0.07412782,0.0022968368,0.29309997,0.2773127,0.3536133,0.3336335,0.11598063,0.21654968,0.16050918,0.26824617,203.47939,203.46637,204.53842,204.60461,0,0,0,0,0,0,0,0,0,0,0,0,0.34211138,0.38395476,0.12723553,0.14573742,0.36123636,0.44081178,0.20482208,0.30527923,0.0032871328,0.0013505667,0.013149414,0.010773964,164,6,231,2,0,-1421.4358,172.00201,844.1138,64.662704,752273.2,812.54034,119.86348,120.0952,122.98985,122.98985,0,1,260.11267,0,0,8.615611,8.615616,0,6,255,0,0,0,1,62,43,0
True,33343250,15999.99,0,8943.148,11.265631,-0.46001613,6.1153164,-1.2783146,-0.26747513,65.354904,0.029739782,0.15631762,0.0031344146,-2.3237095,-0.074208654,0.0028795341,0.31455073,0.24922112,0.3731294,0.31817383,0.13208048,0.21244287,0.17855889,0.27031642,205.52621,206.00742,206.67438,207.2348,0,0,0,0,0,0,0,0,0,0,0,0,0.1597069,0.17219631,0.20835587,0.23732527,0.20724756,0.2734658,0.27440017,0.35971412,0.005918421,-0.0020953268,0.01546973,0.008935921,164,6,231,2,0,-1426.8986,172.54666,838.6744,65.36795,752272.7,803.4397,119.9581,120.152245,123.13069,123.13069,0,1,267.4476,0,0,8.734456,8.734462,0,6,255,0,0,0,1,0,35,0
True,33343359,15999.99,0,8695.9,10.93232,0.7646509,2.4691234,-0.6975136,-0.25611687,65.57763,0.0133950105,0.0019229827,0.0020389506,-2.31592,-0.07518964,0.003985877,0.32784754,0.26366943,0.36510852,0.29533872,-0.17087534,-0.2914992,-0.0524468,-0.06411765,199.71667,197.7123,202.01031,201.93059,0,0,0,0,0,0,0,0,0,0,0,0,0.10206419,0.11252799,0.09766782,0.106954515,0.19903639,0.31246492,0.11085878,0.12470101,0.007549491,-0.00032300502,0.014516108,0.0062209964,164,6,231,2,0,-1431.626,173.00668,834.1499,65.581825,599370.4,657.54596,120.02202,120.18611,123.234955,123.234955,0,1,273.67267,0,0,8.834411,8.834416,0,6,209,152,0,0,1,0,25,180
True,33343468,15999.99,0,8179.2627,3.501298,-1.2674718,-21.221651,-0.095724106,0.17236125,62.76142,0.050644267,-0.031067317,-0.026505556,-2.3197494,-0.066069975,0.00061569357,0.34145957,0.29496124,0.29391062,0.23937021,-0.36956608,-0.41113156,-0.2570238,-0.25896662,187.11763,186.60976,189.95206,190.03856,0,0,0,0,0,0,0,0,0,0,0,0,0.023286799,0.022069192,0.012177176,0.011611439,0.370299,0.41172346,0.2573121,0.2592268,0.009219233,0.0035154484,0.006051209,-0.0004332438,164,6,231,2,0,-1437.1893,173.54228,828.94415,62.761726,555149,647.953,120.21741,120.41383,123.262764,123.262764,0,1,280.9057,0,0,8.953278,8.953283,0,6,195,255,0,0,1,0,10,129
True,33343578,15999.99,0,8515.801,0.66240144,1.4575859,-3.721423,0.04193878,0.15771222,62.48561,-0.07812104,-0.01067184,-0.025304236,-2.3216953,-0.06946618,-0.0022844987,0.38207096,0.35180536,0.28188547,0.2546452,0.14897802,0.13068697,0.15575996,0.15472677,196.46754,196.22243,196.8235,196.86278,0,0,0,0,0,0,0,0,0,0,0,0,-0.0026080974,-0.003640718,-0.0063495226,-0.0073840506,0.14900085,0.13073766,0.15588933,0.15490286,0.014200885,0.010488313,0.0046215057,0.0013828389,164,6,231,2,0,-1441.7711,173.98396,824.6745,62.48582,752538.3,844.18475,120.281006,120.47745,123.272736,123.272736,0,1,286.85034,0,0,9.054018,9.054024,0,6,255,0,0,0,1,0,254,0
True,33343671,15999.99,0,8619.418,-0.18985963,-0.6282494,4.7479534,0.032836914,-0.11581993,63.140907,-0.03503402,-0.0015829504,-0.00507903,-2.3221717,-0.072343625,-0.0030890815,0.28116974,0.27820095,0.28896773,0.28160223,0.13360304,0.139696,0.19716102,0.19405359,198.24135,198.34377,199.4854,199.46867,0,0,0,0,0,0,0,0,0,0,0,0,-0.004774761,-0.004576127,-0.0050202734,-0.0055158427,0.13368833,0.13977094,0.19722492,0.19413197,0.0018236972,0.001459524,0.005463537,0.004587829,164,6,231,2,0,-1446.3771,174.43431,820.3788,63.14101,752265.06,833.5167,120.286804,120.48233,123.31794,123.31794,0,1,292.85007,0,0,9.154538,9.154543,0,6,255,0,0,0,1,0,243,0
True,33343796,15999.99,0,8728.761,0.6714854,-0.7169797,6.183099,0.026483536,-0.28526354,63.915974,0.013024594,0.044624113,0.00013974495,-2.321066,-0.074292384,-0.0044121994,0.2424202,0.24677141,0.2948105,0.2872452,0.15019189,0.15022814,0.18934949,0.2090744,200.99493,200.78047,201.91486,202.014,0,0,0,0,0,0,0,0,0,0,0,0,0.08641875,0.08815674,0.0036913776,0.0038846398,0.17327955,0.17418411,0.18938547,0.20911048,-0.002929572,-0.0023958236,0.006158199,0.005258739,164,6,231,2,0,-1451.9454,174.9728,815.18286,63.916615,752269.1,823.19147,120.29789,120.49136,123.375435,123.375435,0,1,300.09888,0,0,9.274697,9.274702,0,6,255,0,0,0,1,51,232,0
True,33343921,15999.99,0,8827.043,7.7412734,1.1831802,6.014661,-0.33945465,-0.31164312,64.6189,0.008757951,0.30957767,0.06264089,-2.3008165,-0.0768834,0.00013724713,0.32817626,0.33385673,0.37337974,0.37313598,0.13662712,0.31835517,0.12384325,0.19936286,203.52354,204.97307,203.74348,203.5451,0,0,0,0,0,0,0,0,0,0,0,0,0.4970025,0.5745513,0.0909827,0.10582444,0.51544005,0.6568555,0.15367174,0.22570857,0.007589817,0.008286618,0.015499499,0.015470512,164,6,231,2,0,-1457.4025,175.4975,810.1624,64.62054,752675.3,814.6756,120.41542,120.58067,123.44629,123.44629,0,1,307.15424,0,0,9.390323,9.390327,0,5,255,0,0,0,1,113,224,0
True,33344015,15999.99,0,8933.13,14.161482,0.10838443,5.989807,-1.5487576,-0.26298082,65.14482,-0.020379689,0.5159383,0.07631673,-2.2585654,-0.07594879,0.0031481322,0.34817228,0.30503207,0.38756123,0.35498706,0.13538271,0.34613597,0.14268686,0.30646548,205.64998,206.58963,206.3577,206.45665,0,0,0,0,0,0,0,0,0,0,0,0,0.60057354,0.7093257,0.2824772,0.33832696,0.6156436,0.78927374,0.31646943,0.45649338,0.010042656,0.004750803,0.017185573,0.013312746,164,6,231,2,0,-1462.2714,175.96419,805.8544,65.16375,752270.25,804.2937,120.673744,120.775215,123.557816,123.557816,0,1,313.4979,0,0,9.490757,9.490762,0,5,255,0,0,0,1,113,219,0
True,33344156,15999.99,0,9063.664,19.509674,-0.27497515,5.7382326,-3.2117062,-0.20869458,65.63957,-0.01572549,0.53060997,0.06757958,-2.193952,-0.07578012,0.0070727896,0.39051318,0.30782786,0.4033887,0.3210546,0.16913939,0.501264,0.1954987,0.40753573,207.72961,210.5051,209.11092,209.75108,0,0,0,0,0,0,0,0,0,0,0,0,0.8125222,0.99095577,0.50167865,0.6081557,0.82994,1.1105219,0.5384248,0.7320784,0.01523646,0.0050937496,0.019067343,0.009278424,164,6,231,2,0,-1468.591,176.55774,800.61975,65.71843,711520.2,749.6682,121.15224,121.11866,123.88132,123.88132,-1.4382887,1,321.31882,0,0,9.616459,9.616464,0,5,255,0,0,0,1,113,215,0
True,33344265,15999.99,0,9156.62,21.848473,-0.42255414,5.293008,-4.3305283,-0.15712392,65.98335,0.041075565,0.40748188,0.044578165,-2.1343899,-0.07596092,0.009472376,0.3755676,0.26431295,0.4239999,0.3144846,0.25544253,0.67622906,0.23707825,0.43474436,209.75377,214.3096,210.7404,211.58499,0,0,0,0,0,0,0,0,0,0,0,0,1.0656409,1.2551339,0.64455193,0.77047545,1.0958291,1.4257091,0.6867702,0.8846667,0.013403136,-0.00024406612,0.021517858,0.0084973015,164,6,231,2,0,-1475.039,177.15053,795.72327,66.12549,632457.9,659.7841,121.798645,121.846115,124.381134,124.381134,-10.619093,1,329.03082,0,0,9.739579,9.739584,0,5,255,0,0,0,1,113,211,0
True,33344359,15999.99,0,9187.062,20.532639,-1.6661104,4.6721907,-4.916439,-0.13991988,66.19379,-0.014650707,0.41568726,0.04000018,-2.0954247,-0.073178776,0.010231491,0.3443859,0.22300656,0.37525654,0.24573964,0.20975451,0.58399576,0.2552183,0.47527233,209.7893,213.6893,211.86824,212.93988,0,0,0,0,0,0,0,0,0,0,0,0,1.0551951,1.2856874,0.7118009,0.8647393,1.075841,1.412106,0.7561725,0.986741,0.009578191,-0.0053109713,0.015722636,0.0003240332,164,6,231,2,0,-1480.4082,177.61757,791.9348,66.37626,631627.8,656.4334,122.79959,122.99715,124.79229,124.79229,-14.7,1,335.52786,0,0,9.83902,9.839025,0,5,255,0,0,0,1,113,211,0
True,33344484,15999.99,0,9233.658,23.502811,-0.12327266,4.581479,-4.9116898,-0.117076695,66.4712,0.04603011,0.2814573,0.020433404,-2.0517845,-0.0748744,0.011500471,0.4236894,0.28142613,0.47124124,0.2983018,0.28235352,0.6566757,0.26343825,0.44281784,211.39249,215.78664,212.54132,213.58174,0,0,0,0,0,0,0,0,0,0,0,0,1.185695,1.3633685,0.6996268,0.8399732,1.2188504,1.5132735,0.747581,0.94954866,0.019306067,0.0018551461,0.0271345,0.006573286,164,6,231,2,0,-1486.8448,178.17,787.7624,66.65253,618558.9,639.86847,124.25543,124.4077,125.41311,125.41311,-14.7,1,342.83762,0,0,9.954634,9.954641,0,5,255,0,0,0,1,115,212,0
True,33344593,15999.99,0,8597.598,22.611916,-0.85451007,0.008434296,-4.537876,-0.0830847,66.33063,0.028228398,0.24221003,0.023171581,-2.019022,-0.07260196,0.012871305,0.40011165,0.25494167,0.41627866,0.28359234,-0.37954044,-0.84493023,-0.15791751,-0.2189768,196.47496,191.35931,201.92125,200.21257,0,0,0,0,0,0,0,0,0,0,0,0,1.0615034,1.2738266,0.6305004,0.77664244,1.1273155,1.528575,0.6499759,0.8069228,0.016413867,-0.0013936087,0.020599857,0.004824441,164,6,231,2,0,-1493.5518,178.72145,783.776,66.48572,752255.25,834.7416,125.69009,125.71296,125.916245,125.916245,-14.7,1,350.27264,0,0,10.071858,10.071866,0,5,255,213,0,0,1,115,215,150
True,33344703,15999.99,0,8207.5205,20.198002,-1.2788743,-14.708223,-3.6800137,0.18438518,64.42853,0.05144971,0.14947657,0.034842223,-2.0014138,-0.0671452,0.014121732,0.38680136,0.2494054,0.36180368,0.20837136,-0.5176088,-1.0227437,-0.32530826,-0.46030986,188.00961,183.29663,192.84279,190.46838,0,0,0,0,0,0,0,0,0,0,0,0,0.954118,1.1289281,0.5690004,0.6618528,1.0854769,1.5233133,0.6554288,0.806185,0.0147811435,-0.0020727217,0.01412319,-0.004118778,164,6,231,2,0,-1499.3457,179.18396,780.5996,64.533806,745685.2,867.3908,127.30031,126.6128,126.2726,126.2726,-14.7,1,356.76938,0,0,10.172977,10.172985,0,5,253,255,0,0,1,113,219,129
True,33344796,15999.99,0,8784.622,23.59402,1.0100316,-4.139985,-2.725111,0.18901756,63.82856,-0.073397905,0.29477516,0.039331064,-1.9784144,-0.06955844,0.017341862,0.4796672,0.3140951,0.37455198,0.2048758,0.17068465,0.46624222,0.16746682,0.3186409,201.54199,204.74387,202.3962,203.06891,0,0,0,0,0,0,0,0,0,0,0,0,0.8248209,1.0025139,0.4068533,0.4936609,0.8422961,1.1056292,0.43997127,0.58756536,0.02617266,0.0058625303,0.01563887,-0.004534375,164,6,231,2,0,-1505.1538,179.64026,777.6508,63.886986,752264.6,818.0083,128.0666,127.05145,126.57886,126.57886,-14.7,1,362.97098,0,0,10.27515,10.275158,0,5,255,0,0,0,1,115,224,0
True,33344921,15999.99,0,8868.647,19.199265,-1.1405094,4.4609404,-2.412943,-0.10514861,64.37653,-0.048139397,0.30242598,0.028858159,-1.9478472,-0.07261401,0.016776675,0.40907282,0.29709306,0.42258012,0.28367582,0.17700909,0.40470818,0.19951306,0.36542454,203.40483,205.54628,204.58107,205.4226,0,0,0,0,0,0,0,0,0,0,0,0,0.76435226,0.89473855,0.37177953,0.45023066,0.78458047,0.9820111,0.42193067,0.5798644,0.017513104,0.0037769526,0.021349058,0.004834365,164,6,231,2,0,-1512.0895,180.1852,774.45496,64.42182,738722.25,795.2633,128.37132,127.21548,126.88805,126.88805,-14.7,1,370.24918,0,0,10.394501,10.394509,0,5,255,0,0,0,1,113,231,0
True,33345046,15999.99,0,8991.323,17.313171,-1.8063416,5.0909696,-2.3624344,-0.17696169,64.92115,0.06546482,0.24172972,-0.008295966,-1.9135486,-0.07254501,0.01625101,0.36994225,0.23111835,0.42286438,0.28466576,0.24653608,0.5984509,0.25383958,0.40496254,205.893,210.1561,206.94704,207.94856,0,0,0,0,0,0,0,0,0,0,0,0,0.83052033,0.94715065,0.3833987,0.44338012,0.86633945,1.120374,0.45981422,0.6004836,0.012713097,-0.0043159276,0.021382853,0.004952058,164,6,231,2,0,-1519.3376,180.74355,771.4362,64.964355,661217.5,702.4403,128.6637,127.36847,127.1901,127.1901,-14.7,1,377.82907,0,0,10.516145,10.516153,0,5,255,0,0,0,1,113,240,0
True,33345156,15999.99,0,8988.421,20.794035,0.12686959,6.0590816,-2.4725533,-0.21172048,65.42735,-0.034914274,0.38724568,0.0275556,-1.8785324,-0.07359826,0.015274003,0.41414547,0.24687144,0.42632747,0.26460582,0.15013783,0.41739962,0.15257785,0.31186897,206.41122,208.80806,207.30505,207.8328,0,0,0,0,0,0,0,0,0,0,0,0,0.7487582,0.9029873,0.37099102,0.45802984,0.76366234,0.9947907,0.4011413,0.5541241,0.018135346,-0.0023835525,0.021794587,0.0025670864,164,6,231,2,0,-1525.7064,181.21089,769.0149,65.474396,752260.4,799.2938,128.97441,127.549576,127.43698,127.43698,-14.7,1,384.30762,0,0,10.62086,10.620869,0,5,255,0,0,0,1,115,251,0
True,33345265,15999.99,0,9119.876,19.056103,-1.1276284,5.405291,-2.8274632,-0.18333119,65.83653,0.06945489,0.29908141,0.002087744,-1.841669,-0.072591886,0.014229063,0.36427394,0.2491526,0.4568921,0.2918781,0.2611757,0.60351187,0.23843232,0.41695344,209.13733,212.98378,209.80034,210.96042,0,0,0,0,0,0,0,0,0,0,0,0,0.91463596,1.0255135,0.44065762,0.5269099,0.9511949,1.1899179,0.50102806,0.6719257,0.0120177865,-0.002103731,0.025428496,0.005809553,164,6,231,2,0,-1532.1825,181.69371,766.81213,65.89748,657439.94,688.645,129.2695,127.73246,127.72463,127.72463,-14.7,1,390.8239,0,0,10.725237,10.725245,0,5,255,0,0,0,1,117,6,0
True,33345375,15999.99,0,9124.589,22.42692,0.41230953,5.726198,-3.1918116,-0.20832525,66.28024,-0.04086946,0.41918647,0.076377645,-1.7996714,-0.07383984,0.016810412,0.40115145,0.28853098,0.40283298,0.2739288,0.17217891,0.5020807,0.15767579,0.3260613,209.49245,212.75906,210.24094,210.78468,0,0,0,0,0,0,0,0,0,0,0,0,0.8724201,1.0675247,0.45368412,0.56136394,0.8892482,1.1797007,0.48030296,0.6491883,0.016541418,0.0027266704,0.019001268,0.003675513,164,6,231,2,0,-1539.104,182.18912,764.69617,66.357376,745654.56,780.49414,129.67712,128.03104,128.04108,128.04108,0,1,397.6277,0,0,10.834944,10.834953,0,4,255,0,0,0,1,122,21,0
True,33345500,15999.99,0,9228.902,21.193151,-0.7697134,5.003395,-3.47865,-0.18299395,66.705154,0.029978823,0.32177964,0.023364235,-1.7543784,-0.07373847,0.01941212,0.3212473,0.19849126,0.38758805,0.26500076,0.22634716,0.62901706,0.21741591,0.3893078,211.31824,216.09427,212.361,213.2973,0,0,0,0,0,0,0,0,0,0,0,0,0.99579793,1.1853014,0.5142771,0.61214304,1.0211986,1.3418651,0.55834633,0.72545135,0.006739866,-0.008318175,0.017188761,0.00261404,164,6,231,2,0,-1547.1992,182.77983,762.58484,66.79605,666139.75,689.4007,130.18594,128.66438,128.4686,128.4686,0,1,405.56866,0,0,10.960904,10.960916,0,4,255,0,0,0,1,127,40,0
True,33345593,15999.99,0,9270.632,20.184494,-1.6321709,4.795676,-3.6033373,-0.20250118,67.03801,0.008112937,0.32031554,0.043094203,-1.7215931,-0.072033,0.02037548,0.28314996,0.17347986,0.32420912,0.19782312,0.20985027,0.579754,0.21985964,0.39804792,212.11717,216.46996,213.49323,214.49968,0,0,0,0,0,0,0,0,0,0,0,0,0.9788749,1.1854286,0.52532905,0.62965655,1.001116,1.3196044,0.56948125,0.7449225,0.002066601,-0.011386236,0.009653471,-0.0053728856,164,6,231,2,0,-1553.9202,183.25359,761.0819,67.13509,674525.5,694.8381,130.70905,129.4129,128.79999,128.79999,0,1,411.85693,0,0,11.06399,11.064,0,4,255,0,0,0,1,127,56,0
True,33345718,15999.99,0,9319.732,21.891602,-0.69237113,4.8259788,-3.4520884,-0.20993917,67.448265,0.028315969,0.2804911,0.008834479,-1.6832907,-0.07262791,0.022184622,0.43845153,0.27260295,0.38368255,0.24311316,0.19275256,0.6366627,0.20971024,0.36133787,212.94714,218.67117,214.45303,215.39497,0,0,0,0,0,0,0,0,0,0,0,0,0.9514933,1.1844772,0.49800476,0.58937925,0.97082084,1.34474,0.5403583,0.691327,0.021116883,0.00077283755,0.016724426,1.1764467E-05,164,6,231,2,0,-1561.8922,183.80772,759.60333,67.536865,674331.1,691.01825,131.32498,130.18118,129.22888,129.22888,0,1,419.51157,0,0,11.184676,11.184688,0,4,255,0,0,0,1,127,77,0
True,33345812,15999.99,0,9344.276,23.42259,0.35864463,5.133321,-3.2839417,-0.23195915,67.8184,-0.0006422531,0.316826,0.01790181,-1.6503049,-0.07442342,0.02135914,0.32603964,0.15509951,0.3831109,0.2059055,0.19381766,0.5385463,0.17277369,0.3310007,214.31647,218.35442,215.10475,215.92084,0,0,0,0,0,0,0,0,0,0,0,0,0.93763316,1.1367655,0.4575459,0.55900246,0.9574556,1.2578824,0.48907977,0.64965004,0.0073277242,-0.013640884,0.016656462,-0.0044119507,164,6,231,2,0,-1568.6498,184.27953,758.6131,67.89826,724754.1,740.8113,131.8056,130.7356,129.57732,129.57732,0,1,425.9878,0,0,11.285771,11.285785,0,4,255,0,0,0,1,127,95,0
True,33345937,15999.99,0,9370.016,25.118185,1.507585,5.4088097,-3.0781803,-0.22491805,68.25383,-0.04526089,0.3760485,0.040388834,-1.6109498,-0.077327736,0.021522328,0.42196795,0.25164944,0.4267831,0.24811833,0.14755002,0.43951717,0.14134575,0.2902905,215.08253,218.09993,216.03764,216.5431,0,0,0,0,0,0,0,0,0,0,0,0,0.850157,1.0648731,0.41422117,0.5192092,0.8628661,1.1520113,0.43767318,0.5948502,0.019094903,-0.0017974526,0.02184876,0.00060684234,164,6,231,2,0,-1576.5319,184.84117,757.7654,68.32358,752268.4,766.7167,132.3576,131.22398,129.96613,129.96613,0,1,433.3046,0,0,11.402464,11.402477,0,4,255,0,0,0,1,127,110,0
True,33346046,15999.99,0,9460.895,23.660004,0.66023964,5.184996,-3.071656,-0.16394341,68.654915,0.023661442,0.33079344,-0.009671251,-1.569703,-0.07918445,0.0192245,0.46135572,0.26357284,0.4908941,0.29051304,0.2054459,0.5194239,0.18284035,0.33951357,217.14278,220.66939,217.88068,218.66397,0,0,0,0,0,0,0,0,0,0,0,0,0.93824816,1.112385,0.4294324,0.52718407,0.96047777,1.2276814,0.4667363,0.62705064,0.02392646,-0.00033485144,0.029471084,0.005647257,164,6,231,2,0,-1584.463,185.44029,757.2661,68.72379,721681.2,728.56506,132.89713,131.62282,130.34897,130.34897,0,1,440.86133,0,0,11.518764,11.518778,0,4,255,0,0,0,1,127,122,0
True,33346156,15999.99,0,9530.78,23.46417,-0.23630527,5.250019,-2.9873981,-0.18139257,68.99336,0.03217321,0.2519589,0.012587902,-1.5367032,-0.0793113,0.018545045,0.45431316,0.26632246,0.4958349,0.33570677,0.099878915,0.63165015,0.19813086,0.35205454,216.89761,224.58014,219.25488,220.28098,0,0,0,0,0,0,0,0,0,0,0,0,0.36325374,0.44985056,0.42185828,0.5270509,0.37673476,0.77546597,0.46606892,0.63381785,0.023062572,2.4326146E-06,0.030058503,0.011020463,164,6,231,2,0,-1591.3442,185.96378,757.0845,69.05824,745086.4,747.06006,133.18655,131.77602,130.64357,130.64357,-7.3213854,1,447.41803,0,0,11.618941,11.618956,0,4,255,0,0,0,1,0,127,0
True,33346265,15999.99,0,9483.752,21.14915,0.7229004,5.893553,-1.6559483,-0.260652,69.65462,-0.028433802,0.014840071,-0.021404108,-1.5212709,-0.080593124,0.01496174,0.4780094,0.28208512,0.50569844,0.29551312,0.101282135,0.18831591,0.11540041,0.16251168,218.18503,219.63371,218.84747,219.32036,0,0,0,0,0,0,0,0,0,0,0,0,0.22845203,0.25789,0.18915357,0.23899469,0.24989678,0.31932762,0.2215769,0.28901297,0.025969304,0.0019359812,0.03123121,0.006241735,164,6,231,2,0,-1599.4952,186.57733,757.15375,69.67478,752262.3,757.58075,133.30193,131.73306,130.91159,130.91159,0,1,455.21106,0,0,11.736786,11.7368,0,4,255,0,0,0,1,0,125,0
True,33346375,15999.99,0,9555.134,6.9718657,-0.61576086,5.389688,-0.5399525,-0.23266317,70.20132,-0.028086893,-0.16987619,-0.0899314,-1.5289798,-0.078737594,0.009241186,0.4056768,0.29261333,0.462691,0.3236616,0.116335,0.09644988,0.17985064,0.14384365,219.6904,220.14674,221.01999,221.1365,0,0,0,0,0,0,0,0,0,0,0,0,-0.16605875,-0.15701541,0.039559107,0.052893862,0.20275438,0.18427268,0.18414988,0.15326042,0.017096527,0.0032274388,0.026117943,0.009588379,164,6,231,2,0,-1606.5508,187.1146,757.3853,70.20378,752252.44,751.838,133.27641,131.62465,130.98843,130.98843,0,1,461.9322,0,0,11.838019,11.838034,0,4,255,0,0,0,1,-127,119,0
True,33346484,15999.99,0,9712.291,-6.570632,-2.0810044,4.5722175,0.9366294,-0.21635078,70.72189,0.024849713,-0.408825,-0.10456751,-1.5639629,-0.076530255,0.0009807241,0.4433524,0.43033496,0.3783573,0.34981745,0.2821422,0.11139836,0.3682255,0.21395072,223.21208,222.44337,225.49329,224.70122,0,0,0,0,0,0,0,0,0,0,0,0,-0.6302405,-0.5354658,-0.21471475,-0.18678822,0.69051236,0.5469307,0.42625397,0.2840154,0.021718055,0.020121254,0.016091287,0.012698118,164,6,231,2,0,-1614.709,187.73105,757.61536,70.72841,752176.3,739.4633,133.3033,131.62453,131.0091,131.0091,0,1,469.70358,0,0,11.954144,11.954156,0,4,255,0,0,0,1,-56,112,0
True,33346609,15999.99,0,9743.618,-14.140257,-1.6363301,5.4884787,2.019337,-0.27789593,71.29277,0.008025199,-0.20711714,-0.066952854,-1.6034871,-0.074680775,-0.0041316873,0.26041752,0.27348438,0.3059466,0.31419897,0.23032051,0.09605207,0.25654688,0.15361269,224.93295,223.65994,225.71942,225.11598,0,0,0,0,0,0,0,0,0,0,0,0,-0.25647524,-0.22290163,-0.33114946,-0.28515953,0.34471306,0.24271616,0.41889888,0.3239025,-0.0007219054,0.0008809604,0.007482197,0.008463342,164,6,231,2,0,-1622.989,188.32555,757.6854,71.3219,752269.3,737.3213,133.31134,131.63004,131.0923,131.0923,0,1,477.58405,0,0,12.071014,12.071028,0,4,255,0,0,0,1,0,110,0
True,33346703,15999.99,0,9805.982,-14.423021,-0.7342151,5.244576,1.1487507,-0.27670577,71.79505,0.055623993,0.016004482,0.015643839,-1.6124766,-0.074375436,-0.0068053813,0.2561499,0.36325356,0.30982208,0.39420944,0.2643879,0.12378642,0.19943777,0.16614087,227.54646,225.10495,226.7854,226.29346,0,0,0,0,0,0,0,0,0,0,0,0,-0.18296318,-0.16486357,-0.16613515,-0.1479317,0.32152215,0.20616274,0.25956947,0.22245578,-0.0012453981,0.0118926205,0.00794296,0.017975993,164,6,231,2,0,-1630.141,188.83397,757.56805,71.80477,752252.06,732.7919,133.2756,131.62135,131.14952,131.14952,0,1,484.39627,0,0,12.171203,12.171216,0,4,255,0,0,0,1,0,112,0
True,33346828,15999.99,0,9897.099,-5.2056804,-4.1715136,5.034295,0.22359633,-0.3048758,72.40413,0.043679483,0.05288349,0.0076897526,-1.6070776,-0.06717466,-0.005834405,0.21347247,0.27005368,0.26482046,0.34857354,0.1657501,0.14068705,0.22053291,0.22905053,227.9137,227.2049,229.12987,229.0993,0,0,0,0,0,0,0,0,0,0,0,0,-0.045240227,-0.042293828,-0.024470815,-0.021280529,0.17181319,0.14690682,0.22188643,0.23003697,-0.006480485,0.00046012923,0.0025926046,0.012550224,164,6,231,2,0,-1638.6354,189.40178,757.30884,72.40511,752252.5,725.8586,133.20473,131.52032,131.14442,131.14442,0,1,492.4951,0,0,12.289325,12.28934,0,4,255,0,0,0,1,0,117,0
True,33346937,15999.99,0,10089.889,-0.8244183,-5.3649907,4.0377502,-0.09200454,-0.29955834,72.83474,0.13795948,0.041630797,0.03984887,-1.6028571,-0.060223743,-0.003597495,0.17225765,0.20999472,0.28849286,0.3335,0.34282494,0.39785907,0.3702013,0.36701503,232.19061,233.0355,233.35052,233.13306,0,0,0,0,0,0,0,0,0,0,0,0,0.14564331,0.1517035,0.01881802,0.021636683,0.3724794,0.42580017,0.37067923,0.36765227,-0.0115361605,-0.006907087,0.0054070726,0.010758091,164,6,231,2,0,-1645.9435,189.84464,757.06305,72.83541,707032,669.58417,133.1374,131.43228,131.15265,131.15265,-0.92137337,1,499.45227,0,0,12.390146,12.390161,0,4,255,0,0,0,1,28,122,0
True,33347046,15999.99,0,10116.175,4.029785,-7.4177866,4.571577,-0.56285167,-0.38189673,73.38489,0.049214035,0.21517715,0.031195164,-1.5894878,-0.048724893,-0.0011013146,0.13301659,0.16083533,0.19258167,0.22361009,0.22374567,0.3471019,0.26838145,0.375529,232.36395,233.58357,233.8034,234.16077,0,0,0,0,0,0,0,0,0,0,0,0,0.57420325,0.62847435,0.10680018,0.118214354,0.61625606,0.71795523,0.28885096,0.39369616,-0.016349718,-0.012937294,-0.005996056,-0.0023070052,164,6,231,2,0,-1654.5474,190.26938,756.7983,73.38804,727452.56,686.32495,133.15388,131.44626,131.16888,131.16888,-3.6608076,1,507.6378,0,0,12.508026,12.508041,0,4,255,0,0,0,1,127,126,0
True,33347140,15999.99,0,10115.564,9.09741,-4.118044,5.3499656,-1.4476459,-0.40056977,73.9043,0.042801324,0.20892476,0.026293138,-1.5629641,-0.04435382,0.0013807341,0.2717333,0.27198356,0.2613574,0.2255838,0.14822783,0.20248602,0.1807966,0.28829557,232.83223,232.83684,233.66492,234.40634,0,0,0,0,0,0,0,0,0,0,0,0,0.15854527,0.16725188,0.21832702,0.24827147,0.21704398,0.2626286,0.28346798,0.38046426,0.00066616386,0.00069686025,0.0021808706,-0.0020723455,164,6,231,2,0,-1662.004,190.5774,756.6602,73.91955,752257.7,710.38306,133.25668,131.50288,131.23743,131.23743,0,1,514.8063,0,0,12.609354,12.609368,0,4,255,0,0,0,1,0,127,0
True,33347281,15999.99,0,10187.878,8.719619,-5.0812106,5.5398297,-1.124743,-0.44154027,74.58697,0.027264757,0.025475154,0.0047115595,-1.5509248,-0.035781905,0.0046856627,0.20824324,0.15298545,0.28342256,0.23136362,0.13046156,0.18335553,0.18927282,0.23048486,234.10782,234.9424,235.47765,235.91154,0,0,0,0,0,0,0,0,0,0,0,0,0.1443973,0.15446718,0.14917369,0.16281375,0.19460422,0.23974854,0.24099168,0.2821907,-0.0071219355,-0.013900209,0.0048042536,-0.0013851672,164,6,231,2,0,-1671.9128,190.91545,756.6311,74.596756,751836.75,704.43304,133.21704,131.44492,131.32785,131.32785,0,1,524.2239,0,0,12.7429,12.742914,0,4,255,0,0,0,1,0,122,0
True,33347390,15999.99,0,10303.279,5.0737047,-4.2569733,4.6675506,-0.28187835,-0.4555253,75.15295,0.0639771,-0.047287673,-0.001772969,-1.5536836,-0.031189166,0.0037491536,0.22160275,0.18231328,0.3370318,0.28472078,0.18696763,0.18612182,0.2686936,0.26943293,236.73198,237.00826,238.38004,238.68568,0,0,0,0,0,0,0,0,0,0,0,0,0.048522506,0.051160663,0.029512389,0.03287012,0.1931614,0.19302525,0.2703095,0.27143055,-0.005483173,-0.01030267,0.011177998,0.0049586,164,6,231,2,0,-1680.5059,191.15958,756.7211,75.154854,752103.56,696.84595,133.19142,131.37671,131.37376,131.37376,0,1,532.5139,0,0,12.857683,12.857698,0,4,255,0,0,0,1,0,113,0
True,33347500,15999.99,0,10280.912,1.2479064,-1.843035,5.414937,0.055048943,-0.35436445,75.71265,-0.044421725,-0.027848471,-0.05512491,-1.5573759,-0.028206484,0.0030280317,0.45766652,0.36851034,0.34438577,0.30879703,0.050339893,0.06028553,0.16338709,0.13046771,236.10202,236.38281,238.24696,237.90587,0,0,0,0,0,0,0,0,0,0,0,0,0.00087211916,0.0006387935,-0.012042161,-0.008046404,0.050347447,0.060288917,0.16383027,0.13071561,0.023473918,0.01253745,0.012052331,0.0078210905,164,6,231,2,0,-1687.8989,191.33266,756.8251,75.71349,752295.25,698.8402,133.1446,131.31825,131.38315,131.38315,0,1,539.52545,0,0,12.955704,12.95572,0,4,255,0,0,0,1,0,103,0
True,33347609,15999.99,0,10383.294,-1.6506745,-4.020476,5.258419,0.123003185,-0.50181675,76.20289,0.026033748,-0.087103486,-0.04956028,-1.5608889,-0.024001531,-0.0011029957,0.20329678,0.1908174,0.2648666,0.2610304,0.17861423,0.13219191,0.17621803,0.15145898,239.76428,239.28136,239.97041,239.92061,0,0,0,0,0,0,0,0,0,0,0,0,-0.22655155,-0.21191375,-0.02718765,-0.025438733,0.28849375,0.24976417,0.178303,0.15358044,-0.0077286996,-0.0092595,0.0025980882,0.0021419935,164,6,231,2,0,-1695.6783,191.49188,756.9292,76.204636,752259.25,691.7697,133.09976,131.26195,131.39467,131.39467,-3.3791914,1,546.9033,0,0,13.058189,13.058205,0,4,255,0,0,0,1,-127,90,0
True,33347734,15999.99,0,10506.591,-9.548855,-3.1833966,4.6636767,1.0443581,-0.49723378,76.74583,0.027767524,-0.34486762,-0.025997723,-1.5883029,-0.019023739,-0.005069061,0.2504417,0.27014005,0.2363217,0.26734963,0.3429013,0.1756099,0.25474975,0.14734684,243.73012,242.2658,242.6157,242.29143,0,0,0,0,0,0,0,0,0,0,0,0,-0.7509592,-0.6744159,-0.19690016,-0.17484257,0.82554287,0.6969043,0.32197377,0.22865042,-0.0019456036,0.00047072396,-0.0007956885,0.0028933026,164,6,231,2,0,-1705.1919,191.63611,756.9745,76.75454,752251,684.0268,133.16273,131.39896,131.39558,131.39558,-11.077322,1,556.008,0,0,13.182577,13.182592,0,4,255,0,0,0,1,-127,74,0
True,33347828,15999.99,0,10522.108,-14.574922,-1.8302703,5.3767686,2.0492845,-0.4151537,77.22925,0.019709338,-0.21845241,-0.06901309,-1.6219804,-0.015859392,-0.009223837,0.17891878,0.23192456,0.23647769,0.28970563,0.21308625,0.0875334,0.19602159,0.11665869,243.47685,242.0552,243.26726,242.99507,0,0,0,0,0,0,0,0,0,0,0,0,-0.24734998,-0.2106556,-0.30005035,-0.25977784,0.3264778,0.22811812,0.35840574,0.28476968,-0.010719061,-0.0042170323,-0.000777144,0.0055512637,164,6,231,2,0,-1713.2671,191.72478,756.8621,77.25754,752260.6,682.852,133.21637,131.49524,131.44312,131.44312,-14.7,1,563.6655,0,0,13.287449,13.287463,0,4,255,0,0,0,1,0,62,0
True,33347937,15999.99,0,10583.233,-13.368299,-3.3331876,5.22479,1.5763874,-0.35048652,77.7024,-0.011249482,-0.06358977,-0.0041473005,-1.6338431,-0.010485599,-0.010773705,0.20065112,0.29426453,0.2457026,0.33502966,0.14163633,0.08983917,0.2005635,0.1463108,243.87727,243.24136,245.09709,244.65736,0,0,0,0,0,0,0,0,0,0,0,0,-0.19488858,-0.17702518,-0.21916889,-0.1928291,0.24091992,0.19851698,0.29708704,0.24205354,-0.008053232,0.0034299865,0.0003196299,0.010939956,164,6,231,2,0,-1721.2168,191.78712,756.589,77.71918,752257.75,678.5442,133.19083,131.51828,131.48047,131.48047,-14.7,1,571.27625,0,0,13.390132,13.390146,0,4,255,0,0,0,1,0,52,0
True,33348062,15999.99,0,10692.161,-8.99485,-3.8504288,4.3277035,0.39888477,-0.31051266,78.23228,0.045732126,-0.040054694,0.015007164,-1.6337554,-0.0061582485,-0.008570178,0.18904889,0.28456602,0.24075454,0.34311157,0.17446484,0.12676029,0.2506239,0.20665604,246.11848,245.40158,247.8171,247.30934,0,0,0,0,0,0,0,0,0,0,0,0,-0.35301927,-0.32852396,-0.06330357,-0.056312,0.39377734,0.3521309,0.25849503,0.21419095,-0.009476438,0.002240304,-0.00026865676,0.011900838,164,6,231,2,0,-1730.574,191.83707,756.10394,78.23392,752253.94,671.76636,133.15323,131.52853,131.49603,131.49603,-14.7,1,580.1647,0,0,13.510275,13.510289,0,4,255,0,0,0,1,-127,41,0
True,33348171,15999.99,0,10684.146,-8.379372,0.2832002,4.654212,0.5264745,-0.30267686,78.715195,0.01511502,-0.1237051,0.018594274,-1.6477466,-0.007310779,-0.009734636,0.264432,0.33303833,0.31536016,0.3927918,0.1184451,0.0809479,0.1299911,0.105396725,246.39363,246.26933,246.92966,247.00813,0,0,0,0,0,0,0,0,0,0,0,0,-0.046357363,-0.04165008,-0.08268629,-0.07396397,0.12719373,0.09103456,0.15406072,0.12876001,-0.00022946298,0.008186229,0.008601401,0.017807446,164,6,231,2,0,-1738.712,191.8576,755.5712,78.71753,752259.8,672.50903,133.19766,131.62701,131.50969,131.50969,-14.7,1,587.90625,0,0,13.614179,13.614192,0,4,255,0,0,0,1,0,32,0
True,33348281,15999.99,0,10770.194,-5.540473,-1.6601759,4.306548,0.4438138,-0.29611108,79.18542,0.053447727,-0.0070382785,0.01961877,-1.6539671,-0.0047521126,-0.007394372,0.25508028,0.31307033,0.29037616,0.35362577,0.16124454,0.10741062,0.1443586,0.13789482,248.98303,247.94138,248.9166,248.84055,0,0,0,0,0,0,0,0,0,0,0,0,-0.06158311,-0.055497583,-0.05761233,-0.053987075,0.17260441,0.12090088,0.15543033,0.14808641,-0.0013766028,0.005736824,0.005630985,0.013150897,164,6,231,2,0,-1747.3752,191.8797,754.92645,79.18721,752264.3,667.1933,133.12506,131.57433,131.51875,131.51875,-14.7,1,596.1719,0,0,13.724198,13.724212,0,4,255,0,0,0,1,0,22,0
True,33348375,15999.99,0,10804.3955,-5.187253,-0.9102365,4.537787,0.1222291,-0.31596076,79.66595,-0.023328094,-0.102931134,-0.033470068,-1.6562895,-0.0030858915,-0.0055083507,0.27714208,0.31653312,0.2888923,0.34942216,0.10176043,0.0785402,0.11716974,0.095930144,249.12009,249.12413,249.7041,249.77333,0,0,0,0,0,0,0,0,0,0,0,0,-0.23700039,-0.22093037,-0.02698855,-0.023752602,0.2579232,0.23447557,0.120237805,0.09882701,0.0013296381,0.006161593,0.0054545626,0.012651119,164,6,231,2,0,-1755.8569,191.8725,754.2446,79.666664,752251.94,664.9329,133.08052,131.54237,131.5111,131.5111,-14.7,1,604.2477,0,0,13.83132,13.831333,0,4,255,0,0,0,1,-127,13,0
True,33348500,15999.99,0,10879.18,-9.910378,0.21865977,4.166153,1.0201731,-0.26255167,80.139786,-0.0044500865,-0.22222827,0.015413566,-1.6843159,-0.0036757507,-0.008527821,0.27489066,0.34961215,0.31323296,0.3739034,0.10429418,0.07430117,0.15156059,0.09884888,250.35466,250.852,251.58331,251.61429,0,0,0,0,0,0,0,0,0,0,0,0,-0.087205335,-0.080988966,-0.15741086,-0.13980426,0.13594869,0.10990849,0.21851496,0.17122012,0.0010534637,0.01021928,0.008348491,0.015561756,164,6,231,2,0,-1765.6937,191.87247,753.33,80.146706,752260.8,660.36847,133.12004,131.6712,131.53288,131.53288,0,1,613.62964,0,0,13.954958,13.954969,0,4,255,0,0,0,1,0,5,0
True,33348609,15999.99,0,10936.308,-10.006849,-0.13596587,4.2637634,0.81262493,-0.26273644,80.55942,-0.003031942,-0.024206696,-0.001245863,-1.695063,-0.0038265998,-0.008530911,0.27279252,0.34603828,0.30301863,0.3843667,0.101407304,0.078762285,0.13722719,0.115975164,252.09349,251.78088,253.00922,252.81131,0,0,0,0,0,0,0,0,0,0,0,0,-0.0979517,-0.091730215,-0.103709355,-0.09288997,0.14098929,0.12090463,0.17200853,0.14858931,0.0007960908,0.009780884,0.0071340837,0.01680576,164,6,231,2,0,-1773.9791,191.8778,752.4308,80.56394,752264.4,656.8973,133.07457,131.66508,131.5639,131.5639,0,1,621.5451,0,0,14.058666,14.058677,0,4,255,0,0,0,1,0,0,0
True,33348703,15999.99,0,11001.573,-5.307445,-1.872784,4.152815,0.24159718,-0.28023508,80.96708,0.022075642,0.02598075,0.042283036,-1.6939331,-0.001762515,-0.006189589,0.24998774,0.32050854,0.29528677,0.3627188,0.09864049,0.10045456,0.14539672,0.13845226,253.40775,253.33824,254.54628,254.36617,0,0,0,0,0,0,0,0,0,0,0,0,-0.03676375,-0.035715282,-0.028391147,-0.024164462,0.1052688,0.106614724,0.14814271,0.14054519,-0.0020012893,0.0066492446,0.00621482,0.014231987,164,6,231,2,0,-1782.0278,191.87628,751.4772,80.96792,752250.5,652.9971,133.01315,131.63153,131.56795,131.56795,0,1,629.24475,0,0,14.159012,14.159021,0,4,255,0,0,0,1,0,254,0
True,33348828,15999.99,0,11038.484,-6.7327776,2.3040009,4.068658,0.03621292,-0.2944797,81.453094,-0.033259004,-0.17811602,-0.011515772,-1.6998477,-0.0050969785,-0.0057662637,0.31970325,0.37657464,0.3320579,0.38483462,0.109035954,0.069805965,0.1058739,0.07708508,254.6746,254.7241,254.94186,255.1628,0,0,0,0,0,0,0,0,0,0,0,0,-0.2680048,-0.24272443,-0.027155567,-0.020648537,0.28933617,0.2525629,0.10930099,0.0798027,0.006550461,0.013526671,0.010586634,0.016861394,164,6,231,2,0,-1791.7018,191.86742,750.27893,81.45364,752264.3,650.8815,133.00746,131.65831,131.58578,131.58578,0,1,638.5054,0,0,14.279021,14.27903,0,4,255,0,0,0,1,-36,252,0
True,33348937,15999.99,0,11111.683,-5.4316473,-1.3420861,3.9876747,0.65172577,-0.2646312,81.85279,0.007012295,-0.071127325,0.0037036506,-1.7136871,-0.002556304,-0.004883497,0.28808162,0.3360251,0.32388738,0.37082225,0.10481464,0.08666954,0.1368881,0.11256868,256.0717,256.0712,256.96655,256.86353,0,0,0,0,0,0,0,0,0,0,0,0,-0.06809538,-0.06457329,-0.08919345,-0.079917654,0.124992356,0.10808015,0.16338244,0.13805267,0.002671551,0.008552603,0.009615224,0.015195429,164,6,231,2,0,-1800.1726,191.87343,749.1569,81.85581,752256.1,646.49744,132.9522,131.62738,131.59727,131.59727,0,1,646.6232,0,0,14.38367,14.383679,0,4,255,0,0,0,1,0,252,0
True,33349046,15999.99,0,11152.295,-5.1273766,0.22115012,4.0365615,0.3396902,-0.28100345,82.254555,-0.0057202885,0.0034004448,-0.009739647,-1.716374,-0.0033610438,-0.005726252,0.29498178,0.3261244,0.32007256,0.36360195,0.09001799,0.078868985,0.10856274,0.1031032,257.21356,256.9818,257.8487,257.76166,0,0,0,0,0,0,0,0,0,0,0,0,-0.042173125,-0.039798748,-0.039653815,-0.034661688,0.0994073,0.088341706,0.115578085,0.108773634,0.0035179667,0.0073381215,0.00916167,0.014336988,164,6,231,2,0,-1808.36,191.86922,748.01465,82.25573,752265.1,644.21594,132.90778,131.60382,131.61226,131.61226,0,1,654.47644,0,0,14.484405,14.484414,0,4,255,0,0,0,1,0,254,0
True,33349156,15999.99,0,11187.664,7.2121444,-0.8917857,0.9884976,0.71882534,-0.3012561,82.45879,0.027444847,0.06030034,0.012077527,-1.7132719,-0.0026775987,-0.0034610613,0.2897477,0.32517263,0.33422217,0.36084932,0.09135664,0.08167283,0.11798303,0.11061834,258.0589,257.60178,258.79477,258.54034,0,0,0,0,0,0,0,0,0,0,0,0,-0.08672162,-0.083006874,-0.068752445,-0.060675118,0.125963,0.11644996,0.13655363,0.1261661,0.0028759204,0.007221371,0.010843951,0.014009725,164,6,231,2,0,-1818.2385,191.86758,746.6343,82.46247,752257.1,642.1778,132.84108,131.56169,131.6302,131.6302,0,1,663.9522,0,0,14.605469,14.605477,0,4,255,0,0,0,1,0,0,0
True,33349281,15999.99,0,11224.184,0.025858104,2.365946,3.145478,0.038588524,-0.23761244,82.84146,-0.015495729,0.040759362,9.314972E-05,-1.7075863,-0.0050785267,-0.0038807497,0.36460793,0.3744844,0.35956177,0.38440692,0.0928327,0.08596924,0.085292526,0.08952645,259.2633,258.9179,259.3268,259.24417,0,0,0,0,0,0,0,0,0,0,0,0,-0.0136335865,-0.011561947,-0.0018141597,0.0040800353,0.093828484,0.086743236,0.085311815,0.08961937,0.012058757,0.013270266,0.013856642,0.016810544,164,6,231,2,0,-1826.9512,191.86855,745.446,82.841805,752259.94,640.16064,132.81729,131.55643,131.65045,131.65045,0,1,672.8276,0,0,14.711858,14.711867,0,4,255,0,0,0,1,0,1,0
True,33349375,15999.99,0,11293.831,0.6430422,-2.0474048,3.9061136,-0.12889099,-0.26297832,83.259186,-0.007437245,0.013911816,0.022699554,-1.7047272,-0.0015810651,-0.0016011796,0.28618982,0.3088274,0.31946218,0.33828256,0.08434499,0.08720054,0.113017954,0.118307486,260.26828,260.24628,261.12357,261.14224,0,0,0,0,0,0,0,0,0,0,0,0,0.011457707,0.0123729035,0.014530614,0.017850693,0.085119665,0.08807396,0.11394822,0.1196466,0.0024394915,0.00521636,0.009089097,0.0113267,164,6,231,2,0,-1835.9575,191.87009,744.21313,83.2597,752253.5,636.0703,132.74287,131.48807,131.64987,131.64987,0,1,681.4637,0,0,14.821324,14.821334,0,4,255,0,0,0,1,0,2,0
True,33349500,15999.99,0,11367.513,0.83108264,0.68514466,3.741503,-0.045862198,-0.2613205,83.72281,0.052087344,-0.003894538,0.0034659808,-1.7043386,-0.003843947,0.00076609134,0.32240257,0.3309159,0.36286876,0.37493432,0.11061563,0.10463099,0.123598985,0.126495,262.13043,262.01736,262.7454,262.79926,0,0,0,0,0,0,0,0,0,0,0,0,0.0052845106,0.007181952,0.00168116,0.008628212,0.110741794,0.10487719,0.12361042,0.12678893,0.006881576,0.0079258755,0.01424982,0.015684325,164,6,231,2,0,-1846.2449,191.8721,742.8196,83.72322,752263.25,632.1025,132.69441,131.44023,131.69327,131.69327,0,1,691.32635,0,0,14.945643,14.945653,0,4,255,0,0,0,1,0,3,0
True,33349609,15999.99,0,11412.97,0.19365212,0.14857493,3.797681,0.0018396378,-0.2782899,84.175674,0.0020162337,-0.0025293618,-0.008630496,-1.7047241,-0.003691018,0.0011903095,0.31420642,0.31526762,0.34785888,0.34906754,0.08671085,0.083239354,0.10691201,0.10800223,263.13788,263.07263,263.8171,263.84723,0,0,0,0,0,0,0,0,0,0,0,0,-0.00010124862,0.0011910172,-0.0025136927,0.0021882628,0.08671091,0.08324787,0.10694156,0.108024396,0.0058761872,0.00600636,0.012465257,0.012608957,164,6,231,2,0,-1855.9982,191.87392,741.50525,84.17613,752358.6,629.5867,132.64156,131.39075,131.70273,131.70273,0,1,700.6761,0,0,15.062862,15.062871,0,4,255,0,0,0,1,0,4,0
True,33349703,15999.99,0,11470.606,-0.00020056963,-0.84908795,3.7291672,0.007265091,-0.2812233,84.53555,0.022262726,-0.000724084,-0.0147292875,-1.7048658,-0.00270801,0.0010773262,0.30048394,0.30009758,0.33300975,0.3388198,0.09098484,0.10464915,0.118229985,0.11590613,264.33987,264.61304,265.1597,265.12332,0,0,0,0,0,0,0,0,0,0,0,0,-0.0009626735,0.0005856664,-0.0022317166,0.0014890842,0.09098993,0.10465079,0.11825105,0.11591569,0.0041929,0.004145507,0.010699805,0.011390574,164,6,231,2,0,-1864.128,191.8748,740.4098,84.536026,752371.2,626.4178,132.58905,131.34406,131.71353,131.71353,0,1,708.4695,0,0,15.160103,15.160111,0,3,255,0,0,0,1,0,4,0
True,33349828,15999.99,0,11505.147,5.352082,1.6061484,2.2840514,0.45341396,-0.30254465,84.836655,0.020506019,0.019869791,0.00720753,-1.7045788,-0.004820981,-1.1143505E-05,0.33641896,0.34176484,0.36595616,0.36001247,0.10743164,0.10276638,0.09375359,0.0910795,265.78964,265.59006,265.7548,265.67407,0,0,0,0,0,0,0,0,0,0,0,0,-0.044034533,-0.041236635,-0.035669886,-0.02960178,0.11610598,0.110731155,0.1003099,0.095769204,0.008600917,0.009256676,0.014616888,0.01391023,164,6,231,2,0,-1873.7244,191.87407,739.1284,84.838394,752418.4,624.639,132.54564,131.3128,131.74083,131.74083,0,1,717.66736,0,0,15.274367,15.274376,0,3,255,0,0,0,1,0,5,0
True,33349937,15999.99,0,11536.759,1.3288045,-0.41626227,3.1490963,0.2274971,-0.29765627,85.19198,-0.07738509,0.027275523,0.00043436047,-1.7010219,-0.00262603,0.0005120306,0.44734898,0.4274503,0.31708238,0.33591408,0.048663754,0.05358092,0.09521975,0.09208393,265.74628,265.71747,266.88904,266.7441,0,0,0,0,0,0,0,0,0,0,0,0,-0.019856544,-0.019887025,-0.014360077,-0.0114165535,0.05255895,0.057152506,0.09629648,0.09278894,0.022208303,0.019767404,0.008806154,0.0110451095,164,6,231,2,0,-1883.4166,191.86601,737.8774,85.1928,752255.25,622.7054,132.49704,131.28165,131.73854,131.73854,0,1,726.95184,0,0,15.389334,15.389343,0,3,255,0,0,0,1,0,4,0
True,33350046,15999.99,0,11579.9,1.7303473,1.0277069,2.7560968,0.17844772,-0.28055358,85.46426,-0.02441828,0.02496025,-0.014303504,-1.6983153,-0.004578831,-0.0010541156,0.46253642,0.44501784,0.37192294,0.36164117,0.064239375,0.059719432,0.10385406,0.10416788,266.85162,266.63663,267.84192,267.7667,0,0,0,0,0,0,0,0,0,0,0,0,-0.01999789,-0.01756491,-0.014991382,-0.008516349,0.067280106,0.06224899,0.10493048,0.10451543,0.024071291,0.02192235,0.015326291,0.014103867,164,6,231,2,0,-1891.852,191.86993,736.81,85.464905,752259.3,620.3939,132.48251,131.26877,131.76698,131.76698,0,1,735.0302,0,0,15.488995,15.489004,0,3,255,0,0,0,1,0,3,0
True,33350156,15999.99,0,11624.407,1.3147051,1.1190912,3.2878768,0.1077137,-0.3238435,85.83169,-0.03388656,0.016054092,-0.00817536,-1.6957811,-0.0057188356,-0.0010346029,0.291788,0.28674418,0.32683846,0.3165544,0.071304664,0.068284675,0.0882548,0.090189904,268.09177,267.94943,268.70917,268.68625,0,0,0,0,0,0,0,0,0,0,0,0,-0.009733177,-0.009053628,-0.005470081,-0.0034388835,0.07196589,0.06888226,0.08842416,0.09025544,0.0031262003,0.002507493,0.009966087,0.008743383,164,6,231,2,0,-1901.7887,191.87997,735.56635,85.83236,752326.25,618.0918,132.43512,131.23416,131.78502,131.78502,0,1,744.5442,0,0,15.605923,15.605933,0,3,255,0,0,0,1,0,2,0
True,33350265,15999.99,0,11648.284,1.6001627,7.9919295,2.9429402,0.2141161,-0.33823195,86.10856,-0.22407871,0.0034906266,-0.046249043,-1.6948643,-0.016321983,0.00031591312,0.60045564,0.5476381,0.43977606,0.40105245,0.038349032,0.038872875,0.06559847,0.06649628,268.4886,268.46112,269.30536,269.29807,0,0,0,0,0,0,0,0,0,0,0,0,-0.010350485,-0.013589556,-0.018415414,-0.007284223,0.03972129,0.041179806,0.06813433,0.06689406,0.04098934,0.034510404,0.023393527,0.018789575,164,6,231,2,0,-1910.2404,191.93059,734.5263,86.10949,752285.06,616.7665,132.4805,131.27676,131.83763,131.83763,0,1,752.6413,0,0,15.704972,15.704983,0,3,255,0,0,0,1,0,0,0
True,33350375,15999.99,0,11462.187,-0.26326,15.317227,0.76751006,0.049355507,0.10193762,86.15165,-0.17181188,0.03070234,-0.07483652,-1.6931667,-0.036482666,-0.010471042,0.73422617,0.6793854,0.67323256,0.6107952,-0.13223371,-0.12746444,-0.042051155,-0.039315186,262.76453,262.68924,265.82846,265.7478,0,0,0,0,0,0,0,0,0,0,0,0,-0.0056272345,-0.008453192,-0.050532073,0.034631465,0.1323534,0.12774444,0.065740325,0.05239296,0.05739849,0.05067137,0.05114977,0.043726437,164,6,231,2,0,-1920.1584,192.20091,733.32104,86.15172,752261.75,626.22424,132.58337,131.39264,132.04607,132.04607,0,1,762.1361,0,0,15.820891,15.820902,0,3,255,162,0,0,1,0,254,175
True,33350484,15999.99,0,10993.347,1.8136408,11.818959,-22.412624,0.07667065,0.59198976,83.37284,-0.05999793,0.020885512,-0.10940732,-1.6905469,-0.045634907,-0.01787677,0.7044814,0.6087405,0.6277329,0.52632886,-0.24645329,-0.23853286,-0.1195718,-0.11898768,251.467,251.54414,255.20915,255.13777,0,0,0,0,0,0,0,0,0,0,0,0,0.001295728,-0.003030608,-0.034361016,0.02552251,0.2464567,0.23855211,0.12441099,0.121694155,0.053749807,0.042005613,0.045740202,0.033684015,164,6,231,2,0,-1928.6992,192.60631,732.28485,83.374985,468881.6,406.90833,132.76253,131.56111,132.13902,132.13902,0,1,770.3179,0,0,15.922491,15.9225025,0,3,158,255,0,0,1,0,252,129
True,33350593,15999.99,0,11008.07,3.2009912,8.385514,-13.250044,0.3543291,0.5278156,81.371025,-0.21523064,0.01756008,-0.09766961,-1.6882862,-0.05692675,-0.029919988,0.7007808,0.5969841,0.5289118,0.43256298,0.049118575,0.046443738,0.07699868,0.075900085,253.74507,253.61784,254.55128,254.48987,0,0,0,0,0,0,0,0,0,0,0,0,-0.024983587,-0.029778827,-0.0412746,-0.015559715,0.055107296,0.05517064,0.08736355,0.077478565,0.053295866,0.040563494,0.033991106,0.022535942,164,6,231,2,0,-1938.503,193.17183,731.1546,81.37351,752253.5,652.68146,132.88919,131.70152,132.15942,132.15942,0,1,779.71454,0,0,16.043154,16.043167,0,3,255,0,0,0,1,0,249,0
True,33350718,15999.99,0,11099.051,0.464739,6.8086233,1.643361,0.05044937,0.017796278,81.82399,-0.051822916,0.030716069,-0.13281877,-1.6846925,-0.07441588,-0.044159155,0.532583,0.44237286,0.5590417,0.4443145,0.09729888,0.08582909,0.106999785,0.11059172,256.13162,255.74687,256.56943,256.50455,0,0,0,0,0,0,0,0,0,0,0,0,-0.0059958124,-0.005120692,-0.02458556,0.013985073,0.09748345,0.085981704,0.10978799,0.111472465,0.03266365,0.0215979,0.037573323,0.023933113,164,6,231,2,0,-1947.9407,193.8454,730.08264,81.824,752443.8,647.51556,132.8905,131.70944,132.2572,132.2572,0,1,788.7597,0,0,16.159824,16.159838,0,3,255,0,0,0,1,0,245,0
True,33350828,15999.99,0,11134.573,1.0712982,5.6302667,3.3810515,-0.05499935,-0.1927765,82.23579,-0.09478824,0.017919686,-0.08049211,-1.6814404,-0.08317399,-0.05632834,0.4931239,0.42117348,0.47453693,0.3946394,0.068639845,0.06260296,0.08065828,0.08397018,256.8451,256.641,257.372,257.36063,0,0,0,0,0,0,0,0,0,0,0,0,0.005703981,0.0060610473,-0.0016455689,0.014714534,0.06887644,0.062895685,0.080675066,0.085249685,0.027823344,0.01899745,0.027526334,0.018027112,164,6,231,2,0,-1957.1191,194.55682,729.0462,82.23604,752329.4,645.2974,132.871,131.69693,132.29663,132.29663,0,1,797.5633,0,0,16.27275,16.272766,0,3,255,0,0,0,1,0,241,0
True,33350937,15999.99,0,11176.627,2.073336,6.6408997,3.5031784,-0.012117386,-0.15477574,82.56719,-0.12516062,0.058209457,-0.047920424,-1.678913,-0.09058524,-0.06209389,0.6254694,0.5794391,0.5204235,0.440338,0.049140166,0.050602216,0.079956114,0.09103962,257.62473,257.38977,258.46326,258.43585,0,0,0,0,0,0,0,0,0,0,0,0,0.06980112,0.07073804,-0.009939813,0.019841198,0.08536365,0.086973876,0.080571584,0.09317663,0.044057682,0.03841132,0.032981902,0.023460336,164,6,231,2,0,-1965.0289,195.23138,728.17065,82.56734,752340,642.90405,132.86575,131.7056,132.34987,132.34987,-3.4570513,1,805.14954,0,0,16.369669,16.369684,0,3,255,0,0,0,1,18,237,0
True,33351031,15999.99,0,11238.524,4.1934276,3.0671034,3.2970266,-0.3927946,-0.17549479,82.89448,-0.023703665,0.09654631,-0.08493975,-1.6681137,-0.09352578,-0.07187111,0.49852085,0.3603911,0.5190186,0.40279087,0.08221474,0.08037884,0.09546213,0.11593023,259.3048,258.81097,259.8371,259.78983,0,0,0,0,0,0,0,0,0,0,0,0,0.031562414,0.032335903,0.037336946,0.066133596,0.088065036,0.0866393,0.10250398,0.13346711,0.028485373,0.011541493,0.032814875,0.018996261,164,6,231,2,0,-1973.4099,195.99966,727.2858,82.89559,752263.9,639.2553,132.86362,131.69014,132.40051,132.40051,-7.887715,1,813.1934,0,0,16.471958,16.471975,0,3,255,0,0,0,1,0,232,0
True,33351156,15999.99,0,11285.727,4.928357,4.6166058,3.2441573,-0.26100874,-0.19481426,83.2915,-0.027895376,0.014210248,-0.063135624,-1.6615356,-0.09997271,-0.08013803,0.46894452,0.36299515,0.4841141,0.3740494,0.07931158,0.089099824,0.0888661,0.09357167,260.31406,260.43478,260.7719,260.79034,0,0,0,0,0,0,0,0,0,0,0,0,0.03013205,0.032362845,0.017497178,0.035527248,0.0848426,0.09479521,0.09057226,0.10008918,0.02485735,0.011860922,0.028664991,0.015579112,164,6,231,2,0,-1983.4767,196.96089,726.29755,83.29212,752258.06,636.629,132.86057,131.67378,132.4652,132.4652,-13.465718,1,822.8433,0,0,16.594225,16.59424,0,3,255,0,0,0,1,0,224,0
True,33351265,15999.99,0,11327.447,5.18887,2.1858058,3.288373,-0.062610626,-0.24524558,83.618324,-0.0678312,0.11728976,0.03491125,-1.6577679,-0.10198577,-0.08047782,0.40773645,0.3557831,0.41864637,0.35952732,0.062316168,0.08757532,0.0811203,0.10029569,261.21588,261.18246,261.8825,261.75696,0,0,0,0,0,0,0,0,0,0,0,0,0.19192538,0.20940687,0.012496917,0.02291435,0.20178865,0.22698167,0.08207726,0.10288,0.017349176,0.0109762475,0.020881362,0.013852544,164,6,231,2,0,-1992.0845,197.81151,725.5061,83.618706,752261.44,634.1992,132.84314,131.65651,132.49162,132.49162,-14.7,1,831.0909,0,0,16.698301,16.698317,0,3,255,0,0,0,1,127,219,0
True,33351375,15999.99,0,11392.14,14.810706,1.830994,2.5662913,-0.9316001,-0.22658536,83.88388,-0.031424835,0.40535152,0.09029629,-1.6260319,-0.10232099,-0.07641473,0.39795148,0.36532295,0.4136234,0.38452104,0.0854885,0.18571867,0.07713146,0.15015966,262.90787,263.07593,263.31085,262.99356,0,0,0,0,0,0,0,0,0,0,0,0,0.5660168,0.67022043,0.12956478,0.15994279,0.5724363,0.695476,0.15078558,0.21938464,0.016148891,0.0121464655,0.020284172,0.016824111,164,6,231,2,0,-2001.9696,198.80844,724.7286,83.88936,752282.6,630.63367,133.05144,131.78587,132.5735,132.5735,-14.7,1,840.64355,0,0,16.817276,16.817291,0,3,255,0,0,0,1,127,217,0
True,33351484,15999.99,0,11431.169,23.929956,2.556563,2.6685858,-2.822574,-0.19515693,83.98291,-0.054378945,0.62175107,0.14236568,-1.5735502,-0.10150843,-0.07051818,0.45677888,0.40142918,0.42564496,0.35378054,0.08387026,0.2446626,0.07500359,0.19322291,263.69202,264.1086,264.22058,263.87894,0,0,0,0,0,0,0,0,0,0,0,0,0.6386833,0.79648364,0.32392734,0.40294397,0.6441666,0.8332143,0.33249733,0.44687688,0.023365036,0.016575485,0.021713443,0.013169296,164,6,231,2,0,-2010.226,199.64488,724.2964,84.03055,752309.56,628.51636,133.4425,132.02896,132.76016,132.76016,-14.7,1,848.5379,0,0,16.916243,16.91626,0,3,255,0,0,0,1,78,215,0
True,33351593,15999.99,0,11458.758,29.001005,1.2673712,3.6592312,-4.2690244,-0.1552814,84.09657,-0.067553885,0.35069528,0.14554584,-1.5146632,-0.09934601,-0.062463395,0.4650009,0.3739102,0.42266485,0.32293704,0.069697924,0.17115335,0.10273124,0.21894848,263.64572,264.08252,264.81824,265.28397,0,0,0,0,0,0,0,0,0,0,0,0,0.3748404,0.45856488,0.42869738,0.55514663,0.38126516,0.4894642,0.4408346,0.59676313,0.024373598,0.013199832,0.02135913,0.009502236,164,6,231,2,0,-2020.2047,200.65479,724.13416,84.204994,752263.7,626.83594,133.77734,132.17317,133.18648,133.18648,0,1,858.1695,0,0,17.035515,17.03553,0,3,255,0,0,0,1,0,210,0
True,33351703,15999.99,0,11487.949,28.544855,1.424078,3.1791043,-3.2637,-0.15044747,84.30291,-0.014731021,0.24414258,0.049994137,-1.4841646,-0.10118204,-0.054222975,0.45960766,0.3169321,0.4770456,0.30915225,0.09748172,0.2554321,0.10609417,0.19202904,264.1861,266.23807,265.13736,265.58432,0,0,0,0,0,0,0,0,0,0,0,0,0.6304721,0.7639921,0.33720475,0.42126963,0.6379638,0.8055616,0.35350108,0.4629722,0.023712032,0.0062105358,0.027824596,0.007863324,164,6,231,2,0,-2030.1566,201.66913,724.41815,84.36619,752302.5,625.36945,134.14262,132.30745,133.62912,133.62912,0,1,867.6708,0,0,17.15426,17.154274,0,3,255,0,0,0,1,97,202,0
True,33351828,15999.99,0,11487.168,27.671698,2.3876014,3.4064493,-2.8614507,-0.15134779,84.521706,-0.03420353,0.22686915,0.052069534,-1.4516958,-0.1030184,-0.050553016,0.49168667,0.34933645,0.5118219,0.36526337,0.061598964,0.16746289,0.08918539,0.16177773,264.36996,265.45874,265.3634,265.6248,0,0,0,0,0,0,0,0,0,0,0,0,0.26080567,0.31987876,0.28606462,0.36895907,0.2679814,0.36106265,0.2996448,0.40286827,0.027647048,0.010185458,0.031959243,0.014534522,164,6,231,2,0,-2039.6691,202.6444,725.0543,84.57027,752328.25,625.4817,134.52757,132.49872,133.9636,133.9636,0,1,876.9049,0,0,17.26773,17.267748,0,3,255,0,0,0,1,0,192,0
True,33351921,15999.99,0,11510.8955,21.582386,1.1136513,3.212126,-1.6650352,-0.15371788,84.802795,-0.030177472,0.017362248,-0.0016050669,-1.4410771,-0.103807926,-0.05032039,0.47362486,0.3509717,0.504853,0.34513727,0.06103924,0.1053315,0.113367476,0.1387221,264.71542,265.4973,266.10147,266.36758,0,0,0,0,0,0,0,0,0,0,0,0,0.17222725,0.19739269,0.16423975,0.20265213,0.18272388,0.22373779,0.19956672,0.24558441,0.02543147,0.01038605,0.031130694,0.0121416785,164,6,231,2,0,-2048.0105,203.51106,725.8818,84.819275,752267,624.09644,134.63577,132.5112,134.17403,134.17403,0,1,884.9008,0,0,17.367239,17.367256,0,3,255,0,0,0,1,0,182,0
True,33352046,15999.99,0,11559.981,9.464936,0.83795834,2.9091544,-0.2948923,-0.16597566,85.149895,-0.019213308,-0.044205118,-0.012534903,-1.444166,-0.106930844,-0.0478378,0.3895324,0.3598708,0.43699086,0.3717662,0.07428839,0.073629774,0.13647254,0.1411911,265.84753,266.0409,267.42715,267.62912,0,0,0,0,0,0,0,0,0,0,0,0,0.040550627,0.04091365,0.018728241,0.03418331,0.084635206,0.084233426,0.1377516,0.14527018,0.015116151,0.011477668,0.023062386,0.015307657,164,6,231,2,0,-2057.8394,204.55432,727.0526,85.15056,752263.7,621.4748,134.66013,132.4924,134.26222,134.26222,0,1,894.5349,0,0,17.484346,17.484362,0,3,255,0,0,0,1,0,171,0
True,33352156,15999.99,0,11580.415,2.3372343,3.2904797,2.9701984,0.062160492,-0.19510552,85.4484,-0.0060597607,-0.016171165,0.01808988,-1.4468399,-0.11224956,-0.047565002,0.39304996,0.40557182,0.45232454,0.45037824,0.082648665,0.070092775,0.10448942,0.10191142,266.98935,266.81104,267.72812,267.74835,0,0,0,0,0,0,0,0,0,0,0,0,-0.005374344,-0.004030573,-0.020741222,0.0015382658,0.08282322,0.070208564,0.10652811,0.101923026,0.015547637,0.017083649,0.024885446,0.024654046,164,6,231,2,0,-2066.3176,205.4792,728.11145,85.44865,752353.6,620.47815,134.63829,132.48486,134.3047,134.3047,0,1,902.69934,0,0,17.585083,17.585098,0,3,255,0,0,0,1,0,167,0
True,33352265,15999.99,0,11630.77,-0.12507582,0.5035601,2.738202,0.06912136,-0.19893241,85.778595,-0.03465767,-0.0014069314,0.06251591,-1.4475937,-0.113036625,-0.041998968,0.38339457,0.44027105,0.4124247,0.44301292,0.07162605,0.06647074,0.11796629,0.114489384,267.8675,267.7911,269.0743,268.9809,0,0,0,0,0,0,0,0,0,0,0,0,-0.00957612,-0.008679153,-0.017549574,0.00068090245,0.07226336,0.06703497,0.11926454,0.11449141,0.014363244,0.02134008,0.020141657,0.023778364,164,6,231,2,0,-2076.2415,206.58957,729.3509,85.77885,752261.75,617.6124,134.57695,132.45128,134.31612,134.31612,0,1,912.4784,0,0,17.702612,17.702625,0,3,255,0,0,0,1,0,168,0
True,33352375,15999.99,0,11659.875,-0.25204444,2.7183568,2.6755733,0.047449112,-0.22604744,86.08936,-0.020118028,-0.0034261788,0.06359866,-1.4476067,-0.117672704,-0.035817772,0.41437855,0.4801423,0.40758562,0.48176593,0.08282655,0.07629154,0.08721238,0.08741916,269.04584,268.9347,269.4276,269.44318,0,0,0,0,0,0,0,0,0,0,0,0,-0.007989008,-0.005929767,-0.012826336,0.006918646,0.083210945,0.076521635,0.088150516,0.087692514,0.018163938,0.026230939,0.01956632,0.02838581,164,6,231,2,0,-2086.1106,207.71834,730.57837,86.08966,752319.56,616.1916,134.5443,132.43797,134.35117,134.35117,-3.249858,1,921.9806,0,0,17.819075,17.819092,0,3,255,0,0,0,1,0,177,0
True,33352484,15999.99,0,11713.302,-0.23066172,-1.3429208,2.5035262,0.046278954,-0.21910843,86.32427,-0.03251969,-0.004041361,0.08676773,-1.4479554,-0.11539762,-0.028477345,0.34116697,0.4392479,0.32258913,0.42878523,0.07864183,0.07480168,0.12879871,0.12644744,269.73032,269.68216,270.99243,270.9064,0,0,0,0,0,0,0,0,0,0,0,0,-0.0075163837,-0.00647715,-0.009865842,0.00066375366,0.07900021,0.075081594,0.129176,0.12644918,0.00918334,0.021214575,0.00946087,0.0220868,164,6,231,2,0,-2094.3203,208.66675,731.5974,86.324554,752097.6,613.04926,134.48328,132.39523,134.35591,134.35591,-5.894842,1,930.0174,0,0,17.915672,17.91569,0,3,255,0,0,0,1,0,188,0
True,33352593,15999.99,0,11769.567,-0.22243287,-2.0237343,2.4252107,0.04828167,-0.22918534,86.61193,0.04597843,-0.0032494904,0.06097067,-1.4484254,-0.114363976,-0.01964673,0.31764475,0.39061418,0.35123304,0.3997117,0.11326866,0.106167756,0.1420556,0.14086181,271.20865,271.096,272.1911,272.14777,0,0,0,0,0,0,0,0,0,0,0,0,-0.008045412,-0.0060805716,-0.010754625,-0.0013993024,0.11355403,0.10634174,0.14246212,0.14086875,0.0062979534,0.01524885,0.012866415,0.01863017,164,6,231,2,0,-2104.5205,209.83775,732.85925,86.61224,752261.5,610.3656,134.42178,132.347,134.37234,134.37234,0,1,939.8072,0,0,18.03529,18.035307,0,3,255,0,0,0,1,0,208,0
True,33352687,15999.99,0,11823.436,-0.2860191,-1.7875837,2.1372705,0.03816986,-0.26459405,86.84772,0.10083469,-0.00057913933,0.050883725,-1.4487003,-0.112929374,-0.0142290685,0.30171764,0.3459419,0.35531762,0.41201037,0.18859978,0.183658,0.13643125,0.1322169,273.67545,273.60547,272.77316,272.70822,0,0,0,0,0,0,0,0,0,0,0,0,-0.009015127,-0.0046501392,-0.009173422,0.0016068349,0.18881512,0.18371686,0.13673931,0.13222666,0.0043442324,0.009769063,0.013352044,0.02009239,164,6,231,2,0,-2113.021,210.7944,733.90717,86.84813,752702,608.2847,134.36902,132.30807,134.3795,134.3795,0,1,947.9892,0,0,18.134634,18.134651,0,3,255,0,0,0,1,0,228,0
True,33352812,15999.99,0,11846.223,-0.22694771,-6.3278112,3.533403,0.022332191,-0.36956245,87.1709,0.020730376,0.00033823514,0.03764524,-1.4488328,-0.10326749,-0.008264816,0.20618337,0.2650409,0.23282489,0.2654336,0.115910485,0.13120891,0.13678369,0.13139053,273.13647,273.4164,273.81998,273.67694,0,0,0,0,0,0,0,0,0,0,0,0,-0.004846732,-0.0032074538,-0.00447182,-0.0034959007,0.116011776,0.13124812,0.13685676,0.13143702,-0.0073746108,-0.00015477091,-0.0012114346,0.0026654974,164,6,231,2,0,-2122.7695,211.81125,735.10596,87.171684,752138.1,606.24054,134.3025,132.2497,134.35915,134.35915,0,1,957.3095,0,0,18.248196,18.248213,0,3,255,0,0,0,1,0,254,0
True,33352921,15999.99,0,11927.664,0.10830641,-5.547566,2.5339193,-0.0029621124,-0.39337942,87.43984,0.09671847,0.019576646,0.032287106,-1.4483968,-0.09745917,-0.0041381875,0.15241438,0.19802731,0.21833573,0.25913084,0.16403502,0.2057499,0.1716122,0.1790971,274.97055,275.71304,275.47574,275.58328,0,0,0,0,0,0,0,0,0,0,0,0,0.11584375,0.120622896,0.0007272449,0.002096708,0.20081648,0.23850137,0.17161374,0.17910936,-0.013970261,-0.008375086,-0.002934087,0.0019161478,164,6,231,2,0,-2131.8994,212.7017,736.2265,87.44072,752259.44,602.48706,134.22177,132.17958,134.34752,134.34752,0,1,966.032,0,0,18.35403,18.354046,0,3,255,0,0,0,1,63,22,0
True,33353031,15999.99,0,11965.352,5.954028,-3.8827808,2.5131893,-0.6662531,-0.44851226,87.75131,0.11360932,0.17834044,0.042319532,-1.4318928,-0.09218209,0.0019307389,0.2064261,0.21912336,0.25591126,0.2628332,0.16342868,0.29121676,0.12072374,0.16576554,276.29724,278.14017,275.77002,275.94104,0,0,0,0,0,0,0,0,0,0,0,0,0.045967035,0.051263425,0.09354627,0.100288704,0.16977014,0.29569435,0.15272565,0.1937422,-0.007344838,-0.0057873093,0.001533363,0.0023563318,164,6,231,2,0,-2142.3633,213.64868,737.5583,87.75499,752262.8,600.7217,134.24992,132.18729,134.35822,134.35822,0,1,976.0479,0,0,18.474903,18.47492,0,3,255,0,0,0,1,0,48,0
True,33353125,15999.99,0,11982.315,6.292593,-6.612889,2.887423,-1.1808281,-0.4560557,88.00994,0.0740512,0.060616046,0.06728369,-1.4192498,-0.08343627,0.0049960497,0.19160463,0.19681476,0.2319261,0.24342865,0.12625511,0.20520826,0.13257828,0.16009283,276.06772,277.60046,276.5836,276.75073,0,0,0,0,0,0,0,0,0,0,0,0,0.1248812,0.13804418,0.1328944,0.14192916,0.17758285,0.24731886,0.18771768,0.21394767,-0.009162933,-0.008523826,-0.0013182946,4.9274415E-05,164,6,231,2,0,-2151.056,214.36919,738.73206,88.01904,752258.25,599.59094,134.19395,132.14351,134.36984,134.36984,0,1,984.3729,0,0,18.575056,18.575075,0,3,255,0,0,0,1,0,66,0
True,33353250,15999.99,0,11971.597,6.3437157,-3.8004994,2.6464133,-0.51428413,-0.42859372,88.31945,0.0038145115,-0.02058605,0.036369685,-1.4183006,-0.07780578,0.009760154,0.20414658,0.19484392,0.23401351,0.22771907,0.07448702,0.09283499,0.10168039,0.10747759,275.777,276.27255,276.65372,276.79318,0,0,0,0,0,0,0,0,0,0,0,0,0.05795839,0.06214416,0.050118476,0.05320143,0.09437951,0.11171495,0.11336121,0.11992424,-0.0076244585,-0.008765582,-0.0010701157,-0.0018184781,164,6,231,2,0,-2161.1362,215.13092,740.18097,88.32198,752255.1,600.0625,134.16838,132.09988,134.4085,134.4085,0,1,994.1369,0,0,18.690882,18.690899,0,3,255,0,0,0,1,0,82,0
True,33353359,15999.99,0,12033.137,1.7599612,-5.261347,2.3644407,0.013533592,-0.38356027,88.585655,0.018388819,-0.030968232,0.02954851,-1.422204,-0.07079238,0.0107256025,0.21673281,0.2287321,0.295647,0.282175,0.08887552,0.09371112,0.149413,0.13848168,276.9208,277.1785,278.3294,278.3887,0,0,0,0,0,0,0,0,0,0,0,0,0.0023412155,0.0032669012,-0.006528335,-0.00617088,0.08890635,0.09376805,0.14955556,0.1386191,-0.006080549,-0.0046086423,0.006257646,0.004655931,164,6,231,2,0,-2171.2952,215.8519,741.6988,88.58649,752261.94,596.8393,134.10422,132.04092,134.41881,134.41881,0,1,1003.9078,0,0,18.807304,18.807323,0,3,255,0,0,0,1,0,92,0
True,33353484,15999.99,0,12063.558,-0.5519674,-1.7092202,2.1494613,0.0779562,-0.34865084,88.865326,0.061368927,-0.004985635,0.052711613,-1.4241217,-0.06947883,0.01353083,0.24234375,0.29310134,0.3073786,0.35159555,0.121671066,0.10809105,0.12029732,0.118620135,278.52466,278.2609,278.72345,278.7069,0,0,0,0,0,0,0,0,0,0,0,0,-0.011427619,-0.009044241,-0.011565553,-0.008098744,0.12220654,0.10846876,0.12085201,0.11889628,-0.0029389486,0.0032873005,0.0076524466,0.01290952,164,6,231,2,0,-2181.6248,216.5483,743.2411,88.86605,752262.25,595.6005,134.05713,132.01471,134.44955,134.44955,0,1,1014.0042,0,0,18.925257,18.925272,0,3,255,0,0,0,1,0,97,0
True,33353593,15999.99,0,12080.653,-0.522501,-3.7071066,2.8083646,0.02245903,-0.37219205,89.158005,-0.0015759377,0.00032054912,0.005407124,-1.424129,-0.063290216,0.01797805,0.25286576,0.25597405,0.27516013,0.29443678,0.07722209,0.079888575,0.099670865,0.10033053,278.4939,278.5421,279.24796,279.2636,0,0,0,0,0,0,0,0,0,0,0,0,-0.0032889694,-0.0022453277,-0.002617014,-0.002541911,0.07729209,0.07992013,0.09970521,0.100362726,-0.001648251,-0.0012669675,0.0038219132,0.006113764,164,6,231,2,0,-2191.7883,217.17903,744.74884,89.15878,752249,594.6282,133.99268,131.9583,134.43483,134.43483,0,1,1023.9096,0,0,19.040918,19.040936,0,3,255,0,0,0,1,0,97,0
True,33353703,15999.99,0,12150.714,-0.112387285,-0.23611243,1.8871975,-0.023376465,-0.28162217,89.3982,0.101001695,0.009407812,0.045624662,-1.4237432,-0.0634407,0.020806018,0.26990792,0.31473055,0.33513764,0.3969452,0.13907818,0.15065575,0.12816794,0.12748589,280.4804,280.79462,280.62134,280.5839,0,0,0,0,0,0,0,0,0,0,0,0,0.018957764,0.022083933,9.157617E-05,0.008288432,0.1403643,0.15226574,0.12816797,0.12775505,0.00044224784,0.0059404783,0.010952797,0.018301256,164,6,231,2,0,-2201.9111,217.79977,746.24585,89.398636,752620.8,591.7131,133.9578,131.94421,134.48961,134.48961,-2.3598442,1,1033.6476,0,0,19.155727,19.155746,0,3,255,0,0,0,1,4,94,0
True,33353828,15999.99,0,12157.232,1.6190157,-0.34564158,2.4042237,-0.2004757,-0.3270931,89.67105,0.053621132,0.04273021,0.07500719,-1.4196441,-0.062341392,0.025946863,0.26447818,0.31908855,0.30087376,0.3516673,0.10494565,0.115680374,0.0919644,0.0994335,280.74768,280.7755,280.78262,280.7522,0,0,0,0,0,0,0,0,0,0,0,0,0.012018102,0.014432609,0.0228961,0.025874833,0.10563155,0.11657722,0.094771735,0.10274496,-0.00022379681,0.0064750575,0.0068790726,0.012918051,164,6,231,2,0,-2211.7056,218.38066,747.7045,89.671875,752446.94,591.15393,133.92764,131.92459,134.51146,134.51146,-7.092758,1,1043.1886,0,0,19.266502,19.266523,0,3,255,0,0,0,1,0,87,0
True,33353937,15999.99,0,12183.385,1.7216034,-1.3784938,2.518881,-0.21311665,-0.32611132,89.92077,0.0058796625,0.002573491,0.041828718,-1.4174012,-0.060148694,0.032095157,0.2730621,0.32895976,0.307018,0.33778882,0.07752108,0.07622955,0.09742956,0.104039185,280.8868,280.83597,281.6004,281.68777,0,0,0,0,0,0,0,0,0,0,0,0,0.020798968,0.021893185,0.020515913,0.023364436,0.08026279,0.07931113,0.09956617,0.10663043,0.0008291602,0.007685926,0.0076095797,0.011268001,164,6,231,2,0,-2221.0813,218.92288,749.1223,89.921616,752269.5,589.62994,133.89229,131.88907,134.53006,134.53006,-13.696989,1,1052.1975,0,0,19.37227,19.372293,0,3,255,0,0,0,1,0,77,0
True,33354046,15999.99,0,12206.839,-7.5968494,2.9296856,2.0760255,-0.15497017,-0.2594176,90.141785,-0.021129226,-0.21853225,-0.013423294,-1.4276447,-0.063051306,0.03349026,0.34920225,0.43543756,0.38090867,0.47238132,0.11523773,0.06462166,0.100887835,0.0676558,281.74042,281.6406,281.9138,282.14685,0,0,0,0,0,0,0,0,0,0,0,0,-0.4832827,-0.41706145,-0.013022943,0.0028376258,0.49683186,0.42203817,0.101724885,0.06771529,0.010168996,0.02074717,0.01639463,0.027270049,164,6,231,2,0,-2231.008,219.50533,750.6017,90.142296,752326.5,588.60706,133.95638,132.0101,134.57698,134.57698,-14.7,1,1061.8308,0,0,19.48392,19.483942,0,3,255,0,0,0,1,-127,62,0
True,33354140,15999.99,0,11851.813,12.865727,-4.051805,-108.46465,8.977321,1.4597167,46.172604,0.25288826,-0.5556453,0.016583823,-1.4663241,-0.032374624,0.04337776,0.31912115,0.34852013,0.15442358,0.17396863,7.140979,7.687305,13.049447,12.576221,230.64267,245.59808,292.97208,292.94965,0,0,0,0,0,0,0,0,0,0,0,0,-2.453241,-2.316848,-2.4301918,-2.381529,7.550627,8.028851,13.273806,12.799727,0.0064790584,0.010085326,-0.01053277,-0.008209009,164,6,231,2,0,-2236.5574,219.9032,751.9466,47.05988,0,0,137.93582,135.74728,137.47702,137.47702,0,1,1067.1781,0,0,19.580675,19.580696,0,3,255,0,0,0,1,-127,39,0
True,33354250,15999.99,0,10781.606,-5.5184417,-4.766754,-10.6157465,11.81796,0.45644832,46.031277,-0.31518725,-0.8205458,-0.034321547,-1.5448946,-0.038311675,0.043853324,0.30098522,0.3716015,0.06564135,0.06691254,2.5594192,0.8382912,11.049859,10.328214,169.88647,154.37599,296.5497,295.4007,0,0,0,0,0,0,0,0,0,0,0,0,-3.1776927,-2.724192,-2.5895839,-2.4819837,4.08024,2.850255,11.349243,10.6222515,0.0042543896,0.012916632,-0.021088319,-0.020937184,164,6,231,2,0,-2241.7063,220.24098,753.4696,47.52631,0,0,148.2011,147.21594,138.51295,138.51295,-9.112336,1,1072.1522,0,0,19.694426,19.69445,0,3,255,0,0,0,1,-127,11,0
True,33354375,15999.99,0,8018.6826,-12.259987,2.5846527,10.113078,14.987409,-0.31328887,46.08101,-0.05828201,-0.9030554,-0.0050847987,-1.6464901,-0.05900456,0.0483903,0.31177238,0.40271553,0.40322277,0.52002853,3.542223,1.6364169,4.7158065,2.1294973,180.53975,164.39485,204.73358,179.40067,0,0,0,0,0,0,0,0,0,0,0,0,-3.8939145,-3.56782,-3.2501183,-2.666247,5.2640204,3.9252007,5.727312,3.4122765,0.005577609,0.016733278,0.01904761,0.03293495,164,6,231,2,0,-2246.8594,220.56432,754.836,48.45802,63507.215,75.07941,156.20581,156.65158,152.25928,152.25928,0,1,1077.1215,0,0,19.805696,19.80572,0,3,255,0,0,0,1,-127,241,0
True,33354484,15999.99,0,6952.407,-14.495961,0.17208624,6.619684,17.554386,-0.13761148,45.238552,0.0708201,-0.79477376,-0.017134225,-1.7409351,-0.051301237,0.051683534,0.27023366,0.35096833,0.41186768,0.5028148,2.2036495,1.1251671,1.8350557,1.2731271,163.8773,157.30959,160.87526,160.21616,0,0,0,0,0,0,0,0,0,0,0,0,-3.966474,-3.4369879,-4.149113,-3.6614168,4.537509,3.6164742,4.536802,3.8764448,0.0004822053,0.010385636,0.020075426,0.030888371,164,6,231,2,0,-2252.2432,220.92273,756.03217,48.525272,138562.1,190.01314,163.9233,165.69405,161.75742,161.75742,0,1,1082.2595,0,0,19.919537,19.919561,0,3,255,0,0,0,1,0,219,0
True,33354578,15999.99,0,6734.725,-13.409174,-1.9438666,4.1775246,19.55659,0.09503776,44.129883,0.103806846,-0.7412105,-0.01470292,-1.8153692,-0.03786351,0.05336475,0.2318447,0.30052498,0.29496428,0.39870283,1.7965014,1.2270772,1.8462247,1.2822318,155.8205,154.00067,156.04416,155.70192,0,0,0,0,0,0,0,0,0,0,0,0,-4.459298,-4.122223,-4.9259963,-4.315646,4.807573,4.300981,5.260607,4.502102,-0.00422683,0.004197933,0.006176483,0.018510222,164,6,231,2,0,-2256.9043,221.21373,756.90607,48.2692,175509.39,248.85034,169.98604,172.96378,168.6991,168.6991,0,1,1086.7181,0,0,20.017704,20.01773,0,3,255,0,0,0,1,0,202,0
True,33354703,15999.99,0,6692.928,-12.146935,-3.0604546,3.4041462,22.030582,0.07223025,42.57555,0.043136023,-0.7763493,-0.041790582,-1.9025896,-0.026991965,0.051919483,0.17104098,0.21781982,0.19928281,0.25517088,1.8628129,1.0747555,2.153873,1.5733773,156.27304,152.73697,154.69983,154.51028,0,0,0,0,0,0,0,0,0,0,0,0,-4.2978635,-3.8109548,-5.435228,-4.7905736,4.684197,3.9596057,5.846441,5.0423317,-0.011685401,-0.00594721,-0.0051993392,0.0014453381,164,6,231,2,0,-2262.2634,221.50401,757.7669,47.937763,212763.58,303.55905,176.85165,180.8626,175.7604,175.7604,0,1,1091.8384,0,0,20.1307,20.130726,0,3,255,0,0,0,1,117,186,0
True,33354812,15999.99,0,6614.046,-11.342715,-1.956205,5.440733,24.381773,0.043404073,41.066418,-0.006998319,-0.74466205,0.0047645112,-1.9899311,-0.019449525,0.050740857,0.19358805,0.2676819,0.18958025,0.23939948,0.5932191,0.17290756,2.4186234,2.0072384,151.53773,150.33058,153.52934,153.92921,0,0,0,0,0,0,0,0,0,0,0,0,-0.92573357,0.6049338,-5.7638483,-5.416388,1.099496,0.6291597,6.250735,5.776354,-0.008919634,0.00016919151,-0.0063529015,-0.0004297644,164,6,231,2,0,-2267.6326,221.75206,758.47064,47.75901,251843.89,363.25473,180.54771,183.13077,182.86832,182.86832,0,1,1096.962,0,0,20.244078,20.244102,0,3,255,0,0,0,1,127,173,0
True,33354921,15999.99,0,6537.5054,-6.899884,-0.99660534,2.6568458,26.416147,0.013054714,39.55717,0.026940025,-0.46703658,-0.01523944,-2.0581715,-0.014448642,0.052692693,0.24975331,0.28692025,0.25535965,0.2780293,0.21284878,0.5100119,2.7308857,2.4205053,148.06691,151.52971,151.6607,151.5791,0,0,0,0,0,0,0,0,0,0,0,0,-0.3751279,1.9241768,-6.392706,-6.098021,0.4313068,1.9906201,6.951577,6.5608463,-0.0020300448,0.0025290884,0.001467783,0.004163038,164,6,231,2,0,-2273.007,221.98447,759.0539,47.566612,300578.78,439.22525,177.95905,183.56094,190.79324,190.79324,-5.879999,1,1102.0842,0,0,20.357594,20.357618,0,3,255,0,0,0,1,127,163,0
True,33355031,15999.99,0,6638.6895,-5.343743,-2.315795,2.4817944,27.269775,-0.068902284,38.797443,0.017031208,-0.19043793,-0.008793439,-2.094747,-0.009185151,0.050389573,0.18180001,0.22210471,0.20051865,0.21718754,0.35671002,0.54600585,3.2727907,2.947384,150.4416,152.55602,154.63332,153.96838,0,0,0,0,0,0,0,0,0,0,0,0,-0.6782568,1.5578103,-6.664898,-6.292619,0.7663382,1.6507257,7.425094,6.9486785,-0.010365631,-0.0054215975,-0.0050524063,-0.0030706003,164,6,231,2,0,-2278.3484,222.18927,759.5609,47.422432,329847.88,474.5413,175.54044,183.95297,197.88812,197.88812,-5.879999,1,1107.1743,0,0,20.470661,20.470688,0,4,255,0,0,0,1,127,154,0
