IsRaceOn,TimestampMS,EngineMaxRpm,EngineIdleRpm,CurrentEngineRpm,AccelerationX,AccelerationY,AccelerationZ,VelocityX,VelocityY,VelocityZ,AngularVelocityX,AngularVelocityY,AngularVelocityZ,Yaw,Pitch,Roll,NormalizedSuspensionTravelFrontLeft,NormalizedSuspensionTravelFrontRight,NormalizedSuspensionTravelRearLeft,NormalizedSuspensionTravelRearRight,TireSlipRatioFrontLeft,TireSlipRatioFrontRight,TireSlipRatioRearLeft,TireSlipRatioRearRight,WheelRotationSpeedFrontLeft,WheelRotationSpeedFrontRight,WheelRotationSpeedRearLeft,WheelRotationSpeedRearRight,WheelOnRumbleStripFrontLeft,WheelOnRumbleStripFrontRight,WheelOnRumbleStripRearLeft,WheelOnRumbleStripRearRight,WheelInPuddleDepthFrontLeft,WheelInPuddleDepthFrontRight,WheelInPuddleDepthRearLeft,WheelInPuddleDepthRearRight,SurfaceRumbleFrontLeft,SurfaceRumbleFrontRight,SurfaceRumbleRearLeft,SurfaceRumbleRearRight,TireSlipAngleFrontLeft,TireSlipAngleFrontRight,TireSlipAngleRearLeft,TireSlipAngleRearRight,TireCombinedSlipFrontLeft,TireCombinedSlipFrontRight,TireCombinedSlipRearLeft,TireCombinedSlipRearRight,SuspensionTravelMetersFrontLeft,SuspensionTravelMetersFrontRight,SuspensionTravelMetersRearLeft,SuspensionTravelMetersRearRight,CarOrdinal,CarClass,CarPerformanceIndex,DrivetrainType,NumCylinders,PositionX,PositionY,PositionZ,Speed,Power,Torque,TireTempFl,TireTempFr,TireTempRl,TireTempRr,Boost,Fuel,Distance,BestLapTime,LastLapTime,CurrentLapTime,CurrentRaceTime,Lap,RacePosition,Accelerator,Brake,Clutch,Handbrake,Gear,Steer,NormalDrivingLine,NormalAiBrakeDifference
True,23997109,15999.99,0,0,0.15634577,-0.06377695,-0.1895397,-0.00966383,-9.190518E-05,0.0019676057,4.6922825E-05,0.0011794929,-0.0010661876,0.7264186,-0.0018722393,5.152326E-05,0.27646914,0.25550783,0.24367787,0.24287537,0.00013631998,0.00020583447,-0.018243238,0.021676978,0.0060992115,0.0060992115,0.0060992115,0.0060992115,0,0,0,0,0,0,0,0,0,0,0,0,0.019332439,0.012233708,-0.0031354977,-0.0053842226,0.01933292,0.012235439,0.01851073,0.022335649,0.0012470894,-0.0013241582,7.8905374E-05,-1.6506761E-05,164,6,231,2,0,309.50815,569.28705,2904.14,0.009862531,0,0,161.16849,161.03505,161.98772,161.98772,-14.7,1,0,0,0,0,267.21335,0,0,0,0,0,255,1,-127,0,0
True,24166796,15999.99,0,118.53809,-0.15022397,-0.010781482,5.3931055,-0.0070999563,-0.0035474338,0.6051332,-0.027864836,-0.001175443,-0.012138025,2.2024546,-0.0531142,0.04974579,0.25438648,0.25679827,0.25136113,0.2544879,0.62642187,-0.036818016,0.45565024,1.2062316,2.2371652,3.4264555,2.4508834,2.922351,0,0,0,0,0,0,0,0,0,0,0,0,0.020586466,0.020777456,0.009114402,0.0092712045,0.62676,0.042276103,0.4557414,1.2062672,-0.0014617108,-0.0011658669,0.0009923875,0.001364138,164,6,231,2,0,-33.241188,258.33322,3191.9272,0.6051852,11946.28,894.1388,86.86885,85.4317,90.37033,90.37033,0,1,-60.54727,0,0,0.11570813,0.115708135,0,8,255,0,0,0,1,0,64,0
True,24166906,15999.99,0,335.54266,-0.08306408,-0.0059710443,11.924393,-0.0001449585,-0.0078049675,1.9143435,-0.041725002,-0.00591039,-0.020619288,2.2020082,-0.056784518,0.048148435,0.22742549,0.24138074,0.26688632,0.28438312,2.4890015,0.4164713,0.96192247,0.5842358,10.190144,6.6911526,7.678621,7.071851,0,0,0,0,0,0,0,0,0,0,0,0,0.07324524,0.07242759,-0.0052285553,-0.004208692,2.490079,0.42272225,0.96193665,0.5842509,-0.004768919,-0.0030570775,0.0028382204,0.00491846,164,6,231,2,0,-33.14162,258.33948,3191.8542,1.9143595,53259.223,1546.6406,87.25258,85.5712,90.64299,90.64299,0,1,-60.453712,0,0,0.21628544,0.21628544,0,7,255,0,0,0,1,0,64,0
True,24167015,15999.99,0,522.8613,-0.10098362,-0.008092225,13.3264475,-0.005500436,-0.015519157,3.2934532,-0.027500538,-0.0075074425,-0.010940433,2.2011917,-0.060214516,0.04717632,0.20032857,0.22679572,0.27768144,0.3077656,1.1403414,0.45439598,1.4408838,0.97427386,12.536093,11.043915,12.552601,11.906375,0,0,0,0,0,0,0,0,0,0,0,0,0.055763025,0.055325482,0.0023234417,0.0034117927,1.1417041,0.4577517,1.4408857,0.9742798,-0.008092798,-0.0048461705,0.00412168,0.007698465,164,6,231,2,0,-32.928295,258.35385,3191.699,3.2934945,84006.89,1546.6406,89.47363,85.746506,91.3082,91.3082,0,1,-60.253742,0,0,0.31752038,0.31752035,0,7,255,0,0,0,1,0,64,0
True,24167125,15999.99,0,669.271,1.2508955,-0.076327085,12.804282,0.12195873,-0.029303342,4.605061,-0.0005324752,0.09234977,0.014318257,2.2029192,-0.06203053,0.046953015,0.17254998,0.19828236,0.2875281,0.32059145,0.15452747,0.26708716,0.26762617,0.5919678,15.905144,15.564873,16.034784,14.576932,0,0,0,0,0,0,0,0,0,0,0,0,0.90678334,1.0257564,-0.01365137,-0.012524322,0.91985583,1.0599583,0.2679741,0.59210026,-0.011500299,-0.008343801,0.0052923746,0.009223357,164,6,231,2,0,-32.59525,258.37704,3191.4524,4.6067686,103966.49,1546.6406,91.04945,85.97083,92.31221,92.31221,0,1,-59.93964,0,0,0.42139906,0.42139906,0,7,255,0,0,0,1,70,64,0
True,24167234,15999.99,0,817.7068,4.5339136,-0.05971688,8.851886,0.5255046,-0.031905472,5.5343676,0.0072671785,0.435626,0.037075352,2.2307656,-0.062345646,0.04799193,0.18793236,0.19964623,0.28584057,0.29880977,0.49158323,1.7690725,0.4635678,1.2385459,19.282822,19.584381,18.959131,18.216055,0,0,0,0,0,0,0,0,0,0,0,0,0.5411569,0.7444342,0.016823715,0.019436833,0.73109835,1.9193228,0.46387297,1.2386984,-0.009613398,-0.008176498,0.005091734,0.0066336803,164,6,231,2,0,-32.186676,258.40857,3191.103,5.559352,131785.4,1546.6406,92.14842,89.23872,92.49808,92.49808,0,1,-59.53314,0,0,0.52712727,0.5271273,0,7,255,0,0,0,1,51,63,0
True,24167343,15999.99,0,1478.8198,-0.31295204,-0.2369119,12.200044,0.18659663,-0.06258872,7.072588,-0.007930251,0.33098683,-0.008142086,2.2802947,-0.06585876,0.043157414,0.16627517,0.18056104,0.27696618,0.31024864,6.3297243,5.2184644,5.9311724,5.713569,35.651657,31.540129,35.732376,33.175083,0,0,0,0,0,0,0,0,0,0,0,0,-0.935957,-1.0003219,0.32110706,0.3231694,6.3985486,5.3134747,5.9398584,5.722701,-0.012270009,-0.010517612,0.004036639,0.007993676,164,6,231,2,0,-31.645618,258.45285,3190.5981,7.0753255,237068.06,1546.6406,96.240555,92.85063,96.84609,96.84609,0,1,-58.975742,0,0,0.6437865,0.64378643,0,7,255,0,0,0,1,0,60,0
True,24167468,15999.99,0,1192.9105,0.8423343,-0.21656829,11.268926,0.032610416,-0.07546139,8.487706,0.018866528,0.09364994,0.016248519,2.308035,-0.06680644,0.043168508,0.15307613,0.17018503,0.28397152,0.30774298,0.7275275,0.84146976,0.21345873,0.66253364,28.148178,27.947805,28.035328,26.52506,0,0,0,0,0,0,0,0,0,0,0,0,-0.21933644,-0.2216971,0.10877386,0.11269337,0.75987154,0.8701845,0.23957542,0.6720496,-0.013889087,-0.0117903985,0.0048695244,0.0076957718,164,6,231,2,0,-30.971199,258.50632,3189.989,8.488103,192934.78,1546.6406,104.07033,100.11658,104.813095,104.813095,0,1,-58.2901,0,0,0.76012707,0.760127,0,7,255,0,0,0,1,0,58,0
True,24167562,15999.99,0,1427.1458,0.0569067,-0.19751686,14.59374,-0.00978899,-0.0875698,10.000719,0.004865628,0.0043887426,0.0037242512,2.3111434,-0.066211164,0.04318121,0.1525936,0.16346925,0.2888565,0.30179927,0.83790046,0.7469682,0.60814446,0.61617863,33.30679,33.06463,32.848183,32.825348,0,0,0,0,0,0,0,0,0,0,0,0,0.00037264696,0.0032521794,0.0148175545,0.0152122425,0.8379005,0.7469753,0.60832494,0.6163664,-0.0139482785,-0.012614198,0.005450312,0.0069891065,164,6,231,2,0,-30.291164,258.5597,3189.368,10.001107,230156.78,1546.6406,103.57044,99.669815,104.53325,104.53325,0,1,-57.595684,0,0,0.8597622,0.8597621,0,7,255,0,0,0,1,0,56,0
True,24167687,15999.99,0,1683.4254,-0.16812038,-0.29202503,15.076879,-0.019072533,-0.11160639,11.769117,0.014423835,-0.0028519593,0.003926476,2.3111217,-0.06505407,0.043769218,0.14307728,0.14893237,0.29434183,0.30175552,0.753608,0.93253,0.6267295,0.637068,38.90607,39.48882,38.68299,38.727158,0,0,0,0,0,0,0,0,0,0,0,0,0.018303849,0.021463888,0.011985625,0.012858684,0.75383025,0.9327769,0.62684405,0.63719773,-0.0151156075,-0.014397388,0.0061024725,0.006983906,164,6,231,2,0,-29.359102,258.63095,3188.518,11.76966,271680.25,1546.6406,103.05223,99.305786,104.17096,104.17096,0,1,-56.64461,0,0,0.9756075,0.97560745,0,7,255,0,0,0,1,0,52,0
True,24167781,15999.99,0,1899.5189,-0.021565914,-0.35795242,15.297095,-0.020862103,-0.1288113,13.304655,0.014684497,-0.003879005,0.0013835048,2.3108377,-0.06347872,0.04404406,0.14137001,0.14359505,0.29509678,0.29939306,0.6991228,0.83908075,0.63338226,0.6412819,43.78244,44.299572,43.75226,43.798054,0,0,0,0,0,0,0,0,0,0,0,0,0.019356633,0.02235106,0.0113210725,0.012333701,0.6993907,0.83937836,0.6334834,0.6414005,-0.015325034,-0.015052095,0.0061922297,0.0067030266,164,6,231,2,0,-28.429905,258.69962,3187.6711,13.305295,306827.38,1546.6406,102.646194,99.05548,103.91513,103.91513,0,1,-55.696697,0,0,1.0758766,1.0758766,0,7,255,0,0,0,1,0,49,0
True,24167890,15999.99,0,2110.66,-0.11190224,-0.27790776,15.274317,-0.02071762,-0.14515144,14.872362,0.0017522646,-0.003823804,-8.8276225E-05,2.310478,-0.062532365,0.044119634,0.1472316,0.147725,0.2955238,0.29821393,0.5923377,0.6713859,0.5948505,0.60255474,48.52809,48.85633,48.749733,48.79634,0,0,0,0,0,0,0,0,0,0,0,0,0.017505664,0.020057762,0.010139291,0.011429768,0.59259635,0.6716854,0.5949369,0.60266316,-0.014606014,-0.014545491,0.006242998,0.0065628365,164,6,231,2,0,-27.367683,258.776,3186.7036,14.873085,341030.88,1546.6406,102.257774,98.799965,103.694916,103.694916,0,1,-54.61346,0,0,1.177869,1.1778691,0,7,255,0,0,0,1,0,45,0
True,24168015,15999.99,0,2360.2354,-0.07493925,-0.041043222,15.316879,-0.019991875,-0.17038715,16.723951,-0.020188976,-0.003739581,-0.00041057542,2.309968,-0.06371734,0.0441089,0.15985468,0.1607434,0.30191588,0.3034037,0.5381073,0.56291974,0.53036153,0.53807414,54.354645,54.48244,54.532715,54.581566,0,0,0,0,0,0,0,0,0,0,0,0,0.014975271,0.017275516,0.008067657,0.010363014,0.53831565,0.56318474,0.53042287,0.5381739,-0.013057586,-0.012948569,0.007002972,0.0071798675,164,6,231,2,0,-25.958414,258.87698,3185.4204,16.724829,381440.8,1546.6406,101.82323,98.488815,103.46098,103.46098,0,1,-53.176502,0,0,1.2985218,1.2985219,0,7,255,0,0,0,1,0,40,0
True,24168109,15999.99,0,2579.2014,-0.025955677,0.11860061,15.326224,-0.020561218,-0.19538832,18.300144,-0.020623524,-0.0040209778,0.00036816392,2.3094678,-0.06604112,0.04412627,0.1680027,0.17054099,0.31383273,0.3147832,0.56099635,0.5682867,0.49738532,0.50603193,59.5942,59.648476,59.506824,59.56349,0,0,0,0,0,0,0,0,0,0,0,0,0.013691902,0.016524114,0.006563707,0.010137673,0.5611634,0.5685269,0.49742863,0.50613344,-0.012058098,-0.011746734,0.008419797,0.0085328,164,6,231,2,0,-24.62177,258.9754,3184.2043,18.301199,416894.7,1546.6407,101.49429,98.24993,103.2865,103.2865,0,1,-51.813957,0,0,1.4017463,1.4017464,0,7,255,0,0,0,1,0,36,0
True,24168234,15999.99,0,2843.5952,-0.08749533,-0.0013003945,15.196663,-0.02304554,-0.21147597,20.125275,0.0049362737,-0.0048012678,0.0030578861,2.3088934,-0.06702013,0.044346765,0.16894287,0.17312366,0.32611367,0.32715645,0.6449491,0.60733664,0.5140343,0.52688694,65.96264,65.78041,65.521515,65.60499,0,0,0,0,0,0,0,0,0,0,0,0,0.013384809,0.016948305,0.005568027,0.0102518555,0.64508796,0.6075731,0.51406443,0.52698666,-0.011942772,-0.011429928,0.009879913,0.010003887,164,6,231,2,0,-22.913563,259.10507,3182.6519,20.126396,459673.2,1546.6406,101.18515,98.03128,103.12598,103.12598,0,1,-50.07322,0,0,1.5219557,1.5219558,0,7,255,0,0,0,1,0,30,0
True,24168343,15999.99,0,3066.1167,-0.06953716,-0.2185418,15.242662,-0.025710106,-0.21594715,21.695543,0.009087104,-0.0043255654,0.0046204724,2.3084533,-0.06595089,0.044777855,0.17163798,0.17213908,0.32793075,0.329362,0.58109945,0.58074534,0.54668367,0.555967,70.711685,70.74611,70.82321,70.885994,0,0,0,0,0,0,0,0,0,0,0,0,0.0131021775,0.01646384,0.006140876,0.011057835,0.58124715,0.5809787,0.5467181,0.55607694,-0.011612171,-0.011550704,0.0100959465,0.01026611,164,6,231,2,0,-21.315767,259.22656,3181.2012,21.696632,495771.38,1546.6406,100.983,97.88898,103.03903,103.03903,0,1,-48.463535,0,0,1.6252313,1.6252313,0,7,255,0,0,0,1,0,25,0
True,24168437,15999.99,0,3275.3977,-0.14866066,-0.18772584,15.100243,-0.027025223,-0.23598158,23.268112,-0.006590938,-0.0040672924,0.004065988,2.308021,-0.065963745,0.045331426,0.17618982,0.17707303,0.32952687,0.32535014,0.50194675,0.5697718,0.5040927,0.50321347,75.37499,75.82472,75.66072,75.67415,0,0,0,0,0,0,0,0,0,0,0,0,0.012712462,0.015958762,0.00610554,0.011051145,0.5021077,0.5699953,0.50412965,0.50333476,-0.011053812,-0.010945475,0.010285713,0.009789132,164,6,231,2,0,-19.588919,259.35684,3179.6348,23.269323,517898.16,1512.1073,100.78766,97.770805,102.98793,102.98793,0,1,-46.701473,0,0,1.7289906,1.7289907,0,7,255,0,0,0,1,0,20,0
True,24168562,15999.99,0,3504.2988,-0.022132874,-0.21135592,14.543244,-0.024694443,-0.246768,25.023792,0.014409253,-0.005096117,-0.003700524,2.3074899,-0.06550526,0.045336433,0.17989211,0.17250115,0.32953733,0.32956177,0.4385104,0.5193455,0.4526921,0.44733682,80.60133,81.14056,80.963974,80.96016,0,0,0,0,0,0,0,0,0,0,0,0,0.012167943,0.015728012,0.005146634,0.010008424,0.4386792,0.51958364,0.45272136,0.44744876,-0.010599667,-0.011506289,0.010286957,0.010289863,164,6,231,2,0,-17.418488,259.52042,3177.6675,25.025019,525021.56,1432.583,100.5759,97.66925,102.93419,102.93419,0,1,-44.487473,0,0,1.8503544,1.8503544,0,7,255,0,0,0,1,0,14,0
True,24168671,15999.99,0,3687.7417,-0.11185551,-0.25502658,13.906662,-0.022554398,-0.24719727,26.438456,0.0019515583,-0.0041480865,-0.0044229855,2.3070414,-0.06439407,0.044864625,0.18690802,0.1787237,0.32615986,0.3228361,0.3981537,0.39122462,0.41964388,0.42895758,84.8839,84.852135,85.290245,85.365944,0,0,0,0,0,0,0,0,0,0,0,0,0.0103311045,0.0132111395,0.004623217,0.009070392,0.3982877,0.39144763,0.41966933,0.42905346,-0.009739049,-0.010742994,0.009885404,0.009490229,164,6,231,2,0,-15.467701,259.66592,3175.9006,26.439617,537697.6,1393.9342,100.414734,97.58142,102.903534,102.903534,0,1,-42.49822,0,0,1.952715,1.952715,0,7,255,0,0,0,1,0,9,0
True,24168781,15999.99,0,3905.4055,-0.03822136,0.13994008,13.712685,-0.02380848,-0.25797474,28.049501,-0.01481312,-0.0033593038,0.0024159085,2.3065708,-0.06549216,0.044827383,0.19945124,0.19951718,0.33019897,0.32423744,0.3806375,0.38601786,0.38962492,0.39326337,89.959625,90.02301,90.28498,90.32054,0,0,0,0,0,0,0,0,0,0,0,0,0.008928722,0.0117974,0.004074641,0.008705918,0.3807422,0.3861981,0.38964623,0.39335972,-0.008200418,-0.008192331,0.01036562,0.009656839,164,6,231,2,0,-13.076502,259.8452,3173.7366,28.050695,573208.94,1403.2107,100.252884,97.48408,102.8851,102.8851,0,1,-40.060604,0,0,2.0711992,2.0711997,0,7,255,0,0,0,1,0,3,0
True,24168906,15999.99,0,4125.509,-4.1667986,-0.03431648,12.308992,-0.1722908,-0.25752246,29.509892,0.016137235,-0.23762558,-0.0290531,2.2941663,-0.06491584,0.04372105,0.1948342,0.20450345,0.3279209,0.34039184,0.76802474,0.3953457,0.46489814,0.3006517,96.88191,95.23799,94.90863,94.79734,0,0,0,0,0,0,0,0,0,0,0,0,-0.733099,-0.655251,-0.04092997,-0.0333447,1.061742,0.7652791,0.4666964,0.30249515,-0.008766774,-0.0075806826,0.010094777,0.011577483,164,6,231,2,0,-10.544516,260.03665,3171.4783,29.511517,515009.38,1193.2955,100.22621,97.48595,102.89597,102.89597,0,1,-37.49479,0,0,2.1890943,2.1890948,0,7,255,0,0,0,1,-95,254,0
True,24169000,15999.99,0,4289.381,-3.591775,-0.3235216,12.632243,0.15856457,-0.25600755,30.758083,0.0070147715,-0.15633751,-0.015089412,2.269296,-0.06254712,0.043459147,0.20226283,0.20802791,0.31877825,0.33612382,0.44465962,0.34437418,0.4755204,0.36699757,98.75627,98.71388,99.27986,99.195206,0,0,0,0,0,0,0,0,0,0,0,0,0.020878397,0.023339968,-0.11701297,-0.10851457,0.4451495,0.3451642,0.4897057,0.38270435,-0.007855531,-0.007148348,0.0090077855,0.011070043,164,6,231,2,0,-8.241968,260.2041,3169.5015,30.759562,607457.94,1353.7229,100.25765,97.51967,102.95757,102.95757,0,1,-35.197376,0,0,2.2899747,2.2899752,0,7,255,0,0,0,1,0,250,0
True,24169109,15999.99,0,4499.923,-2.9321723,-0.40963554,13.011587,0.088970184,-0.27280498,32.29372,0.011919909,-0.02586387,0.00238084,2.2605124,-0.061158303,0.043004498,0.19906224,0.21293569,0.32392704,0.33503357,0.46367034,0.35011467,0.41294703,0.39088503,104.13786,103.35557,104.0367,104.00164,0,0,0,0,0,0,0,0,0,0,0,0,-0.020338392,-0.016688896,-0.040712908,-0.035779025,0.4641162,0.3505122,0.41494915,0.3925191,-0.008248135,-0.0065463297,0.009619936,0.010940421,164,6,231,2,0,-5.409567,260.40253,3167.1274,32.294994,641619.9,1363.0648,100.22681,97.504105,103.043915,103.043915,0,1,-32.394875,0,0,2.4073126,2.4073126,0,7,255,0,0,0,1,0,247,0
True,24169234,15999.99,0,4709.8677,-1.2161965,-0.121281505,13.441151,-0.0029621124,-0.29000413,33.853004,-0.014826539,-0.0043120463,0.016286528,2.2593267,-0.061009265,0.044461213,0.20365477,0.2253058,0.32767764,0.33768982,0.36863476,0.35124972,0.39195117,0.38939878,108.46871,108.33644,108.97602,108.96796,0,0,0,0,0,0,0,0,0,0,0,0,-0.018555922,-0.015694154,-0.0047468375,0.00031137135,0.3691015,0.35160017,0.39197993,0.38939893,-0.007684786,-0.0050289333,0.010065854,0.011256225,164,6,231,2,0,-2.4501512,260.6039,3164.6829,33.854248,692973.4,1406.5375,100.21323,97.52109,103.14366,103.14366,0,1,-29.486307,0,0,2.5234764,2.5234766,0,7,255,0,0,0,1,-2,245,0
True,24169328,15999.99,0,4890.9272,-0.56629276,0.03541124,13.292888,-0.017406464,-0.3067255,35.183647,0.005429348,-0.011869014,0.007931472,2.258016,-0.061781123,0.04572749,0.21113576,0.22554088,0.33772013,0.35209137,0.36244574,0.40455043,0.3729255,0.36250708,112.626045,113.06408,113.02512,112.99946,0,0,0,0,0,0,0,0,0,0,0,0,0.007804464,0.011210899,-0.0026936904,0.0034381843,0.36252975,0.40470573,0.3729352,0.36252338,-0.00676712,-0.005000096,0.0112598315,0.012968466,164,6,231,2,0,0.21341445,260.78622,3162.4949,35.18499,694128.25,1356.5411,100.210724,97.564545,103.243195,103.243195,0,1,-26.874214,0,0,2.623406,2.6234062,0,7,255,0,0,0,1,0,244,0
True,24169453,15999.99,0,5092.914,-0.4342394,-0.19196612,12.865482,-0.018238068,-0.30158794,36.69377,-0.0075192098,-0.0054009496,-0.00092690904,2.257121,-0.06063065,0.045937162,0.19975863,0.20567463,0.3292624,0.34155896,0.30496177,0.31837207,0.37915272,0.37904525,116.92415,117.08085,117.94137,117.961555,0,0,0,0,0,0,0,0,0,0,0,0,0.006167598,0.0085682245,0.0007071094,0.006020965,0.30502415,0.31848735,0.37915337,0.37909305,-0.008162711,-0.007437017,0.010254275,0.011716243,164,6,231,2,0,3.475936,261.00842,3159.8208,36.695015,718430.75,1348.2635,100.22954,97.63626,103.376335,103.376335,0,1,-23.677584,0,0,2.7408946,2.740895,0,7,255,0,0,0,1,0,243,0
True,24169546,15999.99,0,5259.4683,-0.27727318,0.7055893,13.0725155,-0.020933151,-0.330168,38.000675,-0.036706507,-0.004045293,0.00036094338,2.2565372,-0.063666396,0.045813873,0.2154609,0.21581335,0.3275926,0.33125973,0.32114667,0.30252385,0.3157519,0.32184896,121.31001,121.12918,121.560745,121.63433,0,0,0,0,0,0,0,0,0,0,0,0,0.005960202,0.008382264,0.0018566272,0.006354063,0.32120198,0.30263996,0.31575736,0.3219117,-0.006236572,-0.006193336,0.010055743,0.01049174,164,6,231,2,0,6.3465157,261.20718,3157.4714,38.002113,753000.44,1368.55,100.2525,97.69912,103.50618,103.50618,0,1,-20.866484,0,0,2.840307,2.840307,0,7,255,0,0,0,1,0,242,0
True,24169671,15999.99,0,5470.6533,-0.86336327,-0.5974041,11.922387,0.0063991547,-0.31453812,39.383545,0.04924903,-0.035511296,0.013611557,2.2523894,-0.06158113,0.0466444,0.17471777,0.18794459,0.32542822,0.3282741,0.37299085,0.35840076,0.38829505,0.37436166,125.99676,126.03188,126.50491,126.53382,0,0,0,0,0,0,0,0,0,0,0,0,0.009208725,0.012403326,-0.015856259,-0.011536906,0.3731045,0.3586153,0.38861868,0.3745394,-0.011234386,-0.009611897,0.009798419,0.010136772,164,6,231,2,0,9.826023,261.45422,3154.638,39.3848,695104.2,1214.2415,100.33223,97.79989,103.66359,103.66359,0,1,-17.459864,0,0,2.956359,2.9563587,0,7,255,0,0,0,1,0,241,0
True,24169781,15999.99,0,5637.7817,-0.70548916,-0.69143814,11.948378,0.0099925995,-0.3271674,40.75344,-0.0089489585,-0.010976683,-0.00013243803,2.2500682,-0.059102397,0.047769554,0.17395893,0.1756468,0.28444982,0.2923382,0.27277642,0.2945975,0.343576,0.33180532,129.4976,129.7729,130.5387,130.47784,0,0,0,0,0,0,0,0,0,0,0,0,0.00024582847,0.0021841717,-0.0062293625,-0.0055457805,0.27277654,0.2946056,0.3436325,0.33185166,-0.01132747,-0.011120424,0.004926387,0.005864255,164,6,231,2,0,13.438558,261.69534,3151.7107,40.754753,752826.3,1276.0873,100.40806,97.91556,103.84577,103.84577,0,1,-13.936373,0,0,3.072528,3.072528,0,7,255,0,0,0,1,0,242,0
True,24169875,15999.99,0,5787.0293,-0.55242157,0.22481817,11.832888,-0.011257172,-0.34692943,41.943607,-0.009540258,-0.004390101,-0.0033732674,2.2493074,-0.060537875,0.047317684,0.18939409,0.18231383,0.30041704,0.29761127,0.2861512,0.26704523,0.29117635,0.29533842,133.41516,133.23569,133.79176,133.85516,0,0,0,0,0,0,0,0,0,0,0,0,0.0032768012,0.0055267033,0.00076873414,0.0020549549,0.28616995,0.26710242,0.29117736,0.29534557,-0.009434093,-0.010302603,0.006824773,0.006491188,164,6,231,2,0,16.658047,261.90927,3149.1116,41.945045,752851.3,1243.2542,100.478424,98.020744,104.00658,104.00658,0,1,-10.80088,0,0,3.1726754,3.1726751,0,7,255,0,0,0,1,0,242,0
True,24170000,15999.99,0,5964.078,-0.22089195,0.29934382,11.515384,-0.02769661,-0.34768057,43.274136,-0.0064921295,-0.003184672,0.0064774714,2.2488785,-0.061425388,0.04797435,0.18600558,0.18928497,0.3034511,0.30088457,0.25173104,0.27783087,0.2843537,0.28039062,137.2613,137.56624,137.92851,137.89664,0,0,0,0,0,0,0,0,0,0,0,0,0.00608894,0.008374115,0.0039293296,0.0055551315,0.25180465,0.27795702,0.28438085,0.28044564,-0.0098497495,-0.009447478,0.0071855,0.006880358,164,6,231,2,0,20.52288,262.1718,3145.9978,43.275536,752814.6,1206.2173,100.57649,98.1532,104.1998,104.1998,0,1,-7.0396953,0,0,3.2892618,3.2892616,0,7,255,0,0,0,1,0,244,0
True,24170109,15999.99,0,6141.2583,-1.3438568,-0.076218575,10.945285,-0.07208824,-0.3429842,44.5343,0.007548603,-0.06516533,-0.03504994,2.2470322,-0.060975146,0.046439093,0.21516898,0.1849695,0.30852118,0.29411504,0.3106264,0.2438868,0.30328736,0.27687046,141.79327,141.3031,141.9792,141.98376,0,0,0,0,0,0,0,0,0,0,0,0,-0.16455977,-0.15573393,-0.00010219273,0.0013893164,0.35152337,0.28936797,0.30328736,0.27687395,-0.0062723793,-0.0099768415,0.007788293,0.006075509,164,6,231,2,0,24.462759,262.44235,3142.8306,44.535683,752804.25,1171.3762,100.69014,98.30629,104.39807,104.39807,0,1,-3.2087085,0,0,3.4045122,3.404512,0,7,255,0,0,0,1,-81,245,0
True,24170234,15999.99,0,6296.0264,-6.71614,0.26266968,10.270856,0.11633301,-0.29067385,45.70997,-0.03900622,-0.2865056,-0.07038699,2.2262983,-0.059073556,0.043923073,0.3293686,0.37970337,0.3237079,0.31795537,0.14059497,0.19222967,0.44598773,0.22063494,142.98271,144.28087,146.8191,145.90485,0,0,0,0,0,0,0,0,0.120000005,0.120000005,0,0,0.0059022126,0.0051924363,-0.10119065,-0.085179426,0.1407188,0.19229978,0.45732328,0.23650648,0.0077360757,0.013910461,0.009593882,0.008909948,164,6,231,2,0,28.52003,262.71393,3139.6304,45.711037,751754.44,1140.123,100.89795,98.5441,104.61832,104.61832,0,1,0.70281947,0,0,3.5191517,3.519152,0,7,255,0,0,0,1,0,247,0
True,24170343,15999.99,0,6540.447,-5.2278705,-1.4202323,8.674891,0.46174622,-0.2948023,46.69156,0.10980022,-0.09053184,0.01592303,2.2064142,-0.055493243,0.04694803,0.12874952,0.15240172,0.299203,0.33664653,0.29924628,0.4210072,0.7155253,0.38872963,148.37367,149.74553,153.91664,150.33151,0,0,0,0,0,0,0,0,0,0,0,0,-0.08070698,-0.0773616,-0.13870226,-0.13029498,0.30993864,0.4280559,0.7288448,0.40998477,-0.016873144,-0.013971813,0.006680429,0.011132192,164,6,231,2,0,32.734688,262.99387,3136.4155,46.69477,640296.3,936.9485,101.08696,98.75456,104.845955,104.845955,0,1,4.7192545,0,0,3.6339269,3.6339269,0,7,255,0,0,0,1,0,251,0
True,24170437,15999.99,0,6556.398,-4.6733346,-1.9743963,9.776263,0.324955,-0.35826612,47.642067,-0.0130557455,-0.034550093,0.019395784,2.2000086,-0.051139556,0.04832392,0.18306525,0.24140215,0.23926926,0.27876124,0.2427668,0.18453912,0.31984654,0.26429933,150.8897,150.39265,152.05579,151.61687,0,0,0,0,0,0,0,0,0,0,0,0,-0.0638603,-0.0595998,-0.08130916,-0.07704036,0.2510256,0.19392478,0.33001968,0.27529866,-0.010210428,-0.0030544512,-0.0004452467,0.004250057,164,6,231,2,0,36.452427,263.20538,3133.6394,47.64452,752451.25,1096.2252,101.23938,98.924965,105.0739,105.0739,0,1,8.232635,0,0,3.7324245,3.7324243,0,7,255,0,0,0,1,0,255,0
True,24170562,15999.99,0,6714.379,-3.443838,-0.044911996,9.738408,0.006832123,-0.34021616,48.787086,0.04226459,-0.048681885,-0.010961223,2.1978893,-0.051826093,0.049964212,0.23922741,0.2513812,0.31029928,0.36362728,0.29952025,0.26306757,0.27368963,0.24517539,155.11525,154.89127,155.154,155.04378,0,0,0,0,0,0,0,0,0,0,0,0,-0.21399358,-0.2056107,-0.014193809,-0.00918224,0.3681109,0.33388668,0.27405745,0.24534728,-0.0033212192,-0.0018303581,0.007999696,0.014340002,164,6,231,2,0,40.991047,263.45782,3130.319,48.788273,752264.6,1070.5918,101.40067,99.1076,105.30165,105.30165,0,1,12.49046,0,0,3.8491125,3.8491127,0,7,255,0,0,0,1,-127,4,0
True,24170671,15999.99,0,6834.038,-4.2399955,-0.44931972,9.703785,0.21907043,-0.31940663,49.801266,-0.0052015297,-0.13140725,0.001491572,2.1834147,-0.049155943,0.048510566,0.26050076,0.28713456,0.35825914,0.38590783,0.24159516,0.17210016,0.26168954,0.22464015,157.4667,157.22624,158.01637,158.16295,0,0,0,0,0,0,0,0,0,0,0,0,-0.007792881,-0.0050054556,-0.078114666,-0.06815203,0.24172083,0.17217293,0.27309945,0.2347507,-0.00071169436,0.0025553778,0.013701767,0.016988996,164,6,231,2,0,45.215454,263.68387,3127.292,49.80277,752284.4,1051.6172,101.60494,99.32801,105.51907,105.51907,0,1,16.4266,0,0,3.9546268,3.954627,0,7,255,0,0,0,1,0,8,0
True,24170781,15999.99,0,7010.9873,-3.505941,-1.3989372,9.10111,0.19160652,-0.3053484,50.77574,0.07198201,-0.020748053,0.02011735,2.1767175,-0.045805156,0.050498977,0.2051258,0.23132785,0.33489355,0.34592712,0.32403553,0.30253214,0.32349834,0.2946155,161.77649,161.63795,162.13095,161.92491,0,0,0,0,0,0,0,0,0,0,0,0,-0.038147323,-0.034793675,-0.048273444,-0.04188258,0.32627326,0.30452636,0.32708028,0.29757762,-0.0075043403,-0.0042902306,0.010923773,0.012235582,164,6,231,2,0,49.6186,263.91095,3124.1936,50.777023,752258.2,1025.3577,101.76812,99.50012,105.74072,105.74072,0,1,20.503222,0,0,4.061745,4.061745,0,7,255,0,0,0,1,0,14,0
True,24170890,15999.99,0,7124.011,-3.1571565,-2.480002,9.259148,0.022996902,-0.3221829,51.770397,0.024252422,-0.07927525,-0.021416137,2.1741834,-0.03999549,0.051058885,0.18537702,0.20528667,0.25738907,0.2900308,0.26960742,0.21435745,0.30832303,0.26087132,164.1427,163.78113,164.93137,164.72954,0,0,0,0,0,0,0,0,0,0,0,0,-0.23650283,-0.22517781,-0.022622706,-0.021205788,0.35863876,0.31089252,0.30915186,0.2617318,-0.009926852,-0.0074846074,0.0017090663,0.0055899285,164,6,231,2,0,54.150997,264.1122,3121.0422,51.771404,752275.25,1008.6641,101.953384,99.7002,105.96951,105.96951,-3.0037804,1,24.681255,0,0,4.169463,4.169463,0,7,255,0,0,0,1,-127,18,0
True,24171000,15999.99,0,7275.673,-7.6415668,-0.96060085,8.58459,0.31335068,-0.34235024,52.678146,0.036144625,-0.31778646,-0.04273715,2.1518607,-0.037804667,0.047108743,0.19728564,0.21884589,0.28329718,0.29607555,0.6101484,0.23239218,0.31583533,0.20407832,170.85768,167.40092,167.42145,167.44374,0,0,0,0,0,0,0,0,0,0,0,0,-0.65936613,-0.5725664,-0.12952174,-0.120163925,0.8983567,0.61793077,0.34136173,0.23682764,-0.008466065,-0.0058213472,0.0047893487,0.0063086003,164,6,231,2,0,58.78307,264.2955,3117.8987,52.68019,722725.2,949.19244,102.22226,99.998474,106.19969,106.19969,-6.916559,1,28.958294,0,0,4.2766547,4.2766547,0,7,255,0,0,0,1,-127,20,0
True,24171109,15999.99,0,7422.619,-10.222886,-2.936192,7.2479095,1.2529812,-0.29935014,53.381958,0.05984503,-0.41695502,-0.032411214,2.1130247,-0.028751194,0.045186594,0.17929998,0.21607329,0.24987459,0.2942933,0.67227745,0.2586807,0.4859342,0.27070084,173.43538,170.08946,171.60214,170.87294,0,0,0,0,0,0,0,0,0,0,0,0,-0.85794175,-0.7504912,-0.3511191,-0.31361297,1.0899638,0.79382163,0.5995137,0.41428497,-0.010672301,-0.0061614513,0.0008156486,0.006096706,164,6,231,2,0,63.54862,264.45496,3114.7974,53.3975,620397.9,798.3883,102.632355,100.417694,106.46507,106.46507,-11.183228,1,33.26421,0,0,4.383864,4.383864,0,7,255,0,0,0,1,-127,23,0
True,24171218,15999.99,0,7187.535,-3.2519655,-1.7973504,-13.6229725,3.416235,-0.23107016,51.702133,0.017881665,-0.43663415,-0.103974484,2.0670857,-0.02197424,0.042914424,0.24289301,0.31917605,0.29406673,0.34886456,0.64920247,0.21843661,0.5114231,0.22641279,167.46898,164.15773,166.64723,165.532,0,0,0,0,0,0,0,0,0,0,0,0,-1.3065562,-1.051313,-0.7927519,-0.638008,1.4589561,1.0737661,0.94340295,0.6769911,-0.002871573,0.00648579,0.006069768,0.01258482,164,6,231,2,0,68.27277,264.5708,3111.7512,51.81539,618747.94,822.2866,103.54201,101.31945,106.85436,106.85436,-14.7,1,37.52039,0,0,4.491375,4.4913754,0,7,255,0,0,0,1,-127,22,0
True,24171328,15999.99,0,7295.9824,-19.083961,0.1519857,3.3580852,3.4512672,-0.10273063,52.18801,0.03348091,-0.38177577,-0.014867514,2.0196683,-0.019816408,0.038109146,0.25199062,0.36434415,0.28017896,0.4103224,0.9743745,0.3262618,0.4975823,0.26762897,172.9088,166.8651,168.15025,167.34084,0,0,0,0,0,0,0,0,0,0,0,0,-1.428245,-1.2075838,-0.78577316,-0.6637332,1.7289561,1.2508818,0.93006855,0.7156584,-0.0017556027,0.012026399,0.0044186115,0.019891702,164,6,231,2,0,73.13624,264.69022,3108.8582,52.302105,520668.66,681.74207,105.22035,102.80075,107.34784,107.34784,-14.7,1,41.802765,0,0,4.6000867,4.600087,0,7,255,0,0,0,1,-127,23,0
True,24171437,15999.99,0,7386.9287,-14.742195,-3.4474735,4.6394215,3.6734428,-0.09596264,52.56653,0.04938774,-0.32518813,-0.0056221504,1.9858232,-0.010056961,0.03863403,0.17591473,0.30602837,0.22991993,0.33963183,0.8101572,0.34326568,0.6503926,0.4100106,172.37288,168.13776,171.32332,170.24194,0,0,0,0,0,0,0,0,0,0,0,0,-1.420306,-1.2241374,-0.8492694,-0.7464421,1.635122,1.271355,1.0697051,0.85163635,-0.011087555,0.0048730113,-0.0015568137,0.011487123,164,6,231,2,0,78.19527,264.7803,3106.0996,52.69481,466593.12,603.1367,107.2215,104.35976,107.81691,107.81691,-14.7,1,46.22832,0,0,4.709858,4.7098584,0,7,255,0,0,0,1,-127,26,0
True,24171546,15999.99,0,7414.1606,-18.86604,-1.5712862,6.4465055,3.4600296,-0.13924307,53.107956,0.022107415,-0.25476554,-0.040888064,1.9497148,-0.006985711,0.035886183,0.17900698,0.28561828,0.2027302,0.31401297,0.73354495,0.19917075,0.5338563,0.29859543,174.22298,168.45485,171.81958,170.51167,0,0,0,0,0,0,0,0,0,0,0,0,-0.6647071,-0.56904626,-0.762947,-0.6355959,0.98991096,0.6028952,0.9311771,0.7022403,-0.010708243,0.0023693815,-0.0047894716,0.008441225,164,6,231,2,0,83.38102,264.83005,3103.5002,53.220726,603493.56,777.5472,108.60587,105.642136,108.308304,108.308304,-14.7,1,50.62055,0,0,4.819426,4.819426,0,7,255,0,0,0,1,0,30,0
True,24171656,15999.99,0,7440.087,-3.4437256,-1.3663424,1.3412118,3.893736,-0.16680604,53.18186,-0.0030275695,-0.03233622,-0.029658047,1.9355824,-0.0038985196,0.032717295,0.17866364,0.29367957,0.19779241,0.3467493,0.68706965,0.20077635,0.4975848,0.32564503,174.96317,168.75485,172.53075,171.0831,0,0,0,0,0,0,0,0,0,0,0,0,-0.7268764,-0.615366,-0.71160275,-0.60215366,1.000207,0.6472916,0.8683139,0.6845683,-0.010750357,0.00335823,-0.0053765364,0.012333337,164,6,231,2,0,88.70482,264.8558,3101.0095,53.324474,608816.5,781.4288,108.7935,105.946655,108.74146,108.74146,-1.0571766,1,55.067787,0,0,4.9296527,4.9296527,0,7,255,0,0,0,1,0,33,0
True,24171765,15999.99,0,7433.502,-12.2075615,-1.4128308,4.9984674,1.7286377,-0.25959617,53.851875,0.020748278,0.18410566,0.0020529495,1.9460746,-0.0028502175,0.030770512,0.17869593,0.33289966,0.24484472,0.3903082,0.53310704,0.1784473,0.29960215,0.23657157,175.01982,169.41914,171.9981,170.75716,0,0,0,0,0,0,0,0,0,0,0,0,-0.5008395,-0.4351131,-0.28740984,-0.24686654,0.73146653,0.4702838,0.4151697,0.34191987,-0.010746399,0.008169219,0.00021763518,0.017512165,164,6,231,2,0,94.101135,264.85974,3098.5764,53.880238,732212.9,940.9122,108.99606,106.310486,109.13585,109.13585,0,1,59.671356,0,0,5.040209,5.040209,0,7,255,0,0,0,1,-18,32,0
True,24171875,15999.99,0,7551.1016,-1.6801646,-2.5768251,6.7514896,0.39611053,-0.2685454,54.72398,0.049864773,0.076156676,0.06377874,1.9636389,0.0015482295,0.03590834,0.15244931,0.27451748,0.23199794,0.3648331,0.3384551,0.24455808,0.31330544,0.30064753,174.83644,173.18742,174.80992,174.37602,0,0,0,0,0,0,0,0,0,0,0,0,-0.30183086,-0.28637722,-0.045946512,-0.039624702,0.4534906,0.37659073,0.31665656,0.3032475,-0.0139659755,0.0010076873,-0.0013097525,0.014483362,164,6,231,2,0,99.64396,264.84,3096.2349,54.72607,752282.8,951.6788,109.09248,106.48839,109.37714,109.37714,-0.6053095,1,64.219795,0,0,5.1509614,5.150961,0,7,255,0,0,0,1,-68,27,0
True,24171984,15999.99,0,7671.549,-5.7702074,-2.1421108,8.056503,0.016630173,-0.33003813,55.652134,0.049123876,-0.18788184,0.031981125,1.9572724,0.0051013343,0.04071737,0.13091311,0.23999846,0.21666938,0.3318263,0.47395557,0.27037925,0.28726497,0.21841933,178.94699,177.0022,176.76216,176.70972,0,0,0,0,0,0,0,0,0,0,0,0,-0.6253297,-0.5667254,-0.04541073,-0.040266663,0.7846471,0.62791926,0.29083207,0.22209999,-0.016607743,-0.0032266378,-0.0031322055,0.010559101,164,6,231,2,0,105.243,264.78677,3093.91,55.653114,750248.7,934.51843,109.22212,106.70459,109.60718,109.60718,-2.6958075,1,68.8044,0,0,5.2607718,5.2607713,0,6,255,0,0,0,1,-127,17,0
True,24172109,15999.99,0,7758.749,-6.515185,-2.3523905,8.701037,0.72047234,-0.33102822,56.579845,0.0015792595,-0.17814785,0.005271924,1.9313934,0.011343613,0.04309084,0.16120535,0.2382902,0.23278932,0.31363025,0.2039273,0.15447402,0.29926604,0.21047872,178.2156,178.39261,179.81161,179.50983,0,0,0,0,0,0,0,0,0,0,0,0,-0.08638938,-0.08182541,-0.17142822,-0.15741318,0.22147113,0.17480738,0.3448881,0.26283112,-0.0128919035,-0.0034361817,-0.0012156628,0.008395728,164,6,231,2,0,110.981026,264.6981,3091.6174,56.585407,752280.5,926.0022,109.376114,106.92169,109.85695,109.85695,-4.809806,1,73.490295,0,0,5.370905,5.370904,0,6,255,0,0,0,1,0,5,0
True,24172203,15999.99,0,7851.524,-9.124161,0.016136691,9.258669,0.45871925,-0.34790683,57.377106,0.015271435,-0.024200344,-0.007728307,1.9227543,0.010516403,0.041776408,0.17135641,0.24353936,0.24885087,0.32080808,0.2706853,0.16485965,0.20440398,0.17920102,182.1025,180.67514,181.38506,181.20251,0,0,0,0,0,0,0,0,0,0,0,0,-0.1091954,-0.10025438,-0.084670395,-0.079422936,0.29188037,0.19294985,0.2212466,0.19601278,-0.01164671,-0.0027922876,0.0006939359,0.0092491135,164,6,231,2,0,115.968155,264.6106,3089.7048,57.379986,752280.5,915.4002,109.42386,107.03501,110.06999,110.06999,-6.461585,1,77.50617,0,0,5.4646225,5.464622,0,6,255,0,0,0,1,-5,248,0
True,24172312,15999.99,0,8020.975,-5.817936,-2.6791606,8.676992,0.18814278,-0.33696204,58.29806,0.03681099,-0.15871127,-0.059859004,1.9162995,0.016646411,0.03989674,0.16923034,0.18417461,0.22265255,0.2887262,0.31534594,0.20018333,0.31931594,0.24431035,185.30716,184.31026,185.62418,185.324,0,0,0,0,0,0,0,0,0,0,0,0,-0.4473097,-0.40898797,-0.06514153,-0.06055333,0.5472924,0.455351,0.32589275,0.2517027,-0.011907509,-0.010074347,-0.00242085,0.0054348186,164,6,231,2,0,122.183304,264.48407,3087.4016,58.29934,752267.7,895.8518,109.54062,107.21428,110.30483,110.30483,-8.260503,1,82.496216,0,0,5.579224,5.5792236,0,6,255,0,0,0,1,-127,229,0
True,24172437,15999.99,0,8105.811,-10.460152,-0.6148414,8.477123,0.8881092,-0.35724512,59.22035,-0.0043638265,-0.31660783,-0.06207514,1.8832228,0.018791089,0.031316716,0.20186013,0.20629875,0.23184882,0.25936306,0.21545935,0.13902989,0.27375084,0.16493179,186.40529,186.79623,187.53285,187.51463,0,0,0,0,0,0,0,0,0,0,0,0,-0.07493906,-0.0689718,-0.21358801,-0.19378845,0.2281197,0.15519801,0.3472166,0.2544729,-0.007904928,-0.0073604584,-0.0013274811,0.0019437559,164,6,231,2,0,128.58586,264.32303,3085.15,59.22808,752254.1,886.4312,109.790634,107.55902,110.565994,110.565994,0,1,87.61466,0,0,5.6947455,5.694745,0,6,255,0,0,0,1,0,212,0
True,24172531,15999.99,0,8212.755,-10.653974,-0.9678667,8.280296,1.0030289,-0.33735,59.966442,0.017634198,-0.10384752,-0.11048722,1.8642603,0.02074939,0.022558527,0.19760366,0.18574926,0.2861421,0.294216,0.21795692,0.14213015,0.26699394,0.198045,189.29214,188.6537,190.25609,189.83665,0,0,0,0,0,0,0,0,0,0,0,0,-0.1471462,-0.13613476,-0.1898392,-0.1745354,0.2629776,0.19680867,0.32760447,0.2639781,-0.008427054,-0.009881191,0.0051275864,0.006087512,164,6,231,2,0,133.96022,264.1813,3083.3777,59.97578,752260.9,874.871,109.88148,107.697296,110.79561,110.79561,0,1,91.85965,0,0,5.789707,5.789707,0,6,255,0,0,0,1,0,200,0
True,24172656,15999.99,0,8341.424,-6.7651772,-1.6986248,8.130584,0.3994236,-0.3467111,60.857533,0.06580303,0.019214787,-0.081280895,1.8609841,0.022841835,0.012017165,0.23231985,0.17000452,0.28265578,0.28483552,0.230968,0.246733,0.23913503,0.2004874,192.5089,192.65855,192.89589,192.44847,0,0,0,0,0,0,0,0,0,0,0,0,-0.13200991,-0.12991834,-0.06110693,-0.057623927,0.26603165,0.27884752,0.24681899,0.20860422,-0.004168544,-0.011812542,0.0047130883,0.004972242,164,6,231,2,0,140.50517,263.99704,3081.3364,60.85982,752275.06,861.6811,109.99772,107.87027,111.040726,111.040726,0,1,97.0373,0,0,5.9031916,5.9031916,0,6,255,0,0,0,1,-44,188,0
True,24172765,15999.99,0,8436.844,-6.442534,-1.5553591,7.9832397,0.2753029,-0.35750064,61.755913,0.016007483,-0.17438544,-0.09822798,1.8517859,0.026360732,0.00020573611,0.23315431,0.1877297,0.25334114,0.28036565,0.18670887,0.16508713,0.22415367,0.15585037,194.11467,194.82997,195.10452,194.98804,0,0,0,0,0,0,0,0,0,0,0,0,0.001353118,0.0035226985,-0.073152296,-0.067174815,0.18671377,0.16512471,0.23578832,0.1697109,-0.004066184,-0.009638257,0.0012277961,0.0044408105,164,6,231,2,0,147.28766,263.77722,3079.3018,61.75756,752273.8,851.6581,110.17772,108.10979,111.275665,111.275665,0,1,102.38934,0,0,6.0187306,6.01873,0,6,255,0,0,0,1,0,177,0
True,24172875,15999.99,0,8535.811,-4.4641285,0.25671452,7.3104653,0.42193413,-0.35265645,62.61711,-0.0066977367,-0.0296463,-0.1455066,1.8412126,0.025889633,-0.015645815,0.29127315,0.21573102,0.29953188,0.28433156,0.16987628,0.13165355,0.17084898,0.14686847,197.14792,196.64406,197.34358,197.17076,0,0,0,0,0,0,0,0,0,0,0,0,-0.058457397,-0.053819485,-0.065576024,-0.06199317,0.17965305,0.14222938,0.18300161,0.15941612,0.0030630454,-0.0062034354,0.0067195296,0.004912328,164,6,231,2,0,154.04175,263.55057,3077.3499,62.619522,752272.3,841.95154,110.31029,108.27946,111.51616,111.51616,0,1,107.67686,0,0,6.1318154,6.1318145,0,6,255,0,0,0,1,0,166,0
True,24172984,15999.99,0,8641.099,-2.551279,-0.2469592,7.4934,0.16572762,-0.34149677,63.441917,-0.021720836,0.008239946,-0.093238786,1.8410088,0.02677514,-0.027938168,0.26208484,0.23876749,0.3072422,0.3015179,0.12971699,0.12236826,0.16105649,0.1563334,199.13339,198.98529,199.8729,199.79478,0,0,0,0,0,0,0,0,0,0,0,0,-0.024757162,-0.023085237,-0.020529434,-0.019098662,0.13205837,0.124526784,0.16235963,0.15749568,-0.0005173795,-0.003377635,0.007636238,0.0069556534,164,6,231,2,0,160.76581,263.32553,3075.457,63.44305,752273.94,831.51215,110.43913,108.44584,111.74289,111.74289,0,1,112.95871,0,0,6.2426887,6.2426877,0,6,255,0,0,0,1,0,155,0
True,24173093,15999.99,0,8756.685,-0.69369686,-0.50349694,7.202046,0.053533554,-0.3110925,64.23166,-0.00406974,0.00996681,-0.080437094,1.8421506,0.027590532,-0.037744004,0.32209373,0.21474582,0.321274,0.31858924,0.117729366,0.11502821,0.18550335,0.18462735,201.38019,201.31558,202.74486,202.67358,0,0,0,0,0,0,0,0,0,0,0,0,-0.007584599,-0.0064458335,-0.0043144254,-0.0013857645,0.117973424,0.11520867,0.18555352,0.18463255,0.0068436936,-0.0063242875,0.009304512,0.0089853145,164,6,231,2,0,167.50255,263.1014,3073.5771,64.23244,752274.25,820.4687,110.57027,108.60733,111.96947,111.96947,0,1,118.24778,0,0,6.352292,6.352291,0,6,255,0,0,0,1,0,147,0
True,24173218,15999.99,0,8865.741,0.2814697,1.8305142,7.0813413,0.023630142,-0.2810055,65.14533,-0.02548695,0.0074810255,-0.056315172,1.8433939,0.023559159,-0.046964895,0.3321073,0.26534358,0.37134922,0.31029615,0.11066622,0.11114082,0.15270454,0.15127453,204.14436,204.12544,205.10805,205.05731,0,0,0,0,0,0,0,0,0,0,0,0,-0.003245297,-0.002268126,-0.0033620978,0.0009533523,0.1107138,0.11116396,0.15274155,0.15127753,0.008072022,-0.00011764467,0.015258085,0.007999327,164,6,231,2,0,175.48776,262.85257,3071.347,65.145935,752272.2,810.4931,110.74546,108.813934,112.24451,112.24451,0,1,124.730446,0,0,6.4804816,6.480481,0,6,255,0,0,0,1,0,144,0
True,24173328,15999.99,0,8495.123,6.4260054,1.613948,0.44061732,-0.060453415,-0.20101768,65.196075,0.04496223,0.24831137,-0.005861369,1.8565571,0.02249448,-0.04888292,0.31932625,0.23730555,0.36370277,0.2724794,-0.45578927,-0.462298,-0.21256493,-0.21833017,192.74829,195.50404,197.91475,196.7,0,0,0,0,0,0,0,0,0,0,0,0,0.4325222,0.47593054,0.04813059,0.05514343,0.6283465,0.6634978,0.21794587,0.22518629,0.0065042153,-0.0035569668,0.01434898,0.0035031922,164,6,231,2,0,182.38275,262.66373,3069.3809,65.1964,401692.8,451.51862,110.98393,109.04506,112.468185,112.468185,0,1,130.16043,0,0,6.59012,6.590119,0,6,0,255,0,0,1,127,145,129
True,24173437,15999.99,0,8081.9062,16.1718,3.1134377,-20.966526,-0.94350815,0.3625573,62.474133,0.018414453,0.51768357,0.05871409,1.8988074,0.028100219,-0.042887766,0.48293686,0.34661555,0.3254614,0.24578764,-0.38272563,-0.30544794,-0.21724354,-0.50703037,186.00806,187.0742,190.43858,182.97212,0,0,0,0,0,0,0,0,0,0,0,0,0.54219407,0.654805,0.2202557,0.25342178,0.66366655,0.72254276,0.30936602,0.5668354,0.02657374,0.009851698,0.00980236,0.00032974035,164,6,231,2,0,189.08994,262.49338,3067.3228,62.482304,-55293.383,-65.27439,111.57028,109.517204,112.751724,112.751724,0,1,135.86798,0,0,6.700009,6.7000084,0,6,0,255,0,0,1,127,150,129
True,24173546,15999.99,0,8211.218,21.567764,1.6953367,-14.565006,-2.80785,0.54777056,60.51279,-0.025235489,0.6863829,0.05019508,1.9674419,0.030379528,-0.036250416,0.48774487,0.37640902,0.32333022,0.19843666,0.05779216,0.19054343,0.03643931,0.22387493,189.73587,188.5462,190.0268,189.77472,0,0,0,0,0,0,0,0,0,0,0,0,0.8794803,1.0525798,0.53100866,0.6449263,0.8813771,1.0696872,0.5322575,0.68267846,0.02716352,0.013506353,0.009548977,-0.0052999407,164,6,231,2,0,195.40671,262.36023,3065.148,60.58038,295046.8,343.31012,112.24904,110.033844,113.14966,113.14966,0,1,140.91469,0,0,6.8091474,6.8091474,0,5,255,0,0,0,1,127,157,0
True,24173656,15999.99,0,8430.765,23.534966,0.7785863,2.0047975,-4.843218,0.20721453,60.600365,-0.06794453,0.66191196,0.0763913,2.0439205,0.025966441,-0.027473614,0.41282693,0.32333025,0.31704596,0.21320634,0.24793755,0.698443,0.22590916,0.50295705,193.14929,196.43051,194.33482,194.98154,0,0,0,0,0,0,0,0,0,0,0,0,1.2126968,1.4685535,0.7862821,0.96094424,1.237783,1.6261833,0.818092,1.0846103,0.017973606,0.0069953725,0.008801825,-0.0035439357,164,6,231,2,0,201.59875,262.22507,3062.732,60.793945,613674,695.3554,113.331215,111.092766,113.75568,113.75568,0,1,145.9474,0,0,6.918759,6.918759,0,5,255,0,0,0,1,127,166,0
True,24173765,15999.99,0,8492.329,23.00108,0.23574957,5.1492553,-6.177786,0.03514874,60.772713,-0.032715965,0.53309155,0.034778338,2.1075504,0.023782244,-0.020092681,0.37440306,0.23882872,0.35378376,0.23319791,0.27683467,0.77064556,0.28983116,0.56056416,193.747,198.1711,195.75125,196.68202,0,0,0,0,0,0,0,0,0,0,0,0,1.3811665,1.6808752,0.9599864,1.1771319,1.408637,1.8491176,1.0027841,1.3037913,0.01326029,-0.0033701248,0.013169676,-0.001167085,164,6,231,2,0,207.74467,262.08548,3060.0251,61.08592,542823.4,610.3766,115.94041,113.60612,114.68593,114.68593,0,1,151.45274,0,0,7.028973,7.0289736,0,5,255,0,0,0,1,117,178,0
True,24173875,15999.99,0,8527.784,23.92246,0.6056648,6.1824837,-6.703377,-0.029066026,61.00004,-0.02448513,0.45905256,0.025220793,2.1537127,0.021915143,-0.016163042,0.36538282,0.19977163,0.37635842,0.2076502,0.19435117,0.6168182,0.3192114,0.57659703,194.10403,198.15048,196.90057,197.87415,0,0,0,0,0,0,0,0,0,0,0,0,0.8966449,1.0868312,1.0262703,1.2504929,0.9174663,1.2496667,1.0747682,1.3770245,0.012153808,-0.008161116,0.015853636,-0.004204519,164,6,231,2,0,212.83104,261.9686,3057.535,61.367256,594902.8,666.2726,117.383,114.982506,116.05033,116.05033,-1.0600967,1,155.70573,0,0,7.1215005,7.1215005,0,5,255,0,0,0,1,0,193,0
True,24173984,15999.99,0,8592.244,22.845634,-0.3787409,6.0605617,-6.7526073,-0.060911834,61.360756,0.030255888,0.29916558,0.00048633665,2.199404,0.022224505,-0.014477902,0.34990302,0.18418205,0.41854793,0.22424681,0.24449162,0.6300965,0.3601085,0.58208966,195.60768,199.86133,198.22481,199.399,0,0,0,0,0,0,0,0,0,0,0,0,0.9729034,1.1265595,1.0260412,1.2373517,1.0031536,1.2907975,1.0874,1.367431,0.010254957,-0.010073435,0.020869657,-0.0022313036,164,6,231,2,0,219.255,261.81842,3054.0461,61.73122,567893.9,631.176,117.965576,115.84251,117.98059,117.98059,-4.4913273,1,161.22142,0,0,7.240294,7.2402935,0,5,255,0,0,0,1,0,214,0
True,24174093,15999.99,0,7985.5474,24.506237,1.3494726,3.835122,-6.046549,-0.08091235,61.551464,-0.020514548,0.28352782,0.043391988,2.2365944,0.019843694,-0.010415181,0.38694963,0.19668074,0.41206878,0.21750197,-0.3330977,-0.7391635,-0.13529694,-0.16250886,183.57718,175.23999,187.75769,186.5102,0,0,0,0,0,0,0,0,0,0,0,0,1.1439472,1.3907003,0.85382175,1.0797381,1.1914568,1.5749317,0.8644749,1.091899,0.01479933,-0.008540265,0.020099334,-0.003033217,164,6,231,2,0,225.38812,261.66434,3050.3472,61.847794,606487.94,721.5405,119.1098,116.94859,119.49904,119.49904,-9.431545,1,166.71739,0,0,7.3560424,7.356042,0,5,129,203,0,0,1,127,231,155
True,24174203,15999.99,0,7575.604,28.951883,4.408313,-16.921694,-4.7568226,0.3350773,59.28048,-0.08914575,0.3683899,0.035021357,2.2663536,0.019225096,-0.007406254,0.6583873,0.3844688,0.41139224,0.1579845,-0.38254893,-0.20709603,-0.35429946,-0.7115139,174.6397,178.20787,177.2104,171.1106,0,0,0,0,0,0,0,0,0,0,0,0,0.96511424,1.2125865,0.6893691,0.9006966,1.0381663,1.2301443,0.7750857,1.1478268,0.048095606,0.014495019,0.020018898,-0.010109402,164,6,231,2,0,230.80702,261.54648,3046.7178,59.471966,165263.83,208.4933,121.98805,119.0513,120.246796,120.246796,-14.7,1,171.63354,0,0,7.4633346,7.4633336,0,5,0,255,0,0,1,127,245,129
True,24174328,15999.99,0,7898.019,29.00429,9.282426,-4.1075373,-3.4102325,0.580275,58.22123,-0.21125363,0.2718594,-0.1455326,2.3133278,0.00116832,-0.0071658227,0.7235135,0.478031,0.6197067,0.33960852,0.044542708,0.06059062,0.075014964,0.13597424,182.36012,181.30031,182.86375,182.5554,0,0,0,0,0,0,0,0,0,0,0,0,-0.24797335,-0.23194061,0.5189942,0.5933896,0.25194213,0.23972416,0.5243875,0.6087694,0.056084402,0.025971957,0.044785947,0.011484347,164,6,231,2,0,236.52737,261.54263,3042.3066,58.3239,385018.6,465.56506,123.15069,119.85599,120.97717,120.97717,-14.7,1,177.09946,0,0,7.586859,7.5868583,0,5,225,0,0,0,1,-127,252,0
True,24174437,15999.99,0,8007.829,14.27463,8.772242,4.113727,-3.0872746,-0.027637234,58.715565,-0.16521133,0.00971066,-0.12364956,2.3283682,-0.023778295,-0.021745421,0.62248576,0.41909784,0.6088022,0.3782079,0.106850974,0.15525122,0.12650198,0.15738341,184.3392,184.99661,184.93925,185.22563,0,0,0,0,0,0,0,0,0,0,0,0,-0.22933277,-0.21155411,0.40006483,0.4762935,0.25300327,0.26240826,0.41958863,0.5016224,0.043691695,0.018742837,0.04348948,0.016073529,164,6,231,2,0,241.28395,261.6496,3038.349,58.796677,696649.3,830.98755,123.13641,119.77336,121.44597,121.44597,-14.7,1,181.79199,0,0,7.692594,7.692593,0,5,238,0,0,0,1,-24,253,68
True,24174546,15999.99,0,8049.012,16.031078,3.0138474,5.021444,-0.7256069,-0.22754799,59.302254,-0.09127416,-0.09846906,-0.058305964,2.319187,-0.030908486,-0.027451133,0.47887096,0.30604103,0.55294925,0.35955,0.06698484,0.092002936,0.119469516,0.124946736,184.95903,185.78186,185.95833,186.37764,0,0,0,0,0,0,0,0,0,0,0,0,0.1376724,0.1496458,0.07242187,0.10967122,0.15310343,0.17566562,0.13970645,0.16625121,0.02607499,0.0048745684,0.036848977,0.013855241,164,6,231,2,0,245.95674,261.8125,3034.232,59.30713,552531.44,655.54236,123.11864,119.68652,121.72511,121.72511,-14.7,1,186.50626,0,0,7.7980847,7.798084,0,5,194,0,0,0,1,0,250,74
True,24174656,15999.99,0,8118.159,7.9641123,6.8344994,4.8934455,0.08351517,-0.19298813,59.840885,-0.045415517,0.10602243,-0.08502233,2.318338,-0.043027353,-0.03734728,0.49539757,0.35414708,0.53774834,0.39703056,0.09109419,0.11558308,0.09009364,0.1098039,187.43805,187.31047,187.62862,187.46103,0,0,0,0,0,0,0,0,0,0,0,0,0.188174,0.19894063,-0.013547154,0.014924004,0.20906363,0.23008004,0.091106474,0.110813454,0.028102249,0.010775562,0.035041705,0.018311407,164,6,231,2,0,250.76776,262.03415,3029.812,59.84125,575149.44,676.7427,123.07926,119.60545,121.86366,121.86366,-14.7,1,191.45004,0,0,7.9077897,7.9077888,0,5,201,0,0,0,1,48,244,79
True,24174765,15999.99,0,8239.304,3.7791257,0.7150271,5.5205765,-0.27584267,-0.1768169,60.500313,-0.030085625,0.06799329,-0.072464466,2.3307652,-0.04224011,-0.047730137,0.38611445,0.27516717,0.44707578,0.32467762,0.10299359,0.115813784,0.15780713,0.18017903,189.61978,189.48683,190.67668,190.67776,0,0,0,0,0,0,0,0,0,0,0,0,0.031739455,0.03314822,0.0489957,0.06346078,0.10777325,0.12046426,0.16523822,0.19102815,0.014696885,0.0010873824,0.024261408,0.009709172,164,6,231,2,0,255.70029,262.30444,3025.1963,60.5012,670065.5,776.6849,122.9895,119.50496,121.97603,121.97603,-14.7,1,196.56087,0,0,8.020158,8.020157,0,5,230,0,0,0,1,0,236,81
True,24174875,15999.99,0,8254.011,8.600177,2.4669642,4.609856,-0.21530724,-0.21806407,61.007957,-0.016460901,0.2533763,-0.020650446,2.3459344,-0.046991374,-0.052793983,0.3758581,0.27652705,0.41329917,0.31345654,0.05837458,0.11203026,0.05485779,0.105319604,190.71176,190.31317,190.85504,190.5086,0,0,0,0,0,0,0,0,0,0,0,0,0.3634704,0.40522066,0.06914897,0.08355675,0.36812815,0.4204219,0.0882664,0.1344394,0.013438772,0.0012541935,0.020245623,0.008375075,164,6,231,2,0,260.48843,262.5803,3020.6235,61.008728,366719.88,424.29572,122.989075,119.46997,122.11032,122.11032,-14.7,1,201.56729,0,0,8.129139,8.129139,0,5,94,0,0,0,1,124,223,49
True,24174984,15999.99,0,8267.928,13.913071,-0.26099867,1.126337,-1.1005783,-0.11243397,61.024437,0.038750365,0.46786994,0.018770646,2.386616,-0.042320993,-0.054397874,0.3382602,0.22226995,0.36771983,0.26359552,0.053190477,0.16984273,0.048089836,0.16991778,190.91124,190.44951,191.22478,190.94778,0,0,0,0,0,0,0,0,0,0,0,0,0.60718524,0.7186652,0.24920899,0.28786537,0.6095106,0.7384621,0.25380653,0.33427313,0.008826777,-0.005401328,0.014826573,0.0024469644,164,6,231,2,0,265.21292,262.868,3015.9097,61.034462,278576.6,321.80954,123.1415,119.547264,122.253555,122.253555,-14.7,1,206.60614,0,0,8.238592,8.238592,0,5,111,0,0,0,1,124,208,4
True,24175093,15999.99,0,8269.821,21.104706,0.39820156,1.2405891,-2.3577557,-0.053459615,60.985565,0.024084277,0.5439316,0.005569041,2.4464872,-0.038762927,-0.054767758,0.40208054,0.24125707,0.37174702,0.22782862,0.05976549,0.24483405,0.03793612,0.1782558,190.91202,191.04674,191.16136,190.8225,0,0,0,0,0,0,0,0,0,0,0,0,0.7908836,0.9578212,0.422319,0.51487875,0.79313856,0.98861784,0.42401946,0.54486257,0.016655385,-0.003072247,0.015305378,-0.0018054545,164,6,231,2,0,269.787,263.13882,3011.0364,61.03115,235791.19,272.27927,123.50435,119.75029,122.545,122.545,-14.7,1,211.83725,0,0,8.348177,8.348177,0,5,98,0,0,0,1,126,194,0
True,24175218,15999.99,0,8117.1724,25.41059,1.0512675,1.0360775,-3.387783,0.002200529,60.79329,-0.03743961,0.587196,0.040897295,2.5092719,-0.035982486,-0.05379729,0.48799443,0.30757004,0.41568863,0.25291875,-0.08702139,-0.090550706,-0.038704433,0.069773085,187.12111,184.15146,188.86998,188.0293,0,0,0,0,0,0,0,0,0,0,0,0,0.8832018,1.1284848,0.5635931,0.70484877,0.88747853,1.1321119,0.56492054,0.7082938,0.027194135,0.0050621256,0.02052971,0.0011775754,164,6,231,2,0,274.1813,263.4003,3005.941,60.88761,194476.75,228.41205,124.03058,120.07902,122.97548,122.97548,-14.7,1,216.93451,0,0,8.458597,8.458598,0,4,85,60,0,0,1,126,177,237
True,24175312,15999.99,0,7287.259,27.075806,2.8457823,-15.430899,-4.300253,0.31753698,58.43872,-0.031628054,0.68165225,0.025870884,2.573662,-0.033080306,-0.054111876,0.55676556,0.34264663,0.4400186,0.2749217,-0.054948933,-1.0727093,-0.28460002,-1.308885,180.29039,162.68988,176.4779,156.65823,0,0,0,0,0,0,0,0,0,0,0,0,0.9835237,1.2159103,0.7325927,0.9200736,0.98505753,1.6214633,0.78593206,1.5999111,0.035630032,0.009364843,0.02342236,0.00379356,164,6,231,2,0,278.22186,263.6653,3000.7837,58.597584,-68164.266,-89.0958,125.317696,121.369705,123.5599,123.5599,-14.7,1,221.88089,0,0,8.568358,8.568358,0,4,0,255,0,0,1,127,161,129
True,24175421,15999.99,0,6881.171,26.326506,2.4695783,-16.90937,-5.9199314,0.519469,55.985435,-0.04782194,0.79133046,0.026424646,2.651774,-0.030744014,-0.054620992,0.58106095,0.40752953,0.4475412,0.22729103,-0.37337086,-0.32213616,-0.5510914,-1.6119218,164.2112,165.78241,165.82935,145.42932,0,0,0,0,0,0,0,0,0,0,0,0,1.266718,1.476833,1.0626484,1.368254,1.3205985,1.5115579,1.1970477,2.1143346,0.038610265,0.017323796,0.024316743,-0.0018693693,164,6,231,2,0,281.84573,263.94357,2995.6733,56.299946,-61312.336,-84.49924,127.60178,123.597916,124.639725,124.639725,-11.534098,1,227.36325,0,0,8.677677,8.677677,0,4,0,255,0,0,1,127,154,129
True,24175531,15999.99,0,7358.6626,27.629684,2.8122633,-9.496371,-7.9012794,0.4974367,54.122025,-0.08171034,0.84079754,0.02045108,2.7414021,-0.03208715,-0.055731993,0.6100568,0.37432846,0.40557107,0.23309278,0.06683142,0.24828564,0.049809348,0.2697666,169.67613,168.21133,170.94037,170.03192,0,0,0,0,0,0,0,0,0,0,0,0,1.5740355,1.96492,1.4344091,1.7465246,1.5754538,1.9805446,1.4352738,1.7672356,0.042167082,0.013251141,0.01932681,-0.0011795834,164,6,231,2,0,285.08713,264.2282,2990.618,54.698,228174.95,296.33408,131.46692,126.69624,127.61238,127.61238,0,1,231.9147,0,0,8.786429,8.786429,0,4,163,0,0,0,1,127,154,0
True,24175640,15999.99,0,7543.4277,28.043055,3.3660357,1.7643738,-9.621417,0.30557102,53.56184,-0.08035483,0.7511691,0.033894006,2.8302066,-0.038615283,-0.054918155,0.5868188,0.36957923,0.49292827,0.30954596,0.37929985,0.9220778,0.32604557,0.64661855,172.49055,175.45839,174.1595,174.52084,0,0,0,0,0,0,0,0,0,0,0,0,2.0400796,2.4553816,1.6177572,1.9460638,2.0750406,2.622809,1.6502861,2.0506778,0.039316557,0.012668569,0.02971293,0.007910132,164,6,231,2,0,287.9584,264.52716,2985.5508,54.419987,410190.1,519.329,136.88666,130.77487,132.02396,132.02396,0,1,236.33846,0,0,8.893397,8.893399,0,4,255,0,0,0,1,127,158,0
True,24175765,15999.99,0,7519.218,24.303946,2.477522,4.2508006,-11.278695,0.19653356,53.05847,-0.078958474,0.6701442,0.010674488,2.9170556,-0.041076474,-0.05671224,0.526936,0.33786675,0.52527726,0.33115155,0.44175202,0.92259306,0.3849182,0.767844,171.53275,174.11177,173.79231,174.41129,0,0,0,0,0,0,0,0,0,0,0,0,2.2716281,2.684038,1.7788792,2.3399887,2.3141823,2.838175,1.8200476,2.4627488,0.031970948,0.0087785125,0.033558987,0.01047888,164,6,231,2,0,290.97913,264.89297,2979.4773,54.244343,381537.44,484.36813,144.52356,137.41885,138.8023,138.8023,0,1,242.15775,0,0,9.018423,9.018426,0,4,255,0,0,0,1,127,166,0
True,24175875,15999.99,0,7539.3926,25.584963,2.7322521,4.784181,-11.94964,0.21275914,52.706596,-0.048788816,0.59382564,0.023722854,2.9845037,-0.044212595,-0.056720514,0.50526303,0.34725305,0.4632678,0.32556942,0.3599387,0.90133065,0.5469605,0.86967427,171.38155,175.19328,174.3297,174.80664,0,0,0,0,0,0,0,0,0,0,0,0,1.8273516,2.1593308,2.1573656,2.4951863,1.8624634,2.3398945,2.2256217,2.642402,0.02931241,0.009929895,0.026186518,0.009815205,164,6,231,2,0,293.26993,265.2338,2974.1274,54.04465,364715.56,462.03943,150.85324,142.58592,146.08987,146.08987,0,1,246.53142,0,0,9.126135,9.126137,0,4,255,0,0,0,1,-3,179,0
True,24175984,15999.99,0,7476.035,25.818771,2.9626784,5.4232025,-12.561682,0.21379113,52.395947,-0.10525843,0.61529535,0.038784344,3.0479033,-0.046817288,-0.0567607,0.490555,0.31797117,0.4461957,0.28244066,0.3170443,0.76965827,0.47465605,0.8610647,169.84793,172.59598,172.99329,173.86803,0,0,0,0,0,0,0,0,0,0,0,0,1.8531983,2.2713392,2.0267642,2.5758073,1.8801225,2.3981984,2.081603,2.7159188,0.027508229,0.006337993,0.024156772,0.004687514,164,6,231,2,0,295.28784,265.5847,2968.6946,53.881134,420092.97,536.4351,155.30609,146.43573,153.53633,153.53633,0,1,250.9143,0,0,9.233722,9.233724,0,4,255,0,0,0,1,0,198,0
True,24176093,15999.99,0,7457.8823,23.564404,2.3232388,4.6859994,-13.247308,0.09768653,51.997272,-0.03260535,0.52277607,0.05097311,3.1115654,-0.0525062,-0.054286245,0.38115603,0.2699126,0.43168816,0.25868464,0.4927815,0.9912079,0.5027477,0.8898827,170.34488,173.72095,171.90604,172.7862,0,0,0,0,0,0,0,0,0,0,0,0,2.2799494,2.6148782,2.1738055,2.754398,2.3325958,2.7964408,2.2311847,2.894581,0.014088653,0.00044282153,0.022431932,0.0018630996,164,6,231,2,0,297.00696,265.961,2963.178,53.658333,330570.62,423.19522,160.50467,150.73703,161.2615,161.2615,0,1,255.51698,0,0,9.3414345,9.341437,0,4,255,0,0,0,1,3,217,0
True,24176203,15999.99,0,7435.514,22.122568,1.2267059,4.245821,-13.70587,0.08029914,51.621483,-0.050274502,0.5117097,0.06450356,-3.1158316,-0.05396076,-0.05089848,0.37944013,0.25823018,0.39951587,0.26262286,0.50426704,1.0475552,0.60026574,0.9442576,169.35309,173.26904,171.65826,172.22284,0,0,0,0,0,0,0,0,0,0,0,0,2.4188688,2.723883,2.4270213,2.88302,2.4708726,2.9183745,2.5001502,3.033715,0.01387817,-0.0009902194,0.01860689,0.002331324,164,6,231,2,0,298.4808,266.3498,2957.5374,53.410057,302420.7,388.3766,166.40714,155.63365,168.99751,168.99751,0,1,259.8652,0,0,9.450591,9.450594,0,4,255,0,0,0,1,0,239,0
True,24176312,15999.99,0,7470.5327,15.41266,-1.5620345,4.3853407,-14.535948,0.027468204,51.362377,0.046094,0.34834594,0.069079705,-3.0674944,-0.05175804,-0.04413183,0.30739358,0.29502398,0.4324729,0.25878334,0.46377477,0.34449267,0.8093531,1.1026039,172.28325,169.03867,173.19478,173.88174,0,0,0,0,0,0,0,0,0,0,0,0,-0.9146892,-0.238478,2.6466572,3.054108,1.0255454,0.41898325,2.767643,3.2470465,0.005040478,0.0035231449,0.022525236,0.0018748343,164,6,231,2,0,299.7215,266.7283,2951.8687,53.37966,415358.06,531.1583,167.53363,157.20184,176.987,176.987,0,1,264.22174,0,0,9.55959,9.559594,0,4,255,0,0,0,1,-127,6,0
True,24176421,15999.99,0,6913.924,17.107021,-5.5916367,-26.983543,-13.6074915,-0.20701408,46.106384,0.035173006,0.13923015,0.137399,-3.0397396,-0.044307873,-0.03443933,0.16235591,0.27377635,0.26807544,0.26308566,1.0139397,0.13533701,1.3630564,1.6762352,161.24785,150.38602,161.27226,162.24693,0,0,0,0,0,0,0,0,0,0,0,0,-0.7353404,-0.06790617,2.9815173,3.322834,1.2525172,0.15141782,3.278318,3.7216918,-0.012750767,0.0009167753,0.0029795915,0.0023863502,164,6,231,2,0,300.71347,267.01202,2946.7432,48.072918,93131.33,128.42627,166.24445,155.38855,183.71135,183.71135,0,1,268.15146,0,0,9.667334,9.667336,0,4,255,0,0,0,1,-127,25,0
True,24176531,15999.99,0,6799.6807,5.417206,-3.558077,-1.518748,-13.276064,-0.31985712,46.46378,-0.026227497,-0.12430464,0.16545632,-3.0392754,-0.04419685,-0.016926518,0.11633239,0.34402335,0.1821742,0.27864218,0.4421295,0.15256046,1.0830104,1.1441226,155.20256,152.43053,158.65393,158.89839,0,0,0,0,0,0,0,0,0,0,0,0,-0.69698983,-0.09019788,2.7438166,2.9593892,0.82539284,0.17722966,2.9498205,3.1728537,-0.018396309,0.009533722,-0.007233426,0.0042359047,164,6,231,2,0,301.64474,267.23788,2941.6458,48.324306,390468.9,548.37177,164.51767,153.64587,190.24179,190.24179,0,1,272.03293,0,0,9.774947,9.774952,0,4,255,0,0,0,1,-127,42,0
True,24176656,15999.99,0,6807.557,4.8473406,-1.3296099,0.031282708,-11.028909,-0.28623736,46.991364,0.023630831,-0.42811826,0.17898464,-3.074714,-0.04725684,0.007477763,0.18686627,0.3825983,0.21317102,0.31086603,0.6166134,0.24400125,0.8955263,0.82414985,156.86966,154.70747,157.91432,158.06549,0,0,0,0,0,0,0,0,0,0,0,0,-1.1189233,-0.503202,2.1250823,2.2627006,1.2775764,0.55923957,2.3060663,2.408119,-0.009744171,0.014265571,-0.0035481341,0.008067079,164,6,231,2,0,302.67764,267.4808,2935.624,48.269104,407782.66,571.99866,162.65071,151.8214,196.40376,196.40376,0,1,276.63068,0,0,9.901209,9.901214,0,4,255,0,0,0,1,-127,62,0
True,24176765,15999.99,0,6732.428,3.741181,-2.7295065,-5.9688425,-7.7735095,-0.12961543,46.815796,0.029309634,-0.6762217,0.2009351,-3.134339,-0.040858872,0.030209145,0.15538256,0.4130389,0.18533956,0.32057583,0.9342905,0.3129608,0.8197329,0.6943982,156.50397,153.42856,155.25865,156.26367,0,0,0,0,0,0,0,0,0,0,0,0,-1.7506005,-1.0805943,1.4711533,1.5667368,1.9843136,1.1250015,1.6841182,1.713725,-0.0136061665,0.017999612,-0.0068570897,0.009221505,164,6,231,2,0,303.49448,267.6627,2930.5417,47.45696,341724.16,484.4267,162.54214,150.60095,198.10832,198.10832,0,1,280.5079,0,0,10.008932,10.008936,0,4,255,0,0,0,1,-127,78,0
True,24176875,15999.99,0,6492.3706,2.4421227,-1.3432019,-8.474799,-3.358194,-0.07639432,46.33469,-0.010115409,-0.9259554,0.2538367,3.061382,-0.03557271,0.05676166,0.17051879,0.39718077,0.15519682,0.33830023,1.2891356,0.40130442,0.39323366,0.24072316,154.18016,150.44997,147.61487,149.6904,0,0,0,0,0,0,0,0,0,0,0,0,-2.6681602,-1.8370736,0.46561098,0.50062025,2.9632666,1.8803948,0.60944754,0.55548924,-0.011749459,0.016054347,-0.010440838,0.011328805,164,6,231,2,0,304.2789,267.81647,2925.4993,46.456287,407071.94,598.15094,165.2698,151.34262,196.16425,196.16425,0,1,284.35275,0,0,10.1178875,10.117891,0,4,255,0,0,0,1,-111,91,0
True,24176984,15999.99,0,6299.555,-6.5058317,2.7108698,-7.1559277,1.1191363,-0.2606895,45.545612,-0.23310804,-1.0237552,0.029797405,2.9479585,-0.038715016,0.07534161,0.3354639,0.4768406,0.32891843,0.47008047,0.23874904,0.1115623,0.3307674,0.09247556,143.1884,146.67482,144.73543,146.83365,0,0,0,0,0,0,0,0,0,0,0.120000005,0.120000005,0.09047524,0.079403274,-0.45039913,-0.33612415,0.2553172,0.13693438,0.558808,0.3486132,0.008483764,0.025825933,0.010213375,0.026996493,164,6,231,2,0,305.06116,267.97095,2920.5437,45.560104,752252.56,1140.4791,165.91742,151.51492,192.72632,192.72632,0,1,288.5347,0,0,10.227379,10.227382,0,4,255,0,0,0,1,0,97,0
True,24177093,15999.99,0,6380.488,-21.361057,4.0993185,3.3646967,2.8205843,-0.14839458,45.716373,-0.054891568,-0.74341255,-0.0020780098,2.8518777,-0.041352455,0.07815952,0.26925814,0.4731539,0.33203486,0.5037831,0.57646936,0.12807372,0.6389943,0.2477458,147.09218,145.49596,148.21259,147.64276,0,0,0,0,0,0,0,0,0,0,0,0,-0.43561134,-0.35367095,-0.8428849,-0.6855948,0.722547,0.3761463,1.0577186,0.72898436,0.00036254153,0.025373697,0.010583892,0.03100349,164,6,231,2,0,306.03757,268.17212,2915.69,45.80354,646957.94,968.8019,164.16669,150.20596,189.77393,189.77393,0,1,292.29208,0,0,10.336454,10.336458,0,4,255,0,0,0,1,0,105,0
True,24177203,15999.99,0,6502.0713,-22.212564,1.1849439,7.508132,3.3541193,-0.1234324,46.33696,0.0142019,-0.4841505,0.041167535,2.7854078,-0.037499133,0.08294256,0.24545439,0.4642538,0.3020688,0.50247884,0.76895535,0.17774057,0.6625041,0.33927706,151.71361,147.39133,151.00291,149.98096,0,0,0,0,0,0,0,0,0,0,0,0,-0.6819713,-0.5756025,-0.9186138,-0.76166034,1.0278021,0.60242003,1.1325912,0.83380777,-0.0025573783,0.024281956,0.0070211515,0.030848421,164,6,231,2,0,307.32913,268.38696,2910.7898,46.45836,545529.6,801.5131,162.65846,149.1331,187.00064,187.00064,-14.7,1,296.13028,0,0,10.446364,10.446366,0,4,255,0,0,0,1,-5,116,0
True,24177312,15999.99,0,5953.123,-25.181305,2.9636285,-2.7190828,2.9676237,-0.029644728,45.963688,-0.093074396,-0.45851958,-0.27140987,2.7338555,-0.039788462,0.06925029,0.71996474,0.43414643,0.21130475,0.5160861,-0.05956925,-0.120132595,-0.92322356,-0.17557351,140.04298,141.62946,130.58002,140.76355,0,0,0,0,0,0,0,0,0,0,0,0,-0.8681411,-0.886391,-0.9012363,-0.5920212,0.87018245,0.8944947,1.2901816,0.6175072,0.055649087,0.020588793,-0.0037700199,0.032466225,164,6,231,2,0,308.89862,268.59756,2905.95,46.0594,538039.6,862.0393,161.40701,148.26254,184.31837,184.31837,-14.7,1,299.96402,0,0,10.555857,10.55586,0,4,99,255,0,0,1,-127,125,174
True,24177437,15999.99,0,5518.325,-19.915224,-0.31466162,-10.952179,2.5854263,0.050079584,44.43698,0.106543094,-0.2661985,-0.22271758,2.6952822,-0.037147183,0.041077413,0.44744658,0.2782744,0.44055545,0.45527676,-0.5929073,-0.82639766,-1.1877793,-0.5308594,129.40382,123.915436,125.589966,130.14354,0,0,0,0,0,0,0,0,0,0,0,0,-1.1974584,-1.0328126,-0.7356985,-0.5945053,1.3362057,1.3227377,1.3971657,0.79702467,0.022220276,0.0014685318,0.02348619,0.025236443,164,6,231,2,0,310.6929,268.81018,2901.2915,44.51216,103342.2,178.8551,160.89001,147.91283,181.99648,181.99648,-14.7,1,304.8,0,0,10.6661825,10.666184,0,4,35,255,0,0,1,-127,127,163
True,24177531,15999.99,0,6099.3955,-17.861008,-2.0017421,-4.628082,2.2947655,0.16494179,43.88663,-0.00085442513,-0.40339345,-0.13775632,2.6657932,-0.03002859,0.025408344,0.37770888,0.3047184,0.2716713,0.29287937,0.53527784,0.19161223,0.61081463,0.23202738,141.05565,139.2358,141.97835,140.5222,0,0,0,0,0,0,0,0,0,0,0,0,-0.98207474,-0.83723974,-0.70287526,-0.56464624,1.1184781,0.8588863,0.93119717,0.6104606,0.013665803,0.0047123246,0.003407117,0.0059285983,164,6,231,2,0,312.3133,268.9653,2897.5159,43.94689,407218.47,637.76013,160.24005,147.65985,180.08774,180.08774,-14.7,1,307.91202,0,0,10.759605,10.759608,0,4,255,0,0,0,1,-21,127,36
True,24177640,15999.99,0,6258.12,-16.07266,-1.8498772,4.6407757,1.8273163,-0.028177977,44.572014,0.007331214,-0.18638928,0.014774122,2.6311526,-0.029398927,0.018766461,0.23294051,0.3617305,0.22866622,0.34930554,1.2674563,0.121896885,0.5314466,0.30754808,152.17325,140.28712,144.21254,143.00302,0,0,0,0,0,0,0,0,0,0,0,0,-0.41526744,-0.34057352,-0.50329804,-0.4296847,1.3337513,0.3617308,0.73194563,0.52840775,-0.00409241,0.01170579,-0.00170587,0.012637254,164,6,231,2,0,314.48032,269.12756,2893.005,44.609463,499526.56,762.45416,159.09662,146.85571,177.79446,177.79446,-14.7,1,311.71054,0,0,10.872709,10.872712,0,4,255,0,0,0,1,0,122,6
True,24177750,15999.99,0,6389.0464,-12.676555,-1.8362992,7.7589216,0.74396706,-0.19971323,45.4741,0.029174987,0.0024426593,0.17448744,2.622472,-0.027826522,0.029694453,0.1487469,0.36706257,0.222702,0.39175826,0,0.14921527,0.37453896,0.36369354,157.74292,142.93369,146.05428,146.03566,0,0,0,0,0,0,0,0,0,0,0,0,0,-0.18381502,-0.17883694,-0.16981177,0,0.23675548,0.41504467,0.4013839,-0.014420139,0.012359858,-0.0024149716,0.017684564,164,6,231,2,0,316.8643,269.26337,2888.516,45.48062,752279.94,1126.0134,158.10684,146.0151,175.60255,175.60255,-14.7,1,315.56943,0,0,10.985621,10.985624,0,4,255,0,0,0,1,-2,114,0
True,24177859,15999.99,0,6384.0195,-11.996268,2.3822794,11.328625,0.031721115,-0.26294792,46.64215,-0.07205753,-0.17501661,0.14994416,2.6146238,-0.029693976,0.058596347,0.12195083,0.4367689,0.11322896,0.43955824,0.22796197,0.13001809,0.23546672,0.15800056,147.24232,146.9417,147.60728,147.6363,0,0,0,0,0,0,0,0,0,0,0,0,-0.3726297,-0.33181214,-0.063814566,-0.044889186,0.43682897,0.3563762,0.2439608,0.1642535,-0.017707115,0.02091048,-0.015430504,0.023367628,164,6,231,2,0,319.42218,269.3726,2883.971,46.642906,752279.4,1125.9062,156.81796,145.24294,173.3953,173.3953,-14.7,1,320.29242,0,0,11.098988,11.098991,0,3,255,0,0,0,1,-127,100,0
True,24177984,15999.99,0,6598.3066,-11.579269,0.9936462,10.036276,0.35162163,-0.19693899,47.715904,0.021659877,-0.41410816,0.042351596,2.579342,-0.030105785,0.07135071,0.20228326,0.36381432,0.24471626,0.45366314,0.47758693,0.25815937,0.39687005,0.21144374,152.93991,152.2929,152.37703,152.14175,0,0,0,0,0,0,0,0,0,0,0,0,-0.63005126,-0.5698577,-0.18729049,-0.15568008,0.7906035,0.62560695,0.43884343,0.2625733,-0.007853024,0.011961408,0.0002023615,0.025044598,164,6,231,2,0,322.2035,269.51648,2879.3403,47.717613,720819.2,1043.9045,155.8472,144.61806,171.41965,171.41965,-14.7,1,324.3157,0,0,11.213468,11.213471,0,3,255,0,0,0,1,-127,79,0
True,24178093,15999.99,0,6648.997,-15.965412,-0.6621846,6.5662794,1.2174416,-0.19284129,48.46914,-0.0011906883,-0.53200454,-0.036262646,2.5254517,-0.023701409,0.07264377,0.20224904,0.28796008,0.25686982,0.3611379,0.37438393,0.12890899,0.36312318,0.1334151,153.44781,153.0877,153.80244,153.61938,0,0,0,0,0,0,0,0,0,0,0,0,-0.8220477,-0.69828063,-0.4112078,-0.34516573,0.90328604,0.71007985,0.54858935,0.37005267,-0.007857222,0.0026566423,0.0016473308,0.0140440315,164,6,231,2,0,325.1888,269.6478,2874.7004,48.48481,415313.56,596.47955,155.0434,144.15083,169.62723,169.62723,-14.7,1,328.44763,0,0,11.328083,11.328087,0,3,53,0,0,0,1,-127,53,0
True,24178203,15999.99,0,6080.735,-19.956596,0.7243496,-6.074244,1.8179588,-0.045734167,47.82668,0.060953185,-0.52040064,-0.028694,2.4635136,-0.018871449,0.06882969,0.19669288,0.31907836,0.21862379,0.33887753,-0.29949582,-0.12794687,-1.1147827,-0.29817164,142.46802,146.91365,131.4553,144.80089,0,0,0,0,0,0,0,0,0,0,0,0,-1.0082161,-0.8396411,-0.5559416,-0.46665925,1.0517592,0.84933364,1.2457173,0.55378443,-0.008538775,0.0064738095,-0.0028998405,0.011397436,164,6,231,2,0,328.39014,269.76422,2870.1824,47.86124,19137.469,29.962223,154.36263,143.9248,167.9895,167.9895,-14.7,1,332.77704,0,0,11.442432,11.442436,0,3,0,255,0,0,1,-127,24,129
True,24178312,15999.99,0,5556.7637,-22.92882,-1.3496218,-31.890821,2.493784,0.21514297,44.274467,0.062187754,-0.68640995,-0.04384673,2.399946,-0.0058815484,0.067508034,0.252542,0.39483264,0.16151826,0.29137126,-0.35353968,-0.08552466,-1.3750994,-0.38007128,131.04398,136.92485,117.113625,133.43259,0,0,0,0,0,0,0,0,0,0,0,0,-1.093546,-0.89608973,-0.8453721,-0.6816513,1.1492752,0.9001618,1.6141723,0.7804503,-0.0016879663,0.015766311,-0.009689264,0.0057492927,164,6,231,2,0,331.45743,269.849,2866.2363,44.345165,-39883.34,-68.15138,154.57565,144.03821,167.29924,167.29924,-14.7,1,336.39926,0,0,11.551003,11.551008,0,3,0,255,0,0,1,-127,251,129
True,24178421,15999.99,0,5146.28,-20.293785,-0.07242763,-16.93131,4.1113377,0.43426585,42.046165,0.034126416,-0.8179869,0.022122234,2.3090875,0.0035853905,0.06670247,0.26374426,0.4187791,0.115234256,0.26837584,-0.57653594,-0.5591229,-0.9546393,-1.3032614,120.637726,125.36489,118.2593,114.95296,0,0,0,0,0,0,0,0,0,0,0,0,-1.5270731,-1.3326128,-1.3650094,-1.1695806,1.6322825,1.4451557,1.6657091,1.7511165,-0.0003138259,0.01870374,-0.01519209,0.0030153096,164,6,231,2,0,334.7891,269.92358,2862.383,42.248924,32394.457,60.146606,155.3417,144.9274,167.88991,167.88991,-14.7,1,340.1445,0,0,11.668805,11.668811,0,3,70,255,0,0,1,-127,220,129
True,24178531,15999.99,0,5572.809,-19.109278,-0.97422767,-8.660075,5.878811,0.34979784,40.758354,-0.020756312,-0.8937177,0.009287076,2.2216876,0.010555269,0.06733952,0.20851678,0.36567703,0.078556426,0.22081488,0.20442556,0.07985739,0.47175533,-0.014019388,125.833046,128.55374,129.99484,129.03886,0,0,0,0,0,0,0,0,0,0,0,0,-2.0542827,-1.6755935,-1.9124553,-1.5812773,2.064429,1.6774954,1.9697813,1.5813394,-0.007088382,0.012189899,-0.019552812,-0.0026393346,164,6,231,2,0,337.7087,269.9673,2859.288,41.18162,431904.06,743.6317,157.1503,147.52739,168.56499,168.56499,-14.7,1,343.30353,0,0,11.771017,11.771023,0,3,255,0,0,0,1,-127,196,0
True,24178656,15999.99,0,5769.5796,-18.661991,-0.8864124,2.6028523,7.8869553,0.12898862,40.390682,0.010693345,-0.8105132,0.015128492,2.1162295,0.014684477,0.06679112,0.15220824,0.30632737,0.11824551,0.28451133,1.3037513,0.48805523,0.9629752,0.4260353,134.8606,131.33786,133.6224,133.02724,0,0,0,0,0,0,0,0,0,0,0,0,-2.6882741,-2.3062007,-2.3985944,-1.9020051,2.9877393,2.357278,2.584681,1.9491355,-0.013995547,0.0049096905,-0.014834074,0.0049337037,164,6,231,2,0,341.26923,269.98993,2855.8735,41.15371,214053.52,354.22604,161.1998,152.38318,171.68008,171.68008,0,1,346.99893,0,0,11.890888,11.890895,0,3,255,0,0,0,1,-127,172,0
True,24178750,15999.99,0,5733.652,-18.813398,-0.40236127,3.9335737,9.114903,0.13877952,40.05688,0.00022340938,-0.7628084,0.030528963,2.0381737,0.021749593,0.06825933,0.13459128,0.34669685,0.119927384,0.36088842,1.1220089,0.5231145,1.013533,0.5125005,132.23811,130.46162,133.26692,132.71802,0,0,0,0,0,0,0,0,0,0,0,0,-2.9341755,-2.541909,-2.6900837,-2.2474763,3.1413834,2.5951781,2.8746824,2.3051696,-0.016156556,0.00986167,-0.014634112,0.014014374,164,6,231,2,0,344.42905,269.98657,2853.1382,41.08107,222214.16,370.01187,166.51067,158.16234,175.45113,175.45113,0,1,349.8968,0,0,11.992533,11.99254,0,3,255,0,0,0,1,-127,156,0
True,24178859,15999.99,0,5690.238,-19.836327,0.4597181,4.253401,10.10484,0.10700488,39.647575,0.01051854,-0.72116464,0.06440479,1.9611244,0.026274592,0.07244748,0.15313572,0.36881745,0.12382671,0.87743574,1.1969928,0.6435631,1.0317973,0.50486594,131.48117,130.06386,132.16182,131.35782,0,0,0,0,0,0,0,0,0,0,0,0,-3.227494,-2.909804,-2.9814947,-2.3892188,3.4423115,2.980123,3.1549828,2.441978,-0.013881778,0.012575123,-0.014170511,0.075428024,164,6,231,2,0,347.72147,269.97128,2850.5625,40.91515,204132.73,342.5171,172.62444,165.47641,180.23874,180.23874,0,1,353.0327,0,0,12.0945015,12.094508,0,3,255,0,0,0,1,-101,142,0
True,24178984,15999.99,0,5706.769,-15.905359,-0.19117957,3.9650836,11.236016,0.528088,39.207573,0.1407451,-0.7138629,0.14782436,1.8892021,0.047441233,0.09041986,0.21435356,0.28777093,0.13356271,0.6823506,0.7003934,0.86982316,1.4185275,0.644724,127.85755,132.61017,133.50319,131.77562,0,0,0,0,0,0,0,0,0,0,0,0,-2.5572112,-2.7264273,-3.569772,-2.6629157,2.651392,2.8618174,3.8412879,2.739852,-0.0063724034,0.0026334375,-0.013012972,0.052233838,164,6,231,2,0,351.28036,269.95053,2848.052,40.789223,182537.5,305.3903,178.79807,170.18747,184.95976,184.95976,0,1,356.3176,0,0,12.201152,12.2011595,0,3,255,0,0,0,1,0,132,0
True,24179093,15999.99,0,5650.0586,-15.112222,-1.410966,3.7820487,13.19162,0.46494496,38.42452,-0.02178507,-0.8716943,-0.010894413,1.7962165,0.06062244,0.08977209,0.26863244,0.2667433,0.0869674,0.34774125,1.0918392,0.74396527,1.4412097,0.81056565,128.65465,129.73442,131.44102,130.92595,0,0,0,0,0,0,0,0,0,0,0,0,-3.2438867,-3.0145617,-4.042158,-3.370284,3.4227057,3.1050065,4.291402,3.466386,0.00028578937,5.4057688E-05,-0.01855281,0.012451269,164,6,231,2,0,355.2506,269.89188,2845.4888,40.628544,152849.8,258.27396,185.38513,175.89577,190.30188,190.30188,-11.76,1,359.89157,0,0,12.317247,12.317257,0,3,255,0,0,0,1,0,129,0
True,24179203,15999.99,0,5659.199,-12.294568,-0.30837893,5.581501,15.421733,0.31504512,37.578735,-0.036609314,-0.8432749,0.060739346,1.6962343,0.06703119,0.08543484,0.27417365,0.27785146,0.0764647,0.35048956,0.17808291,0.30125478,1.8518245,1.1609892,124.6689,129.80782,133.00093,132.13249,0,0,0,0,0,0,0,0,0,0,0,0,-0.24748845,0.7127148,-4.614089,-3.8994431,0.30490008,0.77376795,4.971828,4.068606,0.00096550956,0.0014166534,-0.019801503,0.012778021,164,6,231,2,0,359.20956,269.80078,2843.161,40.621304,302900.3,511.12408,187.59326,177.70561,195.83746,195.83746,-11.76,1,363.41513,0,0,12.430459,12.430469,0,3,255,0,0,0,1,127,129,0
True,24179312,15999.99,0,5639.845,-6.4215317,1.5022858,3.7777221,17.757494,0.19969559,36.615425,0.0056167245,-0.5942613,0.0687984,1.6174937,0.06963505,0.088510096,0.3629136,0.29007778,0.14026774,0.4436332,0.08908168,0.89686906,1.98619,1.1934345,124.81472,134.50282,131.24527,129.89265,0,0,0,0,0,0,0,0,0,0,0,0,-0.0014703135,1.6705753,-5.2557054,-4.0237913,0.08909381,1.8961002,5.6184864,4.1970444,0.01185092,0.0029164106,-0.012215793,0.02385211,164,6,231,2,0,363.1151,269.70813,2841.0005,40.69469,245630.22,415.91516,185.0231,176.99234,201.87967,201.87967,-5.879999,1,366.7911,0,0,12.540199,12.54021,0,3,255,0,0,0,1,127,129,0
True,24179421,15999.99,0,5803.8896,-5.1769276,-0.8553461,2.7355835,19.011963,0.19769955,35.942863,0.07224302,-0.34177682,0.06300373,1.5669839,0.080856055,0.091898106,0.37133846,0.17874452,0.13464612,0.44687673,0.072288565,1.7181059,2.7219343,1.8262265,125.51067,141.42262,135.3151,133.37897,0,0,0,0,0,0,0,0,0,0,0,0,0.10910297,2.2119765,-5.8468146,-4.4990106,0.13087817,2.8008442,6.449354,4.8555326,0.012884367,-0.0107404385,-0.012884164,0.024237745,164,6,231,2,0,367.06226,269.6144,2838.912,40.66182,256101.81,421.5661,182.58902,177.86157,206.50247,206.50247,-5.879999,1,370.16583,0,0,12.65003,12.650041,0,3,255,0,0,0,1,127,136,0
True,24179531,15999.99,0,5974.8467,-5.5915117,-0.32438838,3.351865,19.196558,0.32143438,35.881927,0.01075289,-0.058451314,0.0011710778,1.5436381,0.090412065,0.09499114,0.3509467,0.09925688,0.071217276,0.21205597,0.06972302,2.254146,3.100398,2.378624,126.81496,147.54018,139.15904,137.68802,0,0,0,0,0,0,0,0,0,0,0,0,0.011100329,2.006102,-5.7943015,-4.725896,0.070601106,3.0175521,6.5716357,5.2907414,0.010382984,-0.0204909,-0.020425383,-0.003680706,164,6,231,2,0,371.4752,269.48712,2836.669,40.6955,288113.2,460.72302,180.08435,180.9081,211.07826,211.07826,-5.879999,1,373.90326,0,0,12.771796,12.771807,0,3,255,0,0,0,1,127,145,0
True,24179640,15999.99,0,6454.3525,-0.37936535,-4.197535,3.1122625,18.98291,-0.31062794,36.29788,-0.26231173,0.16776429,-0.20105554,1.5481827,0.07907179,0.085489064,0.3411716,0.09392271,0.036822513,0.07467235,0.42413414,2.5284688,3.9841914,0,132.88745,153.54001,153.28096,151.1632,0,0,0,0,0,0,0,0,0,0,0,0,0.08009022,1.8508583,-5.074377,0,0.43162972,3.1335015,6.4515953,0,0.009183906,-0.021145223,-0.024514666,-0.0200146,164,6,231,2,0,375.13235,269.35858,2834.866,40.963196,280121.47,413.88983,178.17976,184.49298,208.58853,208.58853,-5.879999,1,376.97894,0,0,12.8717985,12.87181,0,3,255,0,0,0,1,127,154,0
True,24179765,15999.99,0,5657.997,-3.9497242,1.3722255,4.3082805,17.462692,-0.7269676,37.349022,-0.11985643,0.42020476,-0.14127617,1.5772265,0.051278092,0.067551605,0.317356,0.14016083,0.34354398,0.19113924,0.11527295,0.5485239,1.2818618,1.1568518,130.80554,131.3404,131.64868,129.25143,0,0,0,0,0,0,0,0,0,0,0,0,0.44499767,2.137834,-4.0699315,-3.705136,0.45968553,2.2070825,4.267026,3.8815384,0.0062625334,-0.01547336,0.0119522475,-0.0061675496,164,6,231,2,0,378.99084,269.19046,2832.9883,41.236195,243729.05,410.9262,176.44312,188.28055,215.52715,215.52715,-5.879999,1,380.22253,0,0,12.976115,12.976126,0,3,0,0,0,0,1,127,164,0
True,24179859,15999.99,0,4588.4355,-3.8532615,2.3448296,-6.688324,14.547275,-0.18030214,37.51589,0.04991586,0.6998899,-0.09841784,1.6415827,0.046582367,0.057094198,0.34116822,0.2507955,0.3576517,0.25671646,-0.61846346,-0.7203166,-1.3151649,-1.4221112,116.490036,111.94156,104.60294,98.4108,0,0,0,0,0,0,0,0,0,0,0,0,1.0337439,2.5834303,-3.5005906,-3.6335902,1.2046258,2.6819708,3.739491,3.901971,0.0091834925,-0.0019022003,0.013629552,0.0016290955,164,6,231,2,0,383.22272,269.0477,2830.9973,40.238007,54094.01,112.22231,174.81747,191.86516,222.0618,222.0618,-5.879999,1,383.74323,0,0,13.090599,13.0906105,0,3,0,197,0,0,1,127,177,158
True,24179984,15999.99,0,4963.2256,-0.12886739,-0.45620012,-9.056323,11.018505,0.023193419,37.586082,0.021624448,0.9714661,-0.04653699,1.7350047,0.04688027,0.054722782,0.34135112,0.26399845,0.2562482,0.19848531,-0.03426796,-0.25571838,-0.5703901,-0.35974085,124.10634,115.887375,112.941574,110.49264,0,0,0,0,0,0,0,0,0,0,0,0,0.8450173,1.9406979,-2.6423786,-2.7292435,0.8457119,1.9574729,2.7032406,2.75285,0.009205926,-0.00028264523,0.0015734248,-0.0052941553,164,6,231,2,0,387.1921,268.92508,2829.1067,39.167862,-31351.162,-60.423477,174.45488,197.12074,226.34995,226.34995,0,1,387.05444,0,0,13.201649,13.20166,0,3,0,0,0,0,1,0,188,0
True,24180093,15999.99,0,5122.7095,-11.973458,0.108503014,-3.0121326,5.074875,0.067190886,38.323143,-0.044717938,1.1059563,-0.15464556,1.8558896,0.0385511,0.047175724,0.28131288,0.25133902,0.22704262,0.19798358,-0.0068373964,-0.00069185486,-0.21007891,-0.016763117,122.100624,116.8066,119.42015,115.95206,0,0,0,0,0,0,0,0,0,0,0,0,-1.3734107,-1.2348663,-1.0678115,-0.9242531,1.3734277,1.2348665,1.0882806,0.9244051,0.0018412545,-0.0018355325,-0.0018989034,-0.0053538084,164,6,231,2,0,391.1374,268.79614,2827.2473,38.657753,-33497.797,-62.457848,172.94081,194.83917,225.87106,225.87106,0,1,390.3379,0,0,13.3139,13.3139105,0,3,0,0,0,0,1,0,200,0
True,24180187,15999.99,0,5151.1543,-4.13133,0.12795141,-2.5712085,0.34740067,0.010846019,38.413113,-0.008753853,1.2194397,0.058966435,1.9636288,0.031241916,0.044603724,0.30283427,0.2998633,0.20415318,0.23649019,-0.0047529666,-0.003786745,-0.01313262,-0.003292764,121.90618,115.94888,121.881325,116.084274,0,0,0,0,0,0,0,0,0,0,0,0,0.6393629,0.79486144,0.26222393,0.3039993,0.6393806,0.7948705,0.26255256,0.30401713,0.004481204,0.004116766,-0.0046202876,-0.0007756576,164,6,231,2,0,394.4618,268.6848,2825.8462,38.414684,-33899.98,-62.83167,172.12015,192.9949,222.029,222.029,0,1,393.03946,0,0,13.407621,13.407632,0,3,0,0,0,0,1,127,214,0
True,24180296,15999.99,0,5081.7627,18.172476,-0.038521707,-0.9516711,-2.8045397,0.03998542,38.015686,0.0105190445,1.2167535,0.041439224,2.1023674,0.024939422,0.054964487,0.35427743,0.25603756,0.30100498,0.25594282,0.0010219329,0.014190292,-0.018328693,0.00889175,119.56491,113.65321,120.56002,114.974846,0,0,0,0,0,0,0,0,0,0,0,0,1.3641237,1.7356688,1.0158852,1.2450991,1.3641241,1.7357268,1.0160506,1.2451308,0.010791551,-0.0012591779,0.0068946704,0.0015371181,164,6,231,2,0,398.39844,268.55783,2824.0427,38.11902,-33003.766,-61.995567,171.42722,190.70935,217.8652,217.8652,0,1,396.30997,0,0,13.520807,13.520817,0,3,0,0,0,0,1,127,227,0
True,24180421,15999.99,0,5019.904,17.810394,-0.06471515,-0.45347118,-5.6504307,0.10554296,37.235577,0.007347189,1.1847678,0.0126220845,2.2387896,0.018209705,0.05973317,0.49256977,0.33160058,0.31955144,0.1899032,0.0005040264,0.2135032,-0.092420265,0.3385155,116.33744,112.64747,117.445694,115.97616,0,0,0,0,0,0,0,0,0.120000005,0.120000005,0,0,1.7309502,2.627759,1.7163894,2.0679507,1.7309502,2.636418,1.7188759,2.0954742,0.027755372,0.008009862,0.009099707,-0.006314505,164,6,231,2,0,402.20114,268.44556,2822.022,37.662003,41065.46,78.180786,173.97836,190.98587,215.86906,215.86906,0,1,399.56207,0,0,13.634496,13.634505,0,3,31,0,0,0,1,3,232,0
True,24180531,15999.99,0,5249.317,16.015148,-1.0821573,2.9297295,-8.509572,0.1809507,36.534836,0.0594349,1.117037,-0.002800107,2.366033,0.016470404,0.060022734,0.29755154,0.17609343,0.41264293,0.2784305,0.32203168,0.945091,0.4912596,1.3181522,119.47281,119.67925,120.801605,123.44877,0,0,0,0,0,0,0,0,0,0,0,0,1.8048987,2.1252172,2.6579585,3.048825,1.8334023,2.325886,2.702976,3.3215747,0.0038331933,-0.011065636,0.020167597,0.004210733,164,6,231,2,0,405.79065,268.34653,2819.8503,37.51319,158589.52,288.628,175.21857,190.73047,215.92715,215.92715,0,1,402.7387,0,0,13.746273,13.746283,0,3,153,0,0,0,1,0,232,0
True,24180640,15999.99,0,5182.5303,14.360113,-1.5418326,3.5448513,-11.348846,0.22201079,35.62177,0.08212114,1.0674989,-0.0015131906,2.4886343,0.016211748,0.060326982,0.25251776,0.11824779,0.3111748,0.12475123,0.4836758,1.2074958,0.6440673,1.3440591,118.18552,119.097115,120.082954,120.425316,0,0,0,0,0,0,0,0,0,0,0,0,2.6295109,3.0458748,3.3326805,3.7868295,2.673625,3.2764919,3.3943455,4.0182796,-0.0016909391,-0.018161353,0.008103792,-0.014060592,164,6,231,2,0,409.2549,268.23602,2817.54,37.386578,131231.14,241.75336,178.99245,193.4805,221.78227,221.78227,0,1,405.8916,0,0,13.857474,13.857485,0,3,179,0,0,0,1,0,230,0
True,24180750,15999.99,0,5132.095,11.398406,-3.0801284,2.983151,-14.465986,0.26626655,34.213448,0.07869127,1.056848,-0.006407108,2.620091,0.021381069,0.060627185,0.27124548,0.09431659,0.21730526,0.06729351,0.5708141,1.7575678,1.1460121,1.7777891,114.913864,118.868416,119.464066,119.34782,0,0,0,0,0,0,0,0,0,0,0,0,3.2939875,4.235703,4.6381426,4.9121,3.3430798,4.585872,4.777626,5.2239122,0.0006063208,-0.021096908,-0.0030566044,-0.02089189,164,6,231,2,0,413.03613,268.0885,2814.78,37.146946,124260.24,231.27525,186.73169,199.349,229.18512,229.18512,0,1,409.60632,0,0,13.983152,13.983165,0,3,233,0,0,0,1,0,229,0
True,24180859,15999.99,0,4979.1836,15.920719,0.7280708,4.7884207,-16.713053,0.2407496,32.770725,-0.019601054,1.1200054,-0.038450472,2.735737,0.012699742,0.06041604,0.33272043,0.16128446,0.31959224,0.16952175,0.7012722,1.7091787,0.9728722,1.8453629,113.283394,115.432045,115.056595,115.612946,0,0,0,0,0,0,0,0,0,0,0,0,3.6801956,4.476372,4.4419055,5.412571,3.7464147,4.7915754,4.5471973,5.718504,0.008147232,-0.012882201,0.009104557,-0.008737709,164,6,231,2,0,416.03146,267.94925,2812.4114,36.787285,162888.95,312.2124,195.20752,204.50436,234.96115,234.96115,-5.879999,1,412.4891,0,0,14.086454,14.086467,0,3,234,0,0,0,1,-27,232,0
True,24180984,15999.99,0,4958.309,14.917237,0.7363411,6.6283026,-19.062176,0.27600768,31.047356,0.014280308,1.0614554,-0.06793566,2.8678741,0.0047701565,0.057971813,0.31649762,0.1506744,0.32133147,0.17248079,0.09257745,0.6578709,1.5541958,2.4438252,113.83788,113.6903,114.82513,115.00091,0,0,0,0,0,0,0,0,0,0,0,0,-0.24658298,1.2564495,5.2555027,6.0557957,0.26338896,1.4182593,5.4804955,6.5303097,0.006157238,-0.014183696,0.009311341,-0.0083859,164,6,231,2,0,419.30762,267.82202,2809.525,36.43324,208463.25,401.22165,198.95,207.74457,242.64185,242.64185,-5.879999,1,415.8007,0,0,14.20594,14.205954,0,3,230,0,0,0,1,-127,237,0
True,24181078,15999.99,0,4944.3853,8.035448,0.49783736,4.188609,-21.014908,0.21643628,29.651121,0.012820721,0.85111564,-0.033430513,2.9497864,0.0013807373,0.05161519,0.33025923,0.17002915,0.29792064,0.15631494,0.54428303,0.21358787,2.0836382,3.1242888,115.94228,110.815094,114.22268,115.029274,0,0,0,0,0,0,0,0,0,0,0,0,-1.8775154,0.5455478,5.866213,6.9213767,1.9548167,0.5858687,6.225271,7.5938554,0.007845327,-0.011809522,0.0065279715,-0.010307901,164,6,231,2,0,421.58685,267.742,2807.3813,36.343666,243755.39,470.7961,198.57458,205.24469,247.36398,247.36398,-5.879999,1,418.17728,0,0,14.291948,14.291962,0,3,230,0,0,0,1,-127,243,0
True,24181187,15999.99,0,5124.5425,3.8445923,-1.7987214,2.6589518,-22.773088,0.009058446,28.259663,-0.06674053,0.591437,-0.03856112,3.0259013,-0.00014798714,0.048209894,0.34946796,0.2745822,0.28595868,0.1989696,0.31416962,0.57777715,4.3286695,4.2726126,114.97396,114.799965,120.44412,119.99812,0,0,0,0,0,0,0,0,0,0,0.120000005,0,-1.0311235,1.2679054,7.9933376,7.44677,1.0779232,1.393345,9.09015,8.58543,0.010201592,0.0010156259,0.0051057786,-0.0052365772,164,6,231,2,0,424.3389,267.6402,2804.696,36.293556,274400.72,511.88608,198.25919,202.26208,252.68889,252.68889,-5.879999,1,421.1075,0,0,14.397943,14.397956,0,3,230,0,0,0,1,-127,0,0
True,24181312,15999.99,0,4915.4214,7.904591,2.5883265,4.799442,-23.18171,0.0080500245,27.682898,-0.046292968,0.28349867,-0.025867699,3.0807693,-0.011714496,0.04175676,0.37365407,0.3077319,0.40927035,0.34492508,0.17356068,0.41643956,3.050403,3.4841447,113.30783,113.689835,113.467384,113.59329,0,0,0,0,0,0,0,0,0,0,0,0,-0.7103865,1.5004317,6.617499,7.0260887,0.7312813,1.5571502,7.2867174,7.842524,0.013168413,0.0050819777,0.019766625,0.012116451,164,6,231,2,0,427.5625,267.53073,2801.396,36.107265,303270.5,589.15466,195.61385,200.83911,260.1469,260.1469,-5.879999,1,424.4976,0,0,14.525351,14.525364,0,3,230,0,0,0,1,-127,22,0
True,24181406,15999.99,0,4942.441,7.013674,3.0931356,3.7490609,-22.89591,0.050501704,27.684824,-0.092475295,0.024816306,-0.027422868,3.0965247,-0.019515235,0.037450816,0.4050184,0.3314207,0.38135839,0.338023,0.18906519,0.4466859,3.1973865,3.4335272,113.23301,114.731445,113.84664,114.61411,0,0,0,0,0,0,0,0,0,0,0,0,-0.6601106,1.4835154,6.4881325,6.7521296,0.6866525,1.549305,7.233197,7.5749826,0.017015763,0.007987797,0.0164481,0.011295844,164,6,231,2,0,430.1594,267.4831,2798.5876,35.92596,323254.75,624.3525,193.4638,200.16437,265.66272,265.66272,-5.879999,1,427.3267,0,0,14.631579,14.631594,0,3,230,0,0,0,1,-127,43,0
True,24181531,15999.99,0,4998.103,11.954608,2.3763733,6.855401,-21.27348,0.071097255,28.66695,-0.066944174,-0.14472893,0.017924728,3.0853047,-0.029616602,0.03864941,0.38341397,0.30387753,0.3769276,0.30851942,0.58150035,1.4141321,2.7461972,3.2174785,113.67709,118.75746,114.31009,115.69456,0,0,0,0,0,0,0,0,0,0,0,0,2.3716772,3.5123994,5.737965,6.5657825,2.4419246,3.786386,6.3612766,7.311749,0.014365625,0.0046091788,0.015921313,0.007788088,164,6,231,2,0,432.92416,267.4751,2795.4253,35.698177,311218.44,594.8524,191.67061,200.68115,271.48657,271.48657,0,1,430.45135,0,0,14.748852,14.748865,0,3,231,0,0,0,1,0,67,0
True,24181640,15999.99,0,5065.61,14.309873,0.72041446,5.895796,-18.978737,0.058419466,29.801207,-0.019023009,-0.16617039,-0.016733587,3.0659127,-0.032715864,0.040396784,0.5230306,0.3420533,0.39357796,0.3213093,2.0686753,3.5854595,2.9226365,2.9047468,110.46627,121.35527,117.504234,117.63638,0,0,0,0,0,0,0,0,0.120000005,0.120000005,0,0,5.714816,6.360648,5.654024,5.827067,6.0777087,7.3016,6.3647304,6.510934,0.03149189,0.009292062,0.017900914,0.009308703,164,6,231,2,0,435.4828,267.4989,2792.174,35.331398,295590.8,557.5362,199.29877,206.42783,277.00885,277.00885,0,1,433.55533,0,0,14.8653755,14.865389,0,3,231,0,0,0,1,0,85,0
True,24181734,15999.99,0,5133.341,12.655095,-0.98848444,4.7743998,-17.158129,-0.07319343,30.61905,0.009928852,-0.19766054,0.029807605,3.0487316,-0.033389267,0.040372536,0.23094082,0.24006964,0.5588566,0.47578222,1.8481083,1.8638875,2.95465,2.5561104,118.556625,118.8644,118.56215,118.37043,0,0,0,0,0,0,0,0,0,0,0.120000005,0.120000005,3.8905194,4.1170397,5.2583804,5.5403943,4.3071623,4.5193024,6.0316267,6.101612,-0.0043377057,-0.0032179058,0.03755132,0.027674392,164,6,231,2,0,437.53503,267.53238,2789.298,35.098904,268715.53,500.77338,204.11139,209.4653,279.9265,279.9265,0,1,436.13007,0,0,14.96578,14.965795,0,3,231,0,0,0,1,-33,95,0
True,24181859,15999.99,0,5146.126,11.050246,-2.177556,4.3203907,-15.049748,-0.029465973,31.59123,0.077931054,-0.23901436,-0.008177004,3.0215042,-0.023653759,0.043861963,0.20116714,0.09866721,0.2924854,0.20789845,2.048162,2.629015,2.4170032,2.2946873,115.79724,120.75405,119.533966,118.7789,0,0,0,0,0,0,0,0,0,0,0,0,4.672375,4.970406,4.2925744,4.7228937,5.101574,5.622869,4.926266,5.2508397,-0.007989936,-0.020563232,0.0058817565,-0.0041750036,164,6,231,2,0,439.7852,267.5496,2785.891,34.99288,224393.33,416.06454,210.82625,213.99338,282.96655,282.96655,0,1,439.20883,0,0,15.0822935,15.08231,0,3,230,0,0,0,1,0,104,0
True,24181953,15999.99,0,4995.864,12.181785,-1.6398292,4.5075784,-13.41164,0.00797832,32.240337,0.03686976,-0.2114883,0.0036412561,3.0026069,-0.017909514,0.044686265,0.24889883,0.11782794,0.26188254,0.19563746,1.026739,1.9053138,1.7306186,1.7539785,111.02122,118.297165,116.21985,115.310715,0,0,0,0,0,0,0,0,0,0,0,0,3.5487893,4.0784955,3.864367,4.171307,3.6943333,4.5015936,4.234191,4.5250683,-0.0021348596,-0.018212855,0.0022433065,-0.0056327432,164,6,231,2,0,441.2952,267.5507,2783.4187,34.91864,150508.56,287.30377,216.03374,217.58089,285.22217,285.22217,0,1,441.3987,0,0,15.16517,15.165186,0,3,173,0,0,0,1,-8,109,0
True,24182062,15999.99,0,4734.9565,13.956818,-0.9323356,4.157653,-11.199892,0.025691211,32.958755,0.007879827,-0.22036481,0.002340299,2.9811995,-0.0143765155,0.046362452,0.27040735,0.16029736,0.26745504,0.20262504,0.054137096,0.11625702,0.82562375,0.7513795,108.23596,109.60619,109.65457,109.51404,0,0,0,0,0,0,0,0,0,0,0,0,-0.27360478,0.35045758,3.1936529,3.3470936,0.2789093,0.36923733,3.2986474,3.4303946,0.00050351024,-0.013003284,0.0029058345,-0.0048019737,164,6,231,2,0,443.11264,267.5493,2780.16,34.809734,94430.664,190.28073,219.05402,219.29022,288.5516,288.5516,0,1,444.22253,0,0,15.272249,15.272266,0,3,46,0,0,0,1,-127,111,0
True,24182187,15999.99,0,4485.537,1.6814847,0.1906868,-2.7919416,-9.46763,-0.003887117,33.049366,0.0073342533,-0.5426019,-0.043293647,2.930296,-0.011510302,0.04056148,0.2842283,0.20111068,0.25315708,0.22315909,-0.010000343,-0.010690446,-0.0021287026,-0.07101975,104.74316,108.19872,101.05167,103.01612,0,0,0,0,0,0,0,0,0,0,0,0,-1.4657524,-0.6333551,2.7353542,2.5827281,1.4657865,0.6334453,2.7353551,2.5837045,0.0021988787,-0.007996861,0.0012059137,-0.002360627,164,6,231,2,0,445.2623,267.54565,2776.1084,34.378723,-25717.908,-54.726376,215.89288,214.65482,290.23187,290.23187,0,1,447.69373,0,0,15.404676,15.404694,0,3,0,2,0,0,1,-127,110,255
True,24182296,15999.99,0,3935.5923,-0.8689966,0.40820593,-12.452681,-7.271394,0.07507974,32.18146,0.01957116,-0.79319024,-0.046903953,2.8610535,-0.006679939,0.037236545,0.30089036,0.24533938,0.22797923,0.20480661,-0.87383807,-0.21215817,-1.2643775,-1.3629378,87.82107,102.25063,87.39233,89.90508,0,0,0,0,0,0,0,0,0,0,0,0,-1.9534534,-1.0577775,2.0627844,1.986025,2.1399937,1.078844,2.4194484,2.4087121,0.0042427517,-0.002571486,-0.001787547,-0.0045426004,164,6,231,2,0,446.91885,267.54636,2773.0417,32.992805,-19798.781,-48.017338,215.82413,211.60455,289.2996,289.2996,0,1,450.56085,0,0,15.508081,15.5081,0,3,0,212,0,0,1,-127,108,150
True,24182421,15999.99,0,4258.9897,-1.1844267,0.13217598,-8.256139,-3.7248564,0.11789864,31.652842,-0.0023864433,-1.0848957,0.009736747,2.7479599,-0.0015326947,0.0369665,0.28728527,0.28093916,0.19036572,0.19137658,-0.0071548806,-0.0066448296,-0.010525664,-0.052861705,96.66476,101.935814,95.410034,100.29078,0,0,0,0,0,0,0,0,0,0,0,0,-0.62010825,-0.42005298,0.7925281,0.7809302,0.62014955,0.42010552,0.792598,0.78271735,0.0025738664,0.0017954111,-0.006259516,-0.0061393306,164,6,231,2,0,448.80478,267.54993,2769.6533,31.871471,-23159.719,-51.933254,216.4418,209.32562,284.2238,284.2238,0,1,453.49628,0,0,15.628265,15.628284,0,3,0,0,0,0,1,0,107,0
True,24182515,15999.99,0,4252.15,2.6113071,-0.85318244,-2.4752128,0.29941463,0.05850655,31.715584,0.021804437,-0.9894119,-0.017252838,2.6364598,0.0038993978,0.040138956,0.2411913,0.22483647,0.21295983,0.17175558,-0.0073209265,-0.0057169916,-0.005720125,-0.017697103,95.821075,100.65244,95.84176,100.52263,0,0,0,0,0,0,0,0,0,0,0,0,0.36706805,0.35054907,-0.5032353,-0.45497063,0.36714104,0.35059568,0.50326777,0.4553147,-0.003080316,-0.005086504,-0.0035732426,-0.008472122,164,6,231,2,0,450.36578,267.54977,2766.7927,31.71705,-23095.162,-51.86082,213.38113,206.37589,277.62656,277.62656,0,1,455.96173,0,0,15.730815,15.730833,0,3,0,0,0,0,1,0,106,0
True,24182640,15999.99,0,4219.5234,-15.293312,1.0503548,-1.0358162,1.8058681,0.050629288,31.436432,-0.14214137,-0.9139632,-0.11585967,2.5301235,0.0036860148,0.030399412,0.29069096,0.38378936,0.16588743,0.18174255,-0.0026478309,-0.004313014,0.004583903,-0.017992832,95.137,99.55713,95.39733,99.6074,0,0,0,0,0,0,0,0,0,0,0,0,-0.6834803,-0.5503161,-1.0335515,-0.8272524,0.68348545,0.55033296,1.0335616,0.827448,0.002991628,0.014411673,-0.009169802,-0.0072847456,164,6,231,2,0,452.2347,267.54083,2763.5178,31.488298,-22746.719,-51.468117,209.9408,203.1661,270.55695,270.55695,0,1,458.81763,0,0,15.850077,15.850095,0,3,0,0,0,0,1,-127,105,0
True,24182750,15999.99,0,4265.913,-26.64441,4.5279717,0.39389133,1.8642912,0.016975284,31.161526,-0.15247242,-0.8741872,-0.022291776,2.433208,-0.012963867,0.022520032,0.35697865,0.5217434,0.26070932,0.41780257,0.35808468,0.03867828,0.3827059,0.030842591,97.43342,99.171326,98.05851,99.21442,0,0,0,0,0,0,0,0,0,0,0,0,-0.5662734,-0.44551802,-0.963858,-0.7633396,0.6699927,0.4471938,1.0370564,0.76396245,0.011122901,0.031333998,0.0021038167,0.02078104,164,6,231,2,0,454.0519,267.5645,2760.8752,31.217249,160073.62,358.37518,207.3974,200.9747,265.03656,265.03656,0,1,461.24847,0,0,15.95254,15.952559,0,3,98,0,0,0,1,0,107,0
True,24182859,15999.99,0,4495.2656,-19.901903,1.3124987,7.2437377,2.147088,0.030322671,31.78152,0.00048879907,-0.5904552,0.00030199904,2.3461936,-0.016270362,0.024350034,0.28232986,0.42892608,0.29636332,0.4408005,0.8276559,0.21859309,0.863619,0.3852212,104.046364,101.986725,104.58072,103.91597,0,0,0,0,0,0,0,0,0,0,0,0,-0.65501285,-0.56958795,-0.9756236,-0.8271695,1.0554886,0.61009294,1.3029503,0.9124718,0.0019660033,0.01994843,0.006342817,0.023515321,164,6,231,2,0,456.47006,267.63556,2757.9602,31.85398,393903.72,837.312,204.47505,198.2027,259.3636,259.3636,0,1,464.099,0,0,16.072855,16.072874,0,3,227,0,0,0,1,-127,110,0
True,24182968,15999.99,0,4575.7466,-17.698992,-0.26665965,7.2157288,2.1805906,-0.023240387,32.3697,-0.008693106,-0.52447534,-0.016916247,2.2898345,-0.014740576,0.023965301,0.19740912,0.35750556,0.2605022,0.3896209,1.1023123,0.27394372,0.76807606,0.35797104,107.68143,103.806366,105.94539,105.328995,0,0,0,0,0,0,0,0,0,0,0,0,-1.3495662,-1.1285937,-0.9402829,-0.8095922,1.742533,1.161365,1.214114,0.8852021,-0.008450918,0.011187535,0.0020791925,0.01743045,164,6,231,2,0,458.74612,267.69196,2755.549,32.443073,342369.28,714.6515,203.01225,196.2669,255.07022,255.07022,0,1,467.72208,0,0,16.175959,16.175978,0,3,226,0,0,0,1,-127,111,0
True,24183078,15999.99,0,4660.6777,-18.55566,0.25107968,8.426476,1.929203,-0.09406781,33.07508,-0.041317325,-0.431166,-0.003439379,2.2368507,-0.016947413,0.023238989,0.2067327,0.3733412,0.21669422,0.36351433,0.92327344,0.16888961,0.7214874,0.34067768,109.62283,105.33652,108.14646,107.29492,0,0,0,0,0,0,0,0,0,0,0,0,-0.46651766,-0.3925161,-0.79384804,-0.6737341,1.0344431,0.42730853,1.0727249,0.7549695,-0.0073072277,0.013130035,-0.0031292513,0.014326576,164,6,231,2,0,461.23514,267.74463,2753.2097,33.13143,449680.38,921.8713,201.83318,194.6826,250.7779,250.7779,0,1,470.3103,0,0,16.28023,16.28025,0,3,227,0,0,0,1,0,111,0
True,24183187,15999.99,0,4757.9443,-17.255718,-0.04728952,9.7174,1.0956287,-0.14208746,34.026806,-0.002809925,-0.16887772,0.027587384,2.2051136,-0.017497296,0.024851417,0.18285461,0.32994574,0.25111017,0.4067027,0.7215525,0.1877064,0.5792961,0.32353017,111.4309,107.821846,110.61456,109.42723,0,0,0,0,0,0,0,0,0,0,0,0,-0.29003957,-0.2567791,-0.41837937,-0.3596936,0.77766377,0.31807107,0.7145805,0.48378843,-0.010236267,0.007806871,0.00096254796,0.019461352,164,6,231,2,0,463.99493,267.79828,2750.917,34.044735,537684.3,1079.72,199.78499,192.67393,246.32846,246.32846,0,1,473.03952,0,0,16.38712,16.387142,0,3,234,0,0,0,1,0,111,0
True,24183296,15999.99,0,4916.7544,-11.855518,0.6963834,12.564672,0.25512505,-0.24061239,35.44232,-0.08117597,-0.13535224,0.013978714,2.1933784,-0.022023942,0.028729193,0.18101586,0.27665433,0.2574218,0.37400648,0.376806,0.2551744,0.4291688,0.28205714,113.33887,112.88107,114.08227,113.49391,0,0,0,0,0,0,0,0,0,0,0,0,-0.36401248,-0.3432427,-0.12426235,-0.10823258,0.5239159,0.4277026,0.44679636,0.3021101,-0.010461818,0.0012698062,0.0017129555,0.015574012,164,6,231,2,0,467.04465,267.85236,2748.616,35.444054,718675,1397.007,197.67758,190.70636,241.92654,241.92654,0,1,475.94693,0,0,16.49713,16.49715,0,3,255,0,0,0,1,-127,108,0
True,24183406,15999.99,0,5119.444,-11.05712,1.8112049,12.5732765,0.106458664,-0.3079325,36.852753,-0.029442718,-0.3732666,-0.061824888,2.1632056,-0.029552316,0.026255438,0.23161872,0.26082137,0.30336607,0.4050195,0.6602382,0.34029898,0.392703,0.20874067,119.82599,118.611565,117.658066,117.73577,0,0,0,0,0,0,0,0,0,0,0,0,-0.71905535,-0.6426798,-0.14828166,-0.12521882,0.9761942,0.72721434,0.41976553,0.2434182,-0.0042545497,-0.00067236647,0.007175386,0.019261226,164,6,231,2,0,470.36526,267.92783,2746.2837,36.85419,654306.3,1221.5518,195.746,188.9443,237.69435,237.69435,0,1,479.03207,0,0,16.609285,16.609306,0,3,255,0,0,0,1,-127,99,0
True,24183531,15999.99,0,5297.184,-8.965925,0.21934652,11.926642,0.5854111,-0.27292514,38.10789,-0.0010875601,-0.27031386,-0.023380253,2.1227639,-0.028148973,0.021798244,0.18009003,0.24956663,0.30294117,0.36970347,0.55441433,0.20041923,0.4582553,0.3015275,123.08494,121.0685,122.58301,122.36914,0,0,0,0,0,0,0,0,0,0,0,0,-0.059786644,-0.05211754,-0.24581426,-0.22497039,0.55762863,0.20708479,0.5200217,0.3762054,-0.0105753895,-0.0020529442,0.0071248747,0.015062418,164,6,231,2,0,473.82983,268.01773,2744.0144,38.113365,678190.5,1223.3257,193.99121,187.28735,233.82498,233.82498,0,1,483.06284,0,0,16.719797,16.719818,0,3,255,0,0,0,1,0,85,0
True,24183625,15999.99,0,5463.216,-8.682685,0.6058755,12.63952,0.31806374,-0.30196637,39.48617,-0.031953305,-0.14931074,-0.02815988,2.104206,-0.030244326,0.020427965,0.24793984,0.28980252,0.3308488,0.39732486,0.38844296,0.2690604,0.37095475,0.25331077,126.30422,125.84258,126.42527,126.02022,0,0,0,0,0,0,0,0,0,0,0,0,-0.315575,-0.29825583,-0.12911445,-0.11041059,0.5004753,0.40168402,0.39278233,0.27632743,-0.0022524968,0.0028826483,0.0104428865,0.018346392,164,6,231,2,0,477.4773,268.11118,2741.7578,39.488605,740165.25,1294.787,192.23778,185.65288,230.20753,230.20753,0,1,486.22864,0,0,16.830326,16.830347,0,3,255,0,0,0,1,-127,64,0
True,24183734,15999.99,0,5649.0215,-10.1688,0.7364374,11.580615,0.26791573,-0.29500842,40.725853,-0.005465172,-0.3448336,-0.045831528,2.077081,-0.032003652,0.016926603,0.2730439,0.3058664,0.35901588,0.414877,0.6472482,0.25521344,0.39332932,0.22351694,132.34181,129.99869,130.12883,130.02731,0,0,0,0,0,0,0,0,0,0,0,0,-0.6494465,-0.56902564,-0.1720672,-0.1444076,0.91690296,0.62363774,0.42931932,0.26610783,0.00082692876,0.0048531443,0.01379174,0.02043321,164,6,231,2,0,481.26514,268.21664,2739.5518,40.7278,673949.9,1140.105,190.70712,184.26251,226.84193,226.84193,0,1,489.48328,0,0,16.939556,16.939575,0,3,255,0,0,0,1,-127,39,0
True,24183843,15999.99,0,5827.4365,-10.082892,-1.5374092,9.414696,0.77039146,-0.24145943,41.678364,0.092354745,-0.37470078,-0.053056754,2.0373619,-0.025828538,0.01348107,0.23374493,0.24791901,0.35961166,0.3959415,0.7483417,0.3521717,0.56414604,0.30592123,136.12857,133.85915,134.73549,133.98245,0,0,0,0,0,0,0,0,0,0,0,0,-0.7999782,-0.721485,-0.31703332,-0.2762508,1.0954362,0.8028484,0.64712507,0.41219205,-0.0039937347,-0.0022550523,0.013862573,0.01818192,164,6,231,2,0,485.19775,268.321,2737.4119,41.686184,553518.1,907.5721,189.40393,183.04813,223.73227,223.73227,0,1,492.82602,0,0,17.048151,17.048172,0,3,255,0,0,0,1,-127,14,0
True,24183953,15999.99,0,5920.417,-11.765775,-0.8477535,10.539013,1.0915585,-0.2520057,42.741825,-0.035234965,-0.2479747,-0.067627855,1.9986486,-0.023078617,0.007324232,0.26225442,0.28743783,0.3110308,0.3629952,0.4217443,0.17965722,0.45682165,0.2503561,136.90071,135.46092,137.41037,136.6411,0,0,0,0,0,0,0,0,0,0,0,0,-0.18937233,-0.16852069,-0.33707806,-0.28898397,0.46230957,0.24632487,0.5677214,0.38234788,-0.0004965775,0.0025925785,0.00808667,0.0142648555,164,6,231,2,0,489.30072,268.40298,2735.3296,42.7565,722581.44,1165.7946,188.09161,181.84074,220.87445,220.87445,0,1,496.2771,0,0,17.157207,17.157227,0,3,255,0,0,0,1,0,247,0
True,24184062,15999.99,0,6091.9243,-10.062765,-0.8678609,10.629512,0.5224762,-0.2787798,43.896904,0.06019964,-0.045698714,-0.023702282,1.9853699,-0.022347918,0.0026771037,0.2489902,0.2853413,0.31461826,0.3552097,0.60585576,0.3181551,0.35697883,0.28494504,143.00833,140.0215,140.46806,140.01976,0,0,0,0,0,0,0,0,0,0,0,0,-0.30807832,-0.28860244,-0.13658646,-0.124796614,0.6796863,0.42955098,0.38221687,0.31107536,-0.002123654,0.002335403,0.008513194,0.013339214,164,6,231,2,0,493.581,268.48578,2733.3274,43.900898,676298.6,1061.0197,186.79945,180.62427,218.15744,218.15744,0,1,499.7619,0,0,17.266224,17.266247,0,3,255,0,0,0,1,-127,227,0
True,24184203,15999.99,0,6234.421,-9.036047,-1.8573208,9.702754,0.20300102,-0.25627768,45.109516,-0.04329767,-0.252756,-0.091919914,1.9697304,-0.0151554085,-0.0030123126,0.21734081,0.21253052,0.27136073,0.31391603,0.3682777,0.18445027,0.42257613,0.26187032,143.77884,142.864,144.59937,144.07588,0,0,0,0,0,0,0,0,0,0,0,0,-0.54691374,-0.47860137,-0.11264118,-0.101282366,0.6593505,0.51291436,0.43733126,0.28077427,-0.006005969,-0.006596029,0.003370192,0.008429702,164,6,231,2,0,498.78418,268.55222,2731.0251,45.1107,717872.9,1099.5002,185.49503,179.42108,215.1478,215.1478,0,1,504.00092,0,0,17.394072,17.394093,0,3,255,0,0,0,1,-103,201,0
True,24184296,15999.99,0,6388.7603,-8.233944,0.5760992,10.476483,0.48374653,-0.31521544,46.26127,0.044774894,-0.13071927,-0.026753798,1.9432933,-0.01969179,-0.008344537,0.20589025,0.23055352,0.32012826,0.3534237,0.4783543,0.2716618,0.30955055,0.2256325,149.04497,147.2643,147.36946,147.06209,0,0,0,0,0,0,0,0,0,0,0,0,-0.07209136,-0.06552719,-0.14083993,-0.12710118,0.48375615,0.27945292,0.34008446,0.2589686,-0.0074105673,-0.0043852143,0.00916829,0.013126876,164,6,231,2,0,503.39407,268.6112,2729.1213,46.26487,752276.7,1125.5128,184.38268,178.42027,212.77774,212.77774,0,1,507.73233,0,0,17.503185,17.503206,0,3,255,0,0,0,1,0,179,0
True,24184406,15999.99,0,6520.384,-5.0036883,-2.0578663,10.250709,0.37168503,-0.29753524,47.178894,0.040210936,-0.0337434,-0.03985209,1.9371128,-0.014059612,-0.011043209,0.23002382,0.19916847,0.3059672,0.29227686,0.29834783,0.23111217,0.36747867,0.33548495,150.00552,149.38264,151.14893,150.98506,0,0,0,0,0,0,0,0,0,0,0,0,-0.0728363,-0.0680986,-0.08956255,-0.0863767,0.30711,0.2409362,0.3782354,0.34642616,-0.004450191,-0.008235104,0.0074846447,0.0058569647,164,6,231,2,0,507.33325,268.65448,2727.5571,47.1813,747379.9,1095.0059,183.48581,177.5907,210.90787,210.90787,0,1,510.9095,0,0,17.593885,17.593906,0,3,255,0,0,0,1,0,164,0
True,24184515,15999.99,0,6611.6924,-4.840901,-0.73587036,11.28678,0.11630058,-0.31495517,48.16985,-0.0015618168,-0.07164024,-0.06499098,1.934137,-0.0131931165,-0.014766244,0.26476774,0.21775131,0.32451436,0.30672547,0.21382025,0.20001978,0.2778311,0.21746884,152.1141,152.28825,153.12256,152.798,0,0,0,0,0,0,0,0,0,0,0,0,-0.2381437,-0.23189525,-0.040982228,-0.035694156,0.32004926,0.30624062,0.28083745,0.2203787,-0.0001882799,-0.005955614,0.009689767,0.0075748004,164,6,231,2,0,511.52203,268.68478,2725.9321,48.171017,752524.3,1087.2947,182.59402,176.78131,209.06772,209.06772,0,1,514.4513,0,0,17.68809,17.68811,0,3,255,0,0,0,1,-127,151,0
True,24184640,15999.99,0,6814.5747,-8.433388,-0.948394,9.935991,0.39786053,-0.30558595,49.32025,0.026167141,-0.34004712,-0.15161197,1.9086347,-0.011967972,-0.027020296,0.2787724,0.17735597,0.36102986,0.3230825,0.4021051,0.26525408,0.40442884,0.22118309,157.31192,157.23924,157.70201,157.16876,0,0,0,0,0,0,0,0,0,0,0,0,-0.62866306,-0.57780814,-0.16708557,-0.14329523,0.7462612,0.63578457,0.4375846,0.26354408,0.0015296228,-0.010910766,0.01403119,0.009519525,164,6,231,2,0,517.12573,268.72247,2723.8452,49.322803,723880.75,1014.6612,181.61337,175.9037,206.82251,206.82251,0,1,518.96844,0,0,17.810703,17.810726,0,3,255,0,0,0,1,-127,139,0
True,24184750,15999.99,0,6893.927,-15.798228,5.332511,10.370272,1.1207533,-0.24170485,50.444626,-0.09697445,-0.3950549,0.199003,1.8545351,-0.023771994,-0.026978426,0.24603085,0.7023156,0.34853262,0.81786263,0.2193881,0.09176328,0.23483448,0.11961428,158.63686,158.93578,159.26149,159.62263,0,0,0,0,0,0,0,0,0,0,0,0,-0.13333596,-0.11055932,-0.3122316,-0.17878756,0.25672868,0.14367972,0.39068633,0.2151106,-0.0024866648,0.053484134,0.012545355,0.06834522,164,6,231,2,0,522.93726,268.78336,2721.8804,50.457653,752487.94,1042.666,180.76138,175.26047,204.83124,204.83124,-2.066287,1,523.6097,0,0,17.933699,17.933722,0,3,255,0,0,0,1,0,133,0
True,24184859,15999.99,0,7086.819,-13.413998,1.8959421,9.492334,1.1062746,-0.20437205,51.28131,0.053167373,-0.16261412,0.05521362,1.8278153,-0.0269704,-0.0099907005,0.2778684,0.2062451,0.34679595,0.64560467,0.16467805,0.5108642,0.42513916,0.19613922,161.04836,166.18944,164.55954,162.8254,0,0,0,0,0,0,0,0,0,0,0,0,-0.2279902,-0.2516587,-0.28101093,-0.17791972,0.28124437,0.569486,0.5096179,0.26481318,0.0014187321,-0.007367041,0.01233888,0.047865026,164,6,231,2,0,527.7158,268.89325,2720.4512,51.293644,722720.44,973.9378,180.01395,174.60245,203.34598,203.34598,0,1,527.3858,0,0,18.031727,18.031752,0,3,255,0,0,0,1,-13,136,0
True,24184968,15999.99,0,7234.7876,-12.355179,-0.8131458,8.607432,1.0430183,-0.23280488,52.276283,0.01393518,-0.2568071,-0.044360295,1.8021367,-0.025346963,-0.011555606,0.2560838,0.20967871,0.3056646,0.20767109,0.6755431,0.22344157,0.35009992,0.21942605,170.42857,165.8517,166.70946,166.3159,0,0,0,0,0,0,0,0,0,0,0,0,-0.6859944,-0.59698284,-0.26600513,-0.24055953,0.9627808,0.63742816,0.43969157,0.32560202,-0.001253508,-0.006945852,0.0074486695,-0.0042020343,164,6,231,2,0,533.7035,269.0296,2718.8274,52.287212,687017.4,907.0841,179.26147,173.96404,201.61719,201.61719,0,1,532.3442,0,0,18.151487,18.151512,0,3,255,0,0,0,1,-100,148,0
True,24185078,15999.99,0,7287.625,-10.973532,-0.73727936,9.625022,0.87348175,-0.29323095,53.161007,-0.02694493,-0.08747039,-0.012994483,1.7842098,-0.024862746,-0.013210888,0.2362033,0.29767573,0.31995305,0.30003396,0.25134054,0.13096167,0.26790643,0.19874388,168.3386,167.1779,168.80179,168.39705,0,0,0,0,0,0,0,0,0,0,0,0,-0.15201107,-0.13541108,-0.18729436,-0.17042376,0.2937336,0.18838026,0.32688382,0.26180792,-0.0036921762,0.003848426,0.0091474615,0.0067792237,164,6,231,2,0,538.8278,269.13187,2717.5728,53.168995,752295.94,985.84375,178.65881,173.4195,200.26611,200.26611,0,1,536.3021,0,0,18.251564,18.251587,0,3,255,0,0,0,1,0,166,0
True,24185203,15999.99,0,7442.4326,-4.6424456,-1.4139233,8.921038,0.1988535,-0.29129463,54.18921,0.04548467,0.028753946,0.05714716,1.7836756,-0.023050899,-0.010006057,0.23748852,0.33383363,0.2980396,0.36202174,0.26966777,0.19331183,0.2588752,0.25757837,172.04987,170.85565,172.16447,172.05576,0,0,0,0,0,0,0,0,0,0,0,0,-0.05320313,-0.047759973,-0.03454516,-0.030440548,0.27486593,0.19912428,0.26116994,0.25937086,-0.003534522,0.0082837865,0.006542109,0.014149118,164,6,231,2,0,545.0613,269.25488,2716.1714,54.190357,752540,965.8306,177.90305,172.74734,198.71762,198.71762,0,1,541.08215,0,0,18.370575,18.3706,0,3,255,0,0,0,1,0,193,0
True,24185296,15999.99,0,6893.8257,-1.3866532,-1.3576928,-13.229799,-0.024251938,-0.07582679,52.809208,0.07881583,0.019566488,0.070006974,1.786282,-0.01594528,-0.0032379674,0.21654926,0.29794478,0.26419374,0.3233257,-0.42240468,-0.42352778,-0.21020754,-0.21006906,156.80988,156.8232,160.56636,160.44121,0,0,0,0,0,0,0,0,0,0,0,0,-0.0041633733,-0.0042211097,0.005107227,0.0064488193,0.42242518,0.42354882,0.21026957,0.21016802,-0.006103065,0.0038814284,0.0025180876,0.009548441,164,6,231,2,0,550.2385,269.3383,2715.0386,52.80926,584860.8,809.51166,177.38745,172.2879,197.44847,197.44847,-1.391489,1,545.03864,0,0,18.469172,18.469198,0,3,93,255,0,0,1,0,215,129
True,24185406,15999.99,0,6249.66,-0.20999956,-1.4194515,-23.277504,-0.0683651,0.29436368,49.956505,0.08293162,0.001832305,0.08409582,1.787489,-0.0071222773,0.006484388,0.27897942,0.3855241,0.19652404,0.29795945,-0.9978095,-0.8603969,-0.5746795,-0.6321947,139.41026,141.61621,146.2791,146.51822,0,0,0,0,0,0,0,0,0,0,0,0,0.009032545,0.007821553,0.008946954,0.008962209,0.9978504,0.86043245,0.5747491,0.63225824,0.0015550181,0.014624465,-0.005527336,0.0065325834,164,6,231,2,0,556.02313,269.42422,2713.7744,49.957417,185876.52,283.30313,176.97095,171.90088,196.08704,196.08704,-4.436741,1,549.46985,0,0,18.58447,18.584496,0,3,0,255,0,0,1,0,242,129
True,24185515,15999.99,0,6087.295,-2.081863,-2.0650525,-24.434622,-0.14989567,0.35978326,47.54231,0.015563538,-0.09078641,0.05308821,1.7852925,-0.0010066944,0.013669209,0.3108168,0.41533384,0.1527554,0.20433526,-0.27154404,-0.15631324,-0.7983069,-0.55910105,143.6158,145.21658,137.64658,139.37357,0,0,0,0,0,0,0,0,0,0,0,0,-0.2286843,-0.21271843,-3.4344743E-05,0.0050028046,0.3550108,0.2639753,0.7983069,0.5591234,0.0054603927,0.01828112,-0.010731105,-0.00459864,164,6,231,2,0,560.7069,269.4736,2712.7551,47.543903,-47227.336,-74.131386,177.50504,172.06921,195.39874,195.39874,0,1,553.0564,0,0,18.682894,18.682917,0,3,0,255,0,0,1,-127,8,129
True,24185625,15999.99,0,5715.313,-10.146881,0.03489232,-22.376297,0.0434618,0.35728258,44.92632,-0.0070497356,-0.38138086,0.038117867,1.7567604,-0.0015593533,0.01936126,0.33728787,0.47304133,0.1590765,0.26916593,-0.44930223,-0.13087411,-1.0708759,-0.28546578,130.44006,138.2213,125.00251,136.45296,0,0,0,0,0,0,0,0,0,0,0,0,-0.5255022,-0.4604826,-0.12816085,-0.1142286,0.69139355,0.47871938,1.0785177,0.30747175,0.008707505,0.025359891,-0.009979572,0.0031092502,164,6,231,2,0,566.09216,269.5231,2711.6626,44.92776,-42068.797,-70.09589,177.09029,171.77408,194.38322,194.38322,0,1,557.15826,0,0,18.801865,18.801888,0,3,0,255,0,0,1,-127,32,129
True,24185750,15999.99,0,5405.155,-14.371843,-0.0024057925,-20.019186,1.0671105,0.33903843,42.58165,0.0035629263,-0.6178778,0.007974319,1.6978711,-0.0002641422,0.022186901,0.29949248,0.44018707,0.16662267,0.28495145,-0.44576836,-0.6307358,-0.7146419,-0.49652913,125.25031,123.707985,122.94795,127.08979,0,0,0,0,0,0,0,0,0,0,0,0,-0.734629,-0.63409,-0.47197118,-0.4099619,0.8592957,0.8943701,0.85642856,0.6439021,0.0040712804,0.021329775,-0.009082388,0.004986029,164,6,231,2,0,571.078,269.56998,2710.8062,42.596367,-37310.5,-65.91654,176.84853,171.60829,193.8537,193.8537,0,1,561.2167,0,0,18.9176,18.917622,0,3,0,255,0,0,1,-127,48,129
True,24185843,15999.99,0,5086.417,-17.450552,0.33902717,-17.34546,2.2014623,0.3382005,40.783802,-0.030846652,-0.79178065,-0.020082986,1.6305939,0.00068091694,0.021552416,0.33868253,0.4722388,0.14440449,0.28008008,-0.31325606,-0.44641146,-1.6111714,-0.39661792,120.448235,121.68965,107.78406,123.25801,0,0,0,0,0,0,0,0,0,0,0,0,-0.9910091,-0.8367504,-0.87200046,-0.71875566,1.0393404,0.9483851,1.8320093,0.82092357,0.008878581,0.025261447,-0.011723965,0.0044068545,164,6,231,2,0,575.04333,269.60425,2710.2747,40.844574,-33023.082,-62.013702,176.8713,171.61383,194.10196,194.10196,0,1,564.2527,0,0,19.013613,19.013632,0,3,0,177,0,0,1,-127,60,168
True,24185953,15999.99,0,5360.0986,-25.843052,2.1066916,-3.8580227,3.3655453,0.23604108,40.023342,-0.092954285,-0.887709,-0.020180883,1.528403,-0.006708891,0.018312914,0.3637421,0.5434388,0.21694173,0.38988853,-0.015565965,-0.0055598477,-0.00039308253,-0.013979002,121.08795,125.52961,121.98693,126.11015,0,0,0,0,0,0,0,0,0,0,0,0,-1.3359162,-1.0717286,-1.195173,-0.94219506,1.3360069,1.071743,1.195173,0.94229877,0.011952549,0.033995286,-0.0030998252,0.017462272,164,6,231,2,0,579.72833,269.65646,2709.9087,40.165287,-36710.176,-65.38984,177.03508,172.05354,193.93968,193.93968,0,1,567.80804,0,0,19.129873,19.129894,0,3,0,0,0,0,1,-115,76,0
True,24186078,15999.99,0,5302.188,-21.638527,0.318156,-1.2956679,4.364453,0.19655396,39.483837,0.03293801,-0.7061877,-0.0056771035,1.4365889,-0.008025888,0.01821763,0.29018983,0.44436064,0.23692979,0.41057763,0.0008392123,0.0032449276,0.026857777,-0.009952613,120.67385,124.12889,120.98707,123.97006,0,0,0,0,0,0,0,0,0,0,0,0,-0.95759684,-0.817193,-1.4626988,-1.2042868,0.9575972,0.8171994,1.4629453,1.204328,0.002930157,0.021841735,-0.0007233918,0.019922048,164,6,231,2,0,584.3529,269.72852,2709.881,39.72481,-8091.7656,-14.571964,177.24448,172.53154,193.93956,193.93956,-0.3486929,1,571.2772,0,0,19.245735,19.245758,0,3,9,0,0,0,1,0,93,0
True,24186171,15999.99,0,5485.8,-22.099297,-0.18611926,2.1280034,5.1210337,0.16514218,39.29763,-0.024703745,-0.7181987,0.013428408,1.3695325,-0.0055726743,0.019244498,0.26311117,0.45893365,0.23044053,0.38213012,0.628369,0.11830256,0.6494321,0.2678785,126.63223,125.14786,127.19933,127.05173,0,0,0,0,0,0,0,0,0,0,0,0,-1.1790429,-0.9287577,-1.6182489,-1.387165,1.3360351,0.9362619,1.7437005,1.4127935,-0.0003914833,0.023629352,-0.001494918,0.01653985,164,6,231,2,0,588.11395,269.7776,2710.061,39.630238,259973.12,452.64755,177.16068,172.59988,194.7525,194.7525,-0.92305756,1,574.07404,0,0,19.340742,19.340767,0,3,194,0,0,0,1,0,106,0
True,24186296,15999.99,0,5596.1255,-11.900665,1.7433798,-10.383415,6.424797,0.07365639,38.3774,-0.05937303,-0.6561551,0.045882747,1.2863683,-0.011464809,0.023563668,0.28649348,0.49605262,0.24278018,0.43956244,1.3175805,0.51529056,1.1834521,0.6346798,130.85332,126.55823,130.21577,128.84149,0,0,0,0,0,0,0,0,0,0,0,0,-1.5952637,-1.3225622,-1.9458563,-1.5680943,2.0690298,1.4193996,2.2774801,1.6916672,0.0024767406,0.028182603,-2.7824193E-05,0.023368128,164,6,231,2,0,592.66144,269.8429,2710.534,38.911545,312771.97,532.8498,178.00046,173.10565,197.05173,197.05173,-2.1282625,1,578.6022,0,0,19.456299,19.456324,0,3,255,0,0,0,1,0,117,0
True,24186406,15999.99,0,5576.9355,-9.333152,2.4077504,3.3456013,7.298265,0.070578784,38.683582,-0.1425225,-0.42374513,-0.07977545,1.231019,-0.017791526,0.021920813,0.7769796,0.41645998,0.2622636,0.4886897,0.10639481,0.7142245,1.2614186,0.60038966,122.10238,130.32521,131.29141,129.09561,0,0,0,0,0,0,0,0,0,0,0,0,0.09938544,0.4027617,-2.3400657,-1.6914922,0.145593,0.8199595,2.6583989,1.7948854,0.0626429,0.018419258,0.0022886097,0.029208995,164,6,231,2,0,596.5763,269.9232,2711.0933,39.36609,382195.38,654.6557,178.49287,173.31818,200.05588,200.05588,-12.988663,1,581.60803,0,0,19.557373,19.557396,0,3,255,0,0,0,1,127,124,0
True,24186515,15999.99,0,5591.288,-18.24318,0.23042485,5.629761,6.6957345,-0.44714856,39.060383,-0.09636144,-0.21986164,-0.13677931,1.1928315,-0.034868073,0.0046251984,0.49542466,0.22954343,0.14282918,0.47427642,0.5384342,0.8520443,1.027794,0.43657705,126.61665,130.60861,130.70418,128.10953,0,0,0,0,0,0,0,0,0,0,0,0,-1.7217304,-1.8516043,-2.082808,-1.3852841,1.8039587,2.038239,2.3225956,1.4524502,0.028105572,-0.0045091175,-0.011911258,0.027495362,164,6,231,2,0,601.37244,270.0386,2711.9548,39.632637,331832.8,566.7978,179.58904,174.67253,203.0339,203.0339,-14.423756,1,585.3139,0,0,19.680716,19.680742,0,3,255,0,0,0,1,-44,126,0
True,24186625,15999.99,0,5618.3896,-19.07239,-0.5463911,5.1850414,5.244793,-0.621795,39.502995,-0.0012861406,-0.07150707,-0.033567447,1.1791575,-0.03896627,-0.0028410282,0.37032646,0.18275718,0.091621704,0.5333425,0.5597227,0.8698029,0.9148662,0.40735844,127.80521,131.07526,131.37148,128.47586,0,0,0,0,0,0,0,0,0,0,0,0,-1.7999619,-1.9201437,-1.5962597,-1.0931066,1.8849808,2.1079633,1.8398439,1.1665432,0.012760229,-0.010248218,-0.017999448,0.034517877,164,6,231,2,0,605.29175,270.13275,2712.892,39.854504,356475.88,605.9881,182.59311,177.53308,204.22534,204.22534,-14.7,1,588.37274,0,0,19.782167,19.782194,0,3,255,0,0,0,1,-127,126,0
True,24186734,15999.99,0,5662.6504,-18.63252,-0.7748355,5.747144,3.4850845,-0.63346785,40.065014,0.028420398,-0.016357541,-0.007244019,1.1755694,-0.03715833,-0.004014368,0.30334017,0.19300447,0.07156478,0.4857378,0.5360849,0.7495432,0.8369867,0.35362512,129.45193,131.61049,132.59515,129.22215,0,0,0,0,0,0,0,0,0,0,0,0,-1.509297,-1.5555761,-1.04933,-0.7263492,1.6016755,1.7267402,1.3422519,0.8078576,0.0045432597,-0.008991219,-0.020384068,0.028858036,164,6,231,2,0,609.2345,270.22208,2714.0469,40.221294,420128.66,708.6454,185.33081,180.17824,204.11401,204.11401,-14.7,1,592.74695,0,0,19.884846,19.884872,0,3,255,0,0,0,1,-127,123,1
True,24186843,15999.99,0,5683.578,-17.760162,-0.9842243,8.866502,1.8160124,-0.5679192,40.93315,0.05325009,-0.031883005,0.043919086,1.1753764,-0.030248022,0.0042592594,0.110676855,0.27315038,0.10760466,0.4658187,0.47527933,0.3070466,0.47524497,0.26989907,131.79123,130.19814,132.32352,130.48184,0,0,0,0,0,0,0,0,0,0,0,0,-1.1293947,-1.0073494,-0.5080399,-0.39019254,1.2253256,1.0531051,0.695674,0.47444254,-0.019090053,0.00083998963,-0.016099192,0.026489802,164,6,231,2,0,613.2661,270.29788,2715.4258,40.977352,601356.4,1010.75104,185.0796,181.50594,203.10956,203.10956,-14.7,1,595.92413,0,0,19.989944,19.98997,0,3,255,0,0,0,1,-127,115,0
True,24186953,15999.99,0,5842.688,-16.237722,0.92498237,10.347159,0.56087875,-0.31851637,42.131413,0.019708429,-0.2706756,0.035464324,1.1547626,-0.027958488,0.010855247,0.13721757,0.32190603,0.25270367,0.46754658,0.6553892,0.2598732,0.3895845,0.22704147,137.07922,134.23708,134.72247,134.36235,0,0,0,0,0,0,0,0,0,0,0,0,-0.78330725,-0.68096125,-0.22068721,-0.18379335,1.0213252,0.7288637,0.44774875,0.29210928,-0.015834399,0.0068206675,0.001152005,0.026695237,164,6,231,2,0,618.0405,270.39584,2717.331,42.136353,667347.44,1091.1824,184.78564,181.22449,201.76608,201.76608,-14.7,1,599.7892,0,0,20.11369,20.113714,0,3,255,0,0,0,1,-127,100,0
True,24187078,15999.99,0,6018.951,-14.138402,0.5239984,9.233506,0.7737675,-0.2500147,43.364616,-0.026437342,-0.48990634,-0.011163073,1.1037436,-0.02668761,0.014066847,0.21060508,0.32852265,0.25647196,0.39031693,0.5850197,0.22114277,0.478732,0.21662915,139.8743,138.29637,139.1656,138.75674,0,0,0,0,0,0,0,0,0,0,0,0,-0.78694576,-0.6743671,-0.3291099,-0.27701333,0.9805772,0.7097007,0.5809455,0.35165974,-0.006832216,0.0076323077,0.0016000271,0.0175132,164,6,231,2,0,623.2269,270.51282,2719.681,43.372234,668026.7,1060.3613,184.2641,180.76437,200.42273,200.42273,0,1,604.09326,0,0,20.24686,20.246883,0,3,255,0,0,0,1,-127,79,0
True,24187187,15999.99,0,5806.263,-18.161642,0.9018486,4.630694,1.1828499,-0.19016886,43.78311,0.025723243,-0.504659,-0.034724526,1.0481657,-0.027336052,0.012279531,0.21727452,0.34194908,0.28532645,0.41947383,-0.4902121,-0.20035067,0.082491785,-0.037961226,127.98856,133.66885,135.40692,136.30946,0,0,0,0,0,0,0,0,0,0,0,0,-0.93813413,-0.77556604,-0.439649,-0.36527914,1.0584911,0.8010262,0.44732106,0.3672464,-0.006014101,0.009279277,0.0050306134,0.02097974,164,6,231,2,0,627.4393,270.61935,2721.8345,43.799496,680805,1118.4473,183.87569,180.47987,199.43243,199.43243,-2.7238798,1,608.0258,0,0,20.355036,20.355059,0,3,230,152,0,0,1,-127,64,180
True,24187296,15999.99,0,5664.377,-18.960135,-0.24320567,-7.6149254,1.4020119,-0.007935133,42.846405,0.05976601,-0.4675845,-0.014895212,1.00502,-0.021976613,0.011405107,0.24509612,0.35609362,0.23556563,0.37667963,-0.07001048,-0.29097244,-0.09638364,-0.1315419,130.29965,129.40927,130.5533,132.11887,0,0,0,0,0,0,0,0,0,0,0,0,-1.0210767,-0.85929435,-0.5169368,-0.43312004,1.023474,0.907222,0.52584547,0.45265466,-0.0026013255,0.011014335,-0.00088557974,0.015891828,164,6,231,2,0,630.8682,270.7094,2723.7744,42.86934,385199.53,649.0902,183.5906,180.35617,198.58815,198.58815,-7.274063,1,610.9587,0,0,20.445961,20.44598,0,3,137,147,0,0,1,-127,51,183
