IsRaceOn,TimestampMS,EngineMaxRpm,EngineIdleRpm,CurrentEngineRpm,AccelerationX,AccelerationY,AccelerationZ,VelocityX,VelocityY,VelocityZ,AngularVelocityX,AngularVelocityY,AngularVelocityZ,Yaw,Pitch,Roll,NormalizedSuspensionTravelFrontLeft,NormalizedSuspensionTravelFrontRight,NormalizedSuspensionTravelRearLeft,NormalizedSuspensionTravelRearRight,TireSlipRatioFrontLeft,TireSlipRatioFrontRight,TireSlipRatioRearLeft,TireSlipRatioRearRight,WheelRotationSpeedFrontLeft,WheelRotationSpeedFrontRight,WheelRotationSpeedRearLeft,WheelRotationSpeedRearRight,WheelOnRumbleStripFrontLeft,WheelOnRumbleStripFrontRight,WheelOnRumbleStripRearLeft,WheelOnRumbleStripRearRight,WheelInPuddleDepthFrontLeft,WheelInPuddleDepthFrontRight,WheelInPuddleDepthRearLeft,WheelInPuddleDepthRearRight,SurfaceRumbleFrontLeft,SurfaceRumbleFrontRight,SurfaceRumbleRearLeft,SurfaceRumbleRearRight,TireSlipAngleFrontLeft,TireSlipAngleFrontRight,TireSlipAngleRearLeft,TireSlipAngleRearRight,TireCombinedSlipFrontLeft,TireCombinedSlipFrontRight,TireCombinedSlipRearLeft,TireCombinedSlipRearRight,SuspensionTravelMetersFrontLeft,SuspensionTravelMetersFrontRight,SuspensionTravelMetersRearLeft,SuspensionTravelMetersRearRight,CarOrdinal,CarClass,CarPerformanceIndex,DrivetrainType,NumCylinders,PositionX,PositionY,PositionZ,Speed,Power,Torque,TireTempFl,TireTempFr,TireTempRl,TireTempRr,Boost,Fuel,Distance,BestLapTime,LastLapTime,CurrentLapTime,CurrentRaceTime,Lap,RacePosition,Accelerator,Brake,Clutch,Handbrake,Gear,Steer,NormalDrivingLine,NormalAiBrakeDifference
True,22438156,15999.99,0,0,-0.083396316,-0.00085852813,0.066958964,-0.0038020988,-7.402349E-06,-0.0058931783,0.0004181774,0.002187602,-0.00079084525,-0.5729736,-0.0017866455,0.00012631889,0.27599922,0.2561969,0.24406634,0.24259478,0.0002344395,0.00062775554,-0.015580348,0.028546102,-0.018267756,-0.018267756,-0.018267756,-0.018267756,0,0,0,0,0,0,0,0,0,0,0,0,0.02683381,0.017655319,-0.009533508,-0.009226933,0.026834833,0.017666474,0.01826568,0.030000271,0.0011894442,-0.001239635,0.00012509152,-4.9866736E-05,164,6,231,2,0,-9564.256,412.66653,1365.1691,0.0070132418,0,0,117.911194,115.52301,119.85364,119.85364,-14.7,1,0,0,0,0,80.94191,0,0,0,0,0,255,1,-127,0,0
True,22456421,15999.99,0,50.485783,0.048812985,-0.028341144,2.7909448,0.0072107837,-0.0024128323,0.26447463,-0.018946657,0.00051377725,-0.0105873635,0.59855014,-0.040865935,-0.055519003,0.25338775,0.2709288,0.2485177,0.24393713,0.17255487,0.063531265,0.18018582,0.11278889,0.93011034,1.1824917,1.0618858,1.3886015,0,0,0,0,0,0,0,0,0,0,0,0,-0.004050998,-0.003970585,-0.0065592146,-0.0064739054,0.17260242,0.06365522,0.18030518,0.11297454,-0.0015842207,0.0005674772,0.0006543249,0.000109728426,164,6,231,2,0,-9618.597,109.205826,1296.065,0.26458392,2706.2395,567.8208,114.45231,113.831726,116.753845,116.753845,0,1,-54.930428,0,0,0.073472,0.073472,0,8,255,0,0,0,1,0,53,0
True,22456531,15999.99,0,280.1469,0.32321787,-0.036400616,10.711431,0.007016301,-0.009134702,1.534154,-0.037502352,-0.0018429309,-0.018037448,0.59876865,-0.044256803,-0.05712837,0.2254277,0.25522378,0.26729837,0.2753332,2.004784,0.27207252,0.9783454,0.4757927,8.413095,5.5249333,6.5823193,5.8174767,0,0,0,0,0,0,0,0,0,0,0,0,0.004990672,0.006886918,-0.03417575,-0.032152228,2.0047903,0.27215967,0.9789421,0.47687784,-0.00501398,-0.0013590008,0.0028872043,0.0038424917,164,6,231,2,0,-9618.541,109.20924,1296.144,1.5341972,41806.41,1471.092,114.56415,113.92764,116.92937,116.92937,0,1,-54.86397,0,0,0.19025147,0.19025147,0,7,255,0,0,0,1,0,53,0
True,22456640,15999.99,0,450.08368,0.84481716,-0.022156298,13.5144825,0.007721305,-0.019397795,3.0974927,-0.021617549,0.005232771,-0.012789768,0.59888095,-0.048077464,-0.058119416,0.19785962,0.24257207,0.28119245,0.30104646,2.0897276,-0.06690832,0.7834668,-0.06256717,11.860944,10.109652,9.570107,10.579737,0,0,0,0,0,0,0,0,0,0,0,0,-0.00010930528,0.0026598056,-0.035909973,-0.033882786,2.0897276,0.06696117,0.78428936,0.071152605,-0.008395657,-0.0029109418,0.0045391135,0.0068996064,164,6,231,2,0,-9618.385,109.22039,1296.3718,3.0975628,0,0,116.70221,114.01415,117.6107,117.6107,0,1,-54.67411,0,0,0.30807692,0.30807692,0,7,255,0,0,0,1,0,53,0
True,22456750,15999.99,0,601.3806,0.02680254,-0.0912953,12.766215,0.0068109035,-0.034080774,4.311981,-0.0065471735,0.0027351964,-0.00065885717,0.5985735,-0.049520668,-0.058333874,0.17767847,0.22819437,0.2847126,0.32027817,1.580152,-0.05298954,0.44550243,-0.049415186,14.741816,13.726412,13.330637,14.072814,0,0,0,0,0,0,0,0,0,0,0,0,-0.003874241,-0.0005554516,-0.032586094,-0.028992249,1.5801568,0.05299245,0.4466926,0.05729233,-0.0108712055,-0.0046746023,0.004957635,0.009186111,164,6,231,2,0,-9618.182,109.23543,1296.6687,4.312121,0,0,117.89722,114.088524,118.43948,118.43948,0,1,-54.42687,0,0,0.40446335,0.40446338,0,7,255,0,0,0,1,0,53,0
True,22456859,15999.99,0,857.30145,0.24146414,-0.13726962,13.72329,0.005377054,-0.0528225,5.902096,-0.0042687994,-0.0059762327,0.006758467,0.5979029,-0.04996927,-0.057271745,0.17251542,0.21918505,0.28903642,0.3284081,1.1860917,0.4309411,0.89147896,0.6972631,20.605316,19.115154,19.864052,19.667595,0,0,0,0,0,0,0,0,0,0,0,0,-0.0017206073,0.0016939098,-0.022874486,-0.01983535,1.1860929,0.43094444,0.8917724,0.69754523,-0.011504538,-0.005779743,0.0054717027,0.010152698,164,6,231,2,0,-9617.846,109.25998,1297.1617,5.902334,137777.27,1546.6406,119.40168,114.16263,119.09737,119.09737,0,1,-54.01676,0,0,0.521173,0.52117306,0,7,255,0,0,0,1,0,53,0
True,22456968,15999.99,0,1064.2635,0.05250883,-0.11975253,13.793027,0.008742809,-0.06455243,7.2439165,0.0041619856,-0.0089091,0.008081908,0.5971097,-0.04984565,-0.056600768,0.17157616,0.21529888,0.2989344,0.33426544,2.1645336,0.42408508,0.8204935,0.65128195,27.095333,23.393017,24.5661,23.871336,0,0,0,0,0,0,0,0,0,0,0,0,-0.001317798,0.0023021551,-0.029083801,-0.025199188,2.164534,0.42409134,0.8210088,0.6517693,-0.011619754,-0.0062564462,0.006648496,0.0108491,164,6,231,2,0,-9617.4795,109.28661,1297.6987,7.2442083,170858.64,1546.6406,120.65843,114.23585,119.49249,119.49249,0,1,-53.569996,0,0,0.6199648,0.6199649,0,7,255,0,0,0,1,0,53,0
True,22457078,15999.99,0,1286.3341,-0.55704117,-0.18599659,14.285574,0.011766434,-0.08007455,8.751686,0.0040142625,-0.010784761,0.011044504,0.59621954,-0.049591847,-0.055739485,0.17381191,0.20994456,0.30738774,0.3390981,2.1144774,0.5626796,0.8282153,0.6720105,32.55092,28.604736,29.403984,29.068878,0,0,0,0,0,0,0,0,0,0,0,0,-0.0029319862,0.00088230916,-0.031579595,-0.027152026,2.1144793,0.56268024,0.8288171,0.6725588,-0.011345504,-0.006913241,0.007653538,0.011423662,164,6,231,2,0,-9617.023,109.319725,1298.3695,8.752061,207193.28,1546.6406,121.86392,114.33244,119.79075,119.79075,0,1,-53.012486,0,0,0.721451,0.72145116,0,7,255,0,0,0,1,0,53,0
True,22457187,15999.99,0,1495.552,-0.02314806,-0.20145541,15.28805,0.013749123,-0.097200096,10.3849945,0.0051277024,-0.0017930098,0.013178974,0.5954632,-0.048956044,-0.054336388,0.18049036,0.20393094,0.31895736,0.34178412,0.932424,0.73200166,0.6972658,0.67107546,34.975616,34.43097,34.48822,34.412216,0,0,0,0,0,0,0,0,0,0,0,0,-0.016500073,-0.012722979,-0.019798538,-0.015004204,0.93257,0.7321122,0.69754684,0.6712432,-0.010526281,-0.007650908,0.0090290755,0.011743013,164,6,231,2,0,-9616.446,109.36068,1299.219,10.385458,241337.67,1546.6406,123.12512,114.46315,119.95099,119.95099,0,1,-52.3066,0,0,0.8287635,0.82876366,0,7,255,0,0,0,1,0,53,0
True,22457296,15999.99,0,1775.5132,0.53340244,-0.27018845,15.80991,0.016571999,-0.123497725,12.289351,0.008182488,0.002694007,0.014734808,0.59557825,-0.048145015,-0.052586246,0.14966843,0.18925878,0.33318165,0.34208754,1.2327906,0.603454,0.66790676,0.71106803,42.51777,40.26753,40.72618,40.863327,0,0,0,0,0,0,0,0,0,0,0,0,-0.02208339,-0.01831394,-0.01563281,-0.010154812,1.2329884,0.6037318,0.6680897,0.7111405,-0.014307097,-0.009450689,0.010720238,0.011779085,164,6,231,2,0,-9615.659,109.415054,1300.3784,12.289983,286638.22,1546.6406,122.997314,114.65485,120.12799,120.12799,0,1,-51.34345,0,0,0.95222396,0.952224,0,7,255,0,0,0,1,0,53,0
True,22457421,15999.99,0,2027.3428,-0.19192219,-0.281214,15.347317,0.01943636,-0.14089334,14.076373,0.012227022,0.004839354,0.008191395,0.5959991,-0.046955712,-0.051347945,0.12843832,0.15315178,0.3402467,0.34304014,1.1003956,0.6085999,0.662057,0.68586266,48.115486,46.13832,46.62275,46.686813,0,0,0,0,0,0,0,0,0,0,0,0,-0.021819288,-0.018788895,-0.013180591,-0.00730203,1.1006119,0.6088899,0.6621882,0.6859015,-0.016911319,-0.013879806,0.011560224,0.011892345,164,6,231,2,0,-9614.804,109.47203,1301.6385,14.077092,327396.2,1546.6406,123.073944,114.81654,120.299965,120.299965,0,1,-50.296715,0,0,1.0676697,1.0676697,0,7,255,0,0,0,1,0,53,0
True,22457531,15999.99,0,2239.5127,0.13384295,-0.25065643,15.694784,0.020318985,-0.15163463,15.638457,0.0057476964,0.004586427,0.0108018145,0.59641546,-0.045928124,-0.05030027,0.1260819,0.13962685,0.30696663,0.32703957,0.7092806,0.69503033,0.66338503,0.64793724,51.72354,51.64701,51.781963,51.697006,0,0,0,0,0,0,0,0,0,0,0,0,-0.020224066,-0.01801973,-0.011716913,-0.008219195,0.70956886,0.69526386,0.6634885,0.6479894,-0.017200371,-0.015538862,0.0076034702,0.009989992,164,6,231,2,0,-9613.962,109.52668,1302.8763,15.639205,361750.2,1546.6406,123.00814,114.96774,120.45731,120.45731,0,1,-49.26798,0,0,1.1683373,1.1683373,0,7,255,0,0,0,1,0,54,0
True,22457640,15999.99,0,2508.9224,-0.032719135,-0.09528774,15.436932,0.018414497,-0.17709488,17.625809,-0.016514106,0.005794922,0.01303246,0.59700435,-0.04665097,-0.04862072,0.15242024,0.18438356,0.29031226,0.29056805,0.74764377,0.49621007,0.56919205,0.61296624,58.510696,57.23435,57.889553,58.07067,0,0,0,0,0,0,0,0,0,0,0,0,-0.018470978,-0.015758129,-0.008154212,-0.0074181478,0.74787194,0.49646023,0.56925046,0.6130111,-0.013969542,-0.010048717,0.0056233853,0.0056537986,164,6,231,2,0,-9612.761,109.60404,1304.643,17.626707,405493.6,1546.6406,122.88182,115.13477,120.64882,120.64882,0,1,-47.799873,0,0,1.2967243,1.2967243,0,7,255,0,0,0,1,0,54,0
True,22457750,15999.99,0,2732.3108,0.42138052,0.072064936,15.611998,0.017064095,-0.20452714,19.27273,-0.017202388,0.0056849546,0.016847111,0.5977699,-0.048698414,-0.047228917,0.1862631,0.20686744,0.30261958,0.32285208,0.6312418,0.5627818,0.5369214,0.53465116,63.322178,62.956608,63.09961,63.062073,0,0,0,0,0,0,0,0,0,0,0,0,-0.01724045,-0.013923759,-0.0080133295,-0.004919833,0.6314772,0.562954,0.53698117,0.5346738,-0.009818159,-0.0072906986,0.0070866384,0.009492133,164,6,231,2,0,-9611.652,109.67755,1306.2701,19.27382,441679,1546.6406,122.793335,115.24945,120.785355,120.785355,0,1,-46.446774,0,0,1.403386,1.4033862,0,7,255,0,0,0,1,0,54,0
True,22457859,15999.99,0,2970.7954,-0.28085804,0.05382806,15.162542,0.016338348,-0.21450585,20.931217,-0.0025387905,0.0046874094,0.020196527,0.59837157,-0.04967107,-0.045396145,0.17078476,0.21410798,0.34798855,0.35309944,0.7381845,0.49661228,0.5300719,0.56041497,69.43922,67.961945,68.48657,68.63263,0,0,0,0,0,0,0,0,0,0,0,0,-0.015620806,-0.011932162,-0.01038136,-0.0035226103,0.7383498,0.4967556,0.53017354,0.56042606,-0.0117168315,-0.00640253,0.012480672,0.013088319,164,6,231,2,0,-9610.428,109.76208,1308.0658,20.932322,480195.8,1546.6406,122.7012,115.377686,120.912384,120.912384,0,1,-44.952934,0,0,1.5114586,1.5114588,0,7,255,0,0,0,1,0,54,0
True,22457984,15999.99,0,3224.2002,0.4301467,-0.24874586,15.088642,0.015044212,-0.22825873,22.780344,0.019104179,0.005934758,0.02265174,0.59904516,-0.048793275,-0.042906363,0.12771037,0.158642,0.33342505,0.35830745,0.6534185,0.562671,0.5161438,0.5167004,74.910255,74.35808,74.38081,74.35494,0,0,0,0,0,0,0,0,0,0,0,0,-0.014742214,-0.011668938,-0.008258906,-0.0019058343,0.6535847,0.562792,0.5162099,0.5167039,-0.017000614,-0.01320634,0.01074918,0.013707515,164,6,231,2,0,-9608.901,109.868454,1310.302,22.78149,493053.8,1462.5745,122.67325,115.518906,121.062836,121.062836,0,1,-43.09206,0,0,1.6352745,1.6352746,0,7,255,0,0,0,1,0,54,0
True,22458093,15999.99,0,3428.5906,-0.0512681,-0.5592247,14.163558,0.014789581,-0.22789192,24.31736,0.026943743,0.0044557466,0.021266347,0.5994964,-0.045893222,-0.040669087,0.11925584,0.16147667,0.28795636,0.3008854,0.56424433,0.45025322,0.50205004,0.5206432,79.36158,78.56115,79.25225,79.34927,0,0,0,0,0,0,0,0,0,0,0,0,-0.012555088,-0.009715971,-0.0060247127,-0.005025734,0.564384,0.45035803,0.50208616,0.52066743,-0.0180377,-0.012858624,0.005343292,0.0068804547,164,6,231,2,0,-9607.464,109.9644,1312.4059,24.318432,505085.3,1408.6454,122.61696,115.65161,121.19374,121.19374,0,1,-41.34085,0,0,1.7434498,1.7434498,0,7,255,0,0,0,1,0,55,0
True,22458203,15999.99,0,3618.4797,-0.15009022,-0.4720086,13.735389,0.012830734,-0.242867,25.803558,0.00395376,0.0047532343,0.014779834,0.60001415,-0.044311635,-0.038945485,0.18809368,0.20614056,0.27421498,0.30221012,0.4176657,0.44224146,0.46440908,0.4507396,83.17532,83.34213,83.78826,83.679306,0,0,0,0,0,0,0,0,0,0,0,0,-0.010695091,-0.0076447274,-0.004351322,-0.0030528267,0.4178026,0.44230753,0.46442947,0.45074993,-0.00959361,-0.0073798634,0.0037095435,0.0070379525,164,6,231,2,0,-9605.949,110.05971,1314.6191,25.8047,525810.75,1389.2894,122.544876,115.74252,121.31598,121.31598,0,1,-39.495495,0,0,1.850435,1.8504349,0,7,255,0,0,0,1,0,55,0
True,22458312,15999.99,0,3815.082,0.58239365,-0.108195424,13.921336,0.012507439,-0.2495476,27.301666,-0.0019639293,0.0047507593,0.019197235,0.6004045,-0.04427142,-0.037213545,0.17740029,0.21983191,0.3439861,0.34623042,0.46735615,0.3318487,0.393044,0.4302132,88.39599,87.35381,88.11954,88.346954,0,0,0,0,0,0,0,0,0,0,0,0,-0.010611725,-0.0074068056,-0.0069659874,-0.0010301094,0.4674766,0.33193135,0.39310572,0.43021443,-0.010905329,-0.0057003945,0.012004808,0.012271643,164,6,231,2,0,-9604.3,110.16175,1317.0278,27.302807,545066.44,1366.0961,122.46812,115.82498,121.40869,121.40869,0,1,-37.4894,0,0,1.9603448,1.9603447,0,7,255,0,0,0,1,0,55,0
True,22458421,15999.99,0,3993.4458,0.19165325,-0.015207052,13.549693,0.0073366165,-0.2519418,28.586643,-0.0016080923,0.0048212423,0.031692885,0.6009341,-0.044360913,-0.03485444,0.14868267,0.18518469,0.32149366,0.34742254,0.40399462,0.37954533,0.40763527,0.4114208,92.04597,91.84627,92.3763,92.3806,0,0,0,0,0,0,0,0,0,0,0,0,-0.009305392,-0.006940952,-0.005249054,-0.00014000895,0.4041018,0.37960878,0.40766907,0.41142082,-0.014428016,-0.009950444,0.009330627,0.012413375,164,6,231,2,0,-9602.795,110.255905,1319.2247,28.587751,574884.9,1376.4565,122.42764,115.892075,121.48871,121.48871,0,1,-35.659477,0,0,2.0556438,2.0556433,0,7,255,0,0,0,1,0,55,0
True,22458531,15999.99,0,4207.7783,0.77026415,-0.13941577,13.46051,0.03263092,-0.2686913,30.11795,0.0038937703,0.041345757,0.031002706,0.60275877,-0.044375844,-0.031053768,0.18075414,0.2253137,0.28881252,0.3073702,0.39054295,0.43044212,0.3899382,0.4186593,96.94189,97.074066,97.2578,97.27783,0,0,0,0,0,0,0,0,0,0,0,0,0.0667078,0.07072968,0.002529762,0.0038610033,0.3961991,0.43621454,0.3899464,0.4186771,-0.010493923,-0.0050279647,0.0054450817,0.007651452,164,6,231,2,0,-9600.8955,110.375305,1321.9902,30.11917,598082.94,1358.896,122.3768,115.974915,121.59291,121.59291,0,1,-33.35394,0,0,2.1699252,2.1699247,0,7,255,0,0,0,1,12,55,0
True,22458640,15999.99,0,4418.895,0.7515731,-0.2934669,13.491299,-0.01813221,-0.27212584,31.622475,0.008254026,0.017191416,0.024228122,0.6063282,-0.04324582,-0.028413482,0.20280601,0.25052163,0.33799726,0.3588697,0.42153442,0.36398733,0.40136537,0.43285072,102.00912,101.42016,102.1516,102.318054,0,0,0,0,0,0,0,0,0,0,0,0,-0.0056083053,-0.002304209,0.00718061,0.013487658,0.42157173,0.36399463,0.4014296,0.4330608,-0.0077889003,-0.0019357987,0.011292782,0.013774361,164,6,231,2,0,-9598.915,110.49748,1324.8566,31.623652,632200.56,1367.6946,122.33072,116.05896,121.68327,121.68327,0,1,-30.959816,0,0,2.2827914,2.2827911,0,7,255,0,0,0,1,0,54,0
True,22458750,15999.99,0,4619.087,0.7270856,-0.08701983,13.598927,-0.010902405,-0.27698016,33.09265,-0.00946719,0.006081545,0.028961195,0.60751146,-0.04301329,-0.025628718,0.1810808,0.21421166,0.33116308,0.36054283,0.36990863,0.35611203,0.40339386,0.41280672,106.268105,106.11888,106.91301,106.9596,0,0,0,0,0,0,0,0,0,0,0,0,-0.0028796094,-0.0005265293,0.0006842525,0.006817667,0.36991984,0.35611242,0.40339443,0.41286302,-0.010453854,-0.0063898116,0.010480251,0.013973281,164,6,231,2,0,-9596.912,110.61886,1327.7454,33.093815,677588.8,1402.3221,122.31386,116.13696,121.77505,121.77505,0,1,-28.544285,0,0,2.3914487,2.3914487,0,7,255,0,0,0,1,0,54,0
True,22458859,15999.99,0,4814.9863,0.23473549,0.37988985,13.746918,-0.004425049,-0.30336666,34.570267,-0.021488369,0.003187319,0.03512791,0.6079898,-0.04520942,-0.022103366,0.22336918,0.26827523,0.31837124,0.35059145,0.37725216,0.3418761,0.3686177,0.37253,111.06583,110.74251,111.35684,111.36245,0,0,0,0,0,0,0,0,0,0,0,0,-0.0043912344,-0.0013712993,-0.0019837734,0.0028079096,0.3772777,0.34187883,0.36862305,0.3725406,-0.0052664913,0.0002419725,0.00895939,0.01279014,164,6,231,2,0,-9594.833,110.748085,1330.7367,34.571598,703817.44,1397.2576,122.29196,116.19629,121.87027,121.87027,0,1,-26.04114,0,0,2.4991271,2.499127,0,7,255,0,0,0,1,0,53,0
True,22458968,15999.99,0,5043.1084,-0.28912354,0.26298267,13.080516,-0.002614975,-0.30439508,36.226128,0.00037190225,0.001965677,0.032683387,0.6082966,-0.046380855,-0.017804837,0.23620947,0.2795326,0.37660983,0.39084426,0.3663081,0.35212836,0.36804172,0.37064245,116.251396,116.115005,116.61584,116.628685,0,0,0,0,0,0,0,0,0,0,0,0,-0.0043424806,-0.0009118227,-0.0054787705,0.0047173295,0.3663338,0.35212955,0.3680825,0.37067246,-0.00369142,0.0016228743,0.015883531,0.017575897,164,6,231,2,0,-9592.313,110.91331,1334.3579,36.227406,705979.1,1338.0444,122.26894,116.264084,121.95383,121.95383,0,1,-23.009487,0,0,2.6237493,2.6237488,0,7,255,0,0,0,1,0,53,0
True,22459078,15999.99,0,5232.755,0.2462964,-0.5677194,12.67161,-0.001455307,-0.29677355,37.557808,0.035483923,0.0016979324,0.023160312,0.60846674,-0.04435759,-0.0146773625,0.19868438,0.24353927,0.35190815,0.39564958,0.37648317,0.3925382,0.381965,0.3802977,120.552376,120.716446,120.97818,120.94867,0,0,0,0,0,0,0,0,0,0,0,0,-0.0036203011,-0.00027300778,-0.003937475,0.00546611,0.37650058,0.39253828,0.3819853,0.38033697,-0.0082944855,-0.0027922988,0.012946684,0.018147215,164,6,231,2,0,-9590.056,111.06151,1337.6003,37.558983,686946.4,1254.6099,122.27022,116.33087,122.02396,122.02396,0,1,-20.29423,0,0,2.7308455,2.730845,0,7,255,0,0,0,1,0,52,0
True,22459187,15999.99,0,5400.8843,1.7321682,-0.7304888,12.662638,0.0613575,-0.29043102,38.85885,-0.0066284006,0.057588983,0.028756311,0.60955065,-0.041724112,-0.012588249,0.17812708,0.212798,0.2976963,0.32129517,0.26891583,0.32081392,0.35500336,0.4067979,123.786476,124.07483,125.04589,125.28121,0,0,0,0,0,0,0,0,0,0,0,0,0.18572076,0.19381188,-0.00052895426,0.0019944613,0.3268148,0.37481278,0.35500377,0.40680277,-0.010816177,-0.00656322,0.0065012947,0.009307027,164,6,231,2,0,-9587.708,111.205215,1340.967,38.859985,722315.25,1278.0718,122.28067,116.41223,122.11,122.11,0,1,-17.473873,0,0,2.8382912,2.8382905,0,7,255,0,0,0,1,111,51,0
True,22459296,15999.99,0,5571.6523,5.711083,0.8447294,11.753965,-0.034938812,-0.32384956,40.1281,-0.019575788,0.30817845,0.044884942,0.6297259,-0.045298528,-0.00909067,0.26030698,0.25013614,0.3521523,0.34576702,0.26750264,0.57435083,0.23292305,0.3611185,128.37288,130.1875,128.37611,128.31813,0,0,0,0,0,0,0,0,0,0,0,0,0.46712232,0.5243822,0.08198792,0.094184965,0.53829443,0.77772456,0.2469315,0.37319887,-0.00073546544,-0.0019830838,0.012975711,0.012216549,164,6,231,2,0,-9585.249,111.355934,1344.4185,40.12942,698592.1,1198.2053,122.31114,116.52684,122.17738,122.17738,0,1,-14.562241,0,0,2.9455829,2.9455822,0,7,255,0,0,0,1,119,50,0
True,22459406,15999.99,0,5739.6167,7.0734277,0.018847197,10.8861885,-0.6469784,-0.2949276,41.275078,0.016358227,0.28925171,0.03506109,0.6664878,-0.044297423,-0.006513406,0.27888855,0.2521071,0.38793987,0.3501385,0.24541634,0.4084137,0.2967049,0.45635757,131.74461,132.14766,132.72821,133.03627,0,0,0,0,0,0,0,0,0,0,0,0,0.052307338,0.05850759,0.2099705,0.23526952,0.25092876,0.4125832,0.36348507,0.5134335,0.0015438721,-0.0017413124,0.017230589,0.012736283,164,6,231,2,0,-9582.664,111.518616,1347.887,41.2812,710255.25,1182.4819,122.34707,116.6709,122.229324,122.229324,0,1,-11.592098,0,0,3.051915,3.051914,0,7,255,0,0,0,1,0,46,0
True,22459515,15999.99,0,5895.473,7.8174434,-0.5961435,11.531777,-0.57674026,-0.29036915,42.48231,0.011240586,0.0744662,0.04327709,0.684707,-0.042403705,-0.0026839406,0.2206158,0.22254156,0.36100814,0.33964705,0.24635251,0.3787733,0.30987185,0.3932192,135.06696,136.21599,136.20518,136.6544,0,0,0,0,0,0,0,0,0,0,0,0,0.10528176,0.11263553,0.13841078,0.15323767,0.26790634,0.39516574,0.339379,0.42202267,-0.0056042373,-0.005368013,0.014028601,0.011488929,164,6,231,2,0,-9579.848,111.68552,1351.5029,42.48722,727066.4,1178.3927,122.3492,116.75041,122.31177,122.31177,0,1,-8.448043,0,0,3.1613767,3.1613755,0,7,255,0,0,0,1,0,40,0
True,22459625,15999.99,0,6043.175,1.4314537,-0.045009658,11.320401,-0.41636848,-0.31744564,43.699615,-0.020671332,-0.104370065,-0.016780047,0.68489003,-0.042978436,-0.0010464732,0.22254322,0.23021244,0.33290422,0.31639248,0.33451563,0.24683486,0.3150431,0.28084508,139.57867,139.0349,139.6744,139.73239,0,0,0,0,0,0,0,0,0,0,0,0,-0.31092247,-0.28816822,0.060774732,0.063318305,0.45669848,0.37943164,0.32085153,0.28789437,-0.005367808,-0.004427053,0.010687254,0.008724131,164,6,231,2,0,-9576.937,111.850365,1355.1329,43.70275,752691.9,1190.1187,122.36121,116.82774,122.38409,122.38409,0,1,-5.259297,0,0,3.2693837,3.2693825,0,7,255,0,0,0,1,-112,33,0
True,22459734,15999.99,0,6214.8164,-5.095908,0.23095527,10.622584,0.042438507,-0.32082313,44.802605,0.0010529365,-0.3619254,-0.00066933315,0.6593693,-0.043993615,-0.0014806449,0.20784391,0.2623455,0.2924488,0.33016714,0.5908116,0.2256918,0.365265,0.23202787,145.40463,142.81213,143.17372,143.25502,0,0,0,0,0,0,0,0,0,0,0,0,-0.5491444,-0.47765172,-0.09978655,-0.09103388,0.8066089,0.52828777,0.3786501,0.24924707,-0.0071709193,-0.00048540905,0.0058774054,0.010361839,164,6,231,2,0,-9573.993,112.02347,1358.8573,44.803772,704978.1,1083.942,122.46448,116.9547,122.45091,122.45091,0,1,-2.0044782,0,0,3.376657,3.3766556,0,7,255,0,0,0,1,-127,26,0
True,22459843,15999.99,0,6362.385,-9.133299,-1.0201042,9.600063,0.99081993,-0.27814412,45.757156,0.038815297,-0.41580603,-0.009496552,0.6138655,-0.040469114,-2.7960163E-05,0.19844365,0.2767853,0.30920205,0.3668103,0.42180422,0.19947419,0.505286,0.28757796,146.24408,145.6962,147.69487,147.22247,0,0,0,0,0,0,0,0,0,0,0,0,-0.09046393,-0.08140408,-0.32299078,-0.2877664,0.431396,0.21544507,0.5996974,0.40682992,-0.008324016,0.0012858734,0.007869244,0.014718436,164,6,231,2,0,-9571.025,112.200096,1362.7787,45.768723,690535.56,1036.7614,122.62655,117.11276,122.52821,122.52821,0,1,1.370975,0,0,3.485291,3.4852898,0,7,255,0,0,0,1,0,21,0
True,22459953,15999.99,0,6475.8213,-12.009704,0.07550162,10.259919,1.0695457,-0.2926674,46.827415,-0.034167197,-0.1519945,0.004434036,0.5833636,-0.040848263,-0.00024107096,0.21138127,0.3069249,0.2624227,0.35942888,0.41135785,0.16416252,0.35516864,0.24177799,150.42067,148.06378,149.97421,149.477,0,0,0,0,0,0,0,0,0,0,0,0,-0.19238445,-0.16881454,-0.25922814,-0.23071495,0.45412228,0.23547332,0.43970898,0.33419454,-0.006737005,0.0049829893,0.0023075268,0.013840839,164,6,231,2,0,-9568.102,112.37063,1366.8654,46.84054,752575.75,1110.2502,122.673035,117.16078,122.66481,122.66481,0,1,4.823039,0,0,3.5938644,3.5938632,0,7,255,0,0,0,1,0,19,0
True,22460062,15999.99,0,6631.571,-7.7646065,-0.9465799,10.021336,0.4058838,-0.29895657,47.904083,0.037615865,0.015041456,0.0794518,0.5788689,-0.039040543,0.00557041,0.17078525,0.29822633,0.26567098,0.3830067,0.32489535,0.24692437,0.3521065,0.316643,153.00267,152.01895,153.71188,153.28847,0,0,0,0,0,0,0,0,0,0,0,0,-0.09770073,-0.09259361,-0.08498725,-0.076819256,0.33926746,0.26371428,0.36221793,0.32582816,-0.011716774,0.0039159656,0.0026937202,0.016644068,164,6,231,2,0,-9565.189,112.54947,1371.1709,47.90673,746752.8,1075.7101,122.74977,117.19542,122.73871,122.73871,0,1,8.394686,0,0,3.7036223,3.7036211,0,6,255,0,0,0,1,0,19,0
True,22460187,15999.99,0,6750.345,-2.7825923,-0.7225764,9.940531,0.048439026,-0.32610166,49.01544,0.02378276,0.018381799,0.0503115,0.5809375,-0.037664894,0.012530781,0.21346168,0.30846968,0.3147075,0.3880104,0.28206685,0.24999148,0.24595651,0.25584602,156.05682,155.5297,155.92996,155.97307,0,0,0,0,0,0,0,0,0,0,0,0,-0.020393886,-0.0171054,-0.009160383,-0.0032941538,0.28280315,0.250576,0.24612704,0.2558672,-0.0064818077,0.00517248,0.008523803,0.017238978,164,6,231,2,0,-9562.223,112.720024,1375.6604,49.01655,752765.06,1065.4988,122.75109,117.209496,122.776955,122.776955,0,1,12.091506,0,0,3.8146734,3.8146722,0,6,255,0,0,0,1,0,21,0
True,22460281,15999.99,0,6888.1353,-0.3758149,-0.92209446,9.76196,-0.050180435,-0.31682557,50.105103,-0.004530428,0.0077280123,0.072149366,0.5824764,-0.03503672,0.019284463,0.17738277,0.27486792,0.3207496,0.37022248,0.21261452,0.19327459,0.24820393,0.260992,158.58986,158.28833,159.36821,159.47932,0,0,0,0,0,0,0,0,0,0,0,0,0.002669546,0.0043786406,0.005539229,0.010971047,0.21263127,0.19332418,0.24826573,0.26122248,-0.010907479,0.0010506734,0.009242162,0.015124124,164,6,231,2,0,-9559.152,112.88531,1380.3302,50.10613,752486.5,1043.5542,122.76744,117.23314,122.80664,122.80664,0,1,15.92896,0,0,3.927467,3.927466,0,6,255,0,0,0,1,0,24,0
True,22460406,15999.99,0,7022.285,0.058193207,0.5842787,9.416522,-0.054283142,-0.33918762,51.136013,0.009893825,-0.0017395457,0.07378201,0.5827154,-0.037386388,0.027930243,0.23194018,0.29975972,0.29020578,0.3577701,0.23641203,0.24197051,0.21211372,0.21572548,162.13118,162.21274,162.15555,162.20169,0,0,0,0,0,0,0,0,0,0,0,0,0.005241928,0.0082354015,0.005554832,0.008534903,0.23647013,0.24211061,0.21218644,0.21589425,-0.0042151175,0.004104059,0.0056107305,0.013643626,164,6,231,2,0,-9556.081,113.0519,1385.0001,51.137165,752747.4,1024.2429,122.76021,117.23793,122.857864,122.857864,-0.32077503,1,19.76849,0,0,4.0378833,4.037882,0,6,255,0,0,0,1,0,26,0
True,22460500,15999.99,0,7160.546,-0.23592043,-1.2415667,8.960936,-0.045829773,-0.31024012,51.99908,0.0329879,-0.0035973014,0.051523015,0.58251727,-0.033833474,0.034015086,0.1822423,0.2664806,0.32112235,0.37180763,0.22958216,0.24144678,0.27328154,0.27239576,164.74901,164.91129,165.66704,165.65489,0,0,0,0,0,0,0,0,0,0,0,0,0.0057501826,0.008025535,0.003099019,0.008580816,0.22965416,0.24158013,0.27329913,0.27253088,-0.010311376,2.1830201E-05,0.009286478,0.015312586,164,6,231,2,0,-9553.363,113.19764,1389.1318,52.000027,752595.1,1004.03375,122.76927,117.25502,122.86725,122.86725,-1.4122734,1,23.165634,0,0,4.133809,4.1338077,0,6,255,0,0,0,1,0,28,0
True,22460625,15999.99,0,7295.548,0.5711093,-0.6769328,9.418198,-0.035715103,-0.32401797,53.14377,0.012596194,-0.0043679923,0.04728631,0.58205396,-0.03229096,0.039603245,0.2046903,0.27703243,0.29915932,0.33720765,0.2230922,0.18728347,0.22475097,0.23737305,168.25932,167.78937,168.6568,168.81802,0,0,0,0,0,0,0,0,0,0,0,0,0.004057792,0.0061986186,0.0023931288,0.0052281716,0.2231291,0.18738602,0.2247637,0.23743062,-0.007557761,0.001316186,0.006675236,0.011198904,164,6,231,2,0,-9549.687,113.37637,1394.7218,53.144764,752645.2,985.6182,122.76852,117.2728,122.915924,122.915924,-3.258153,1,27.76576,0,0,4.2610793,4.261078,0,6,255,0,0,0,1,0,31,0
True,22460734,15999.99,0,7415.9976,-0.027573109,-0.3811946,8.869903,-0.03505516,-0.32152158,54.076283,0.0017655911,-0.0049887057,0.03290378,0.5816131,-0.031473033,0.0445498,0.22261836,0.2823904,0.31287462,0.35464033,0.1800692,0.19077274,0.22341496,0.22500807,170.63116,170.7891,171.55229,171.5898,0,0,0,0,0,0,0,0,0,0,0,0,0.004853964,0.0068544955,0.0021786366,0.0062622675,0.18013461,0.19089584,0.22342558,0.2250952,-0.0053585917,0.0019734278,0.008305885,0.013271522,164,6,231,2,0,-9546.531,113.52431,1399.523,54.07725,752524.25,969.3865,122.756424,117.27783,122.93533,122.93533,-5.284234,1,31.712337,0,0,4.3682537,4.3682528,0,6,255,0,0,0,1,0,33,0
True,22460828,15999.99,0,7532.1187,-0.6389396,-0.67748976,8.297514,-0.032794952,-0.31703144,54.858368,0.028152626,-0.004847787,0.033643316,0.5812168,-0.030214418,0.047413297,0.20207399,0.25052702,0.28428888,0.32800224,0.21613841,0.20731874,0.23308288,0.23555918,173.55707,173.4734,174.16273,174.20946,0,0,0,0,0,0,0,0,0,0,0,0,0.00420794,0.006384931,0.0028672612,0.004626232,0.21617937,0.20741703,0.2331005,0.2356046,-0.007878695,-0.0019351356,0.004907254,0.010104451,164,6,231,2,0,-9543.751,113.65185,1403.7573,54.8593,752619,954.55054,122.756,117.29506,122.958084,122.958084,-7.4295025,1,35.192017,0,0,4.461262,4.4612613,0,6,255,0,0,0,1,0,36,0
True,22460953,15999.99,0,7643.8843,0.29809475,-0.34404758,8.855967,-0.033456802,-0.32884455,55.814384,0.0001474442,-0.0047546783,0.02651007,0.58071464,-0.029457664,0.0507686,0.19835603,0.23146538,0.293769,0.31849292,0.18350723,0.1735109,0.20197892,0.2069537,176.14478,176.00974,176.74156,176.8137,0,0,0,0,0,0,0,0,0,0,0,0,0.004758508,0.0063647386,0.0030060336,0.0045365165,0.18356891,0.1736276,0.2020013,0.20700341,-0.008334763,-0.0042733587,0.006034367,0.008973863,164,6,231,2,0,-9540.292,113.80092,1409.0287,55.81537,752598.1,940.61487,122.74838,117.31526,122.978455,122.978455,-10.456545,1,39.522774,0,0,4.575198,4.5751977,0,6,255,0,0,0,1,0,37,0
True,22461062,15999.99,0,7751.1313,-0.16350532,1.7145586,8.406924,-0.03860283,-0.31947356,56.76956,-0.0496556,-0.00473397,0.036242794,0.5800375,-0.032770254,0.05560703,0.25873712,0.3034422,0.30368477,0.344416,0.13025445,0.1380651,0.17104743,0.17027557,178.39624,178.52473,179.30135,179.30884,0,0,0,0,0,0,0,0,0,0,0,0,0.0051262192,0.0063955775,0.0029711672,0.005763287,0.13035528,0.13821316,0.17107324,0.17037307,-0.00092803314,0.0045557804,0.0072132796,0.012055919,164,6,231,2,0,-9536.692,113.964096,1414.5225,56.770477,752572,927.53784,122.72859,117.31201,123.00339,123.00339,-14.171349,1,44.067802,0,0,4.691883,4.6918826,0,6,255,0,0,0,1,0,38,0
True,22461156,15999.99,0,7872.983,0.15280843,0.9313064,8.156586,-0.035158157,-0.30012318,57.515053,0.0024534995,-0.0056021153,0.030048486,0.5794409,-0.034102406,0.058416057,0.24284667,0.2880597,0.30925563,0.33176965,0.17012298,0.15540662,0.20384426,0.2107975,181.29196,181.10207,182.11125,182.211,0,0,0,0,0,0,0,0,0,0,0,0,0.004818524,0.0065555647,0.0022960992,0.004966064,0.17019121,0.15554483,0.2038572,0.21085599,-0.0028772578,0.0026688613,0.007875618,0.010552362,164,6,231,2,0,-9533.681,114.120766,1419.1255,57.515842,752586.7,913.14,122.71504,117.31984,123.01204,123.01204,-14.7,1,47.847237,0,0,4.7881646,4.788163,0,5,255,0,0,0,1,0,38,0
True,22461281,15999.99,0,7964.713,-0.3886857,2.1417344,7.715231,-0.036209106,-0.32400098,58.396873,-0.05439136,-0.0050225314,0.023810757,0.5786443,-0.03819329,0.06146408,0.27619487,0.31049392,0.33609295,0.34981784,0.1401673,0.13229057,0.14862645,0.15309209,183.6463,183.54495,184.09236,184.1638,0,0,0,0,0,0,0,0,0,0,0,0,0.0051167547,0.0065158885,0.0017703563,0.005771799,0.14026065,0.13245094,0.148637,0.15320085,0.0012134463,0.0054207854,0.01106637,0.012698159,164,6,231,2,0,-9530.104,114.31776,1424.6002,58.39778,752546.25,902.60126,122.693794,117.32542,123.02284,123.02284,-14.7,1,52.34083,0,0,4.90103,4.9010277,0,5,255,0,0,0,1,0,36,0
True,22461375,15999.99,0,8088.1377,-0.36460948,0.3614991,7.315789,-0.0419693,-0.27983874,59.112732,-0.006706748,-0.0050843772,0.0451878,0.57812876,-0.03776804,0.065056026,0.2990178,0.3244782,0.3573774,0.37025306,0.13949312,0.13955128,0.21416262,0.21464595,185.81174,185.8553,187.3028,187.31676,0,0,0,0,0,0,0,0,0,0,0,0,0.004737941,0.0063726944,0.00037043644,0.0070860465,0.13957356,0.13969672,0.21416293,0.2147629,0.0040130503,0.0071361884,0.013596941,0.015127756,164,6,231,2,0,-9526.986,114.5075,1429.3787,59.113407,752263.5,888.327,122.65526,117.31478,123.01226,123.01226,-14.7,1,56.31353,0,0,4.998177,4.998175,0,5,255,0,0,0,1,0,33,0
True,22461484,15999.99,0,8198.418,-0.7069006,1.2492816,7.5104823,-0.07060051,-0.28153163,59.97582,0.0073304577,-0.035030592,0.038595345,0.5767601,-0.04070597,0.07060203,0.22823521,0.31907442,0.31944814,0.37971726,0.16806404,0.16041109,0.18671823,0.17792189,188.92873,188.95335,189.55545,189.5514,0,0,0,0,0,0,0,0,0,0,0,0,-0.10596955,-0.10251679,0.0012601569,0.0067257285,0.19868334,0.19037177,0.18672247,0.17804897,-0.004669592,0.006473325,0.009087428,0.016252983,164,6,231,2,0,-9523.188,114.74942,1435.2119,59.97652,752663.1,877.12573,122.65285,117.30882,123.01541,123.01541,-14.7,1,61.090115,0,0,5.1151032,5.1151013,0,5,255,0,0,0,1,-99,26,0
True,22461593,15999.99,0,8276.303,-7.9021034,0.7917043,6.4428444,-0.3464222,-0.28022605,60.614956,-0.067627445,-0.26285666,-0.0045753177,0.5619479,-0.04000476,0.07302027,0.27936268,0.35008678,0.32154235,0.37949875,0.18342984,0.10574082,0.20025134,0.14073473,190.67972,190.64778,191.27382,191.51268,0,0,0,0,0,0,0,0,0,0,0,0,-0.40958372,-0.3557333,0.0043656854,0.009042699,0.44878206,0.3711163,0.20029892,0.14102495,0.0016020313,0.0102774985,0.009336416,0.016227003,164,6,231,2,0,-9519.657,114.97704,1440.807,60.61659,752368.44,868.28296,122.655045,117.33588,123.02704,123.02704,-14.7,1,65.6334,0,0,5.2250156,5.2250137,0,5,255,0,0,0,1,-127,20,0
True,22461703,15999.99,0,8396.051,-7.975613,1.300041,6.882207,0.73923874,-0.25457656,61.354973,0.02497311,-0.21883823,0.046411037,0.5283629,-0.04061229,0.07873913,0.26065293,0.37884438,0.3095018,0.43512046,0.18587616,0.15311958,0.2378824,0.16494438,193.0724,193.60265,194.25214,194.16463,0,0,0,0,0,0,0,0,0,0,0,0,-0.07106261,-0.06716272,-0.15805225,-0.1366624,0.1989971,0.16720179,0.2856021,0.21420379,-0.00069302693,0.013805091,0.00790488,0.022840008,164,6,231,2,0,-9516.181,115.225075,1446.509,61.359955,752602.44,856.28845,122.69855,117.38995,123.048874,123.048874,-14.7,1,70.24158,0,0,5.3345804,5.3345785,0,5,255,0,0,0,1,0,13,0
True,22461828,15999.99,0,8501.784,-8.492144,0.477724,6.944308,0.5349121,-0.27010795,62.212387,0.0024255998,-0.025737913,0.05929024,0.51462656,-0.040009968,0.08336322,0.20980322,0.33747354,0.28555098,0.39477313,0.18587017,0.12289155,0.1968382,0.17324367,196.23705,195.3675,196.7341,196.54169,0,0,0,0,0,0,0,0,0,0,0,0,-0.08393603,-0.07738776,-0.08842071,-0.07983573,0.20394357,0.14522809,0.21578577,0.19075406,-0.0069305785,0.008730277,0.005057305,0.018043015,164,6,231,2,0,-9512.318,115.50445,1453.075,62.215275,752490.3,845.4654,122.703705,117.39688,123.069756,123.069756,-14.7,1,75.46847,0,0,5.457926,5.457925,0,5,255,0,0,0,1,0,5,0
True,22461937,15999.99,0,8615.0625,-7.1653614,-0.22801167,6.918163,0.20861053,-0.2957018,62.929283,0.025061846,-0.16609018,0.040969975,0.5072294,-0.039300445,0.089636974,0.19735,0.3243114,0.2702133,0.3667296,0.26816785,0.15110776,0.21425553,0.16681418,199.51456,198.30885,198.98598,198.98842,0,0,0,0,0,0,0,0,0,0,0,0,-0.39550996,-0.35442224,-0.061724294,-0.05548795,0.47785157,0.38529038,0.22296932,0.1758007,-0.008458171,0.007115729,0.003233768,0.014708843,164,6,231,2,0,-9508.976,115.74675,1458.9485,62.93032,752591.5,834.54315,122.72453,117.42131,123.08475,123.08475,-14.7,1,80.108826,0,0,5.565975,5.565974,0,5,255,0,0,0,1,-127,254,0
True,22462046,15999.99,0,8686.675,-7.111666,-0.062746435,6.8953667,0.58817863,-0.31824148,63.667454,-0.03185984,-0.09744921,0.055608608,0.48871353,-0.037130192,0.09579657,0.20092504,0.34717712,0.25527135,0.35583383,0.17103636,0.10919378,0.17648792,0.14791152,200.46902,199.89977,200.84775,200.84668,0,0,0,0,0,0,0,0,0,0,0,0,-0.07324588,-0.06652281,-0.103513576,-0.09685322,0.18606019,0.1278615,0.20460461,0.17680036,-0.008019634,0.009920582,0.0014572814,0.013413414,164,6,231,2,0,-9505.645,115.97688,1464.9822,63.670967,752409.1,827.312,122.75565,117.44867,123.11249,123.11249,-14.7,1,84.82607,0,0,5.674909,5.674908,0,5,255,0,0,0,1,0,246,0
True,22462156,15999.99,0,8799.938,-6.184124,-1.1186332,6.44562,0.22906303,-0.30534118,64.35692,0.002365347,-0.04501691,0.047083713,0.48468158,-0.034719214,0.10258238,0.19991525,0.31246,0.25591487,0.37970355,0.16596232,0.12463289,0.21453343,0.19522513,202.64828,202.15504,203.72499,203.63199,0,0,0,0,0,0,0,0,0,0,0,0,-0.1729871,-0.16211052,-0.04444236,-0.039035708,0.2397249,0.20448272,0.21908838,0.19908953,-0.0081434995,0.0056619607,0.0015337914,0.016251348,164,6,231,2,0,-9502.424,116.19504,1470.976,64.35805,752303.6,816.4312,122.75305,117.44388,123.12407,123.12407,-14.7,1,89.49094,0,0,5.781251,5.78125,0,5,255,0,0,0,1,-127,237,0
True,22462265,15999.99,0,8909.695,-9.305324,-0.111519754,5.809136,0.40457916,-0.30204487,64.99596,0.05218999,-0.28108996,0.034248006,0.46673977,-0.0331783,0.10770789,0.20765741,0.345702,0.26230887,0.35792926,0.32260218,0.18591705,0.23434584,0.15480267,206.57466,205.5795,205.61813,205.57463,0,0,0,0,0,0,0,0,0,0,0,0,-0.57447356,-0.51997155,-0.10868396,-0.09760397,0.65885663,0.55220973,0.25832185,0.18300383,-0.0071937963,0.009739634,0.0022939928,0.013662547,164,6,231,2,0,-9499.26,116.40201,1477.0358,64.99792,752706.7,807.2013,122.80132,117.50425,123.13032,123.13032,-14.7,1,94.180916,0,0,5.886958,5.8869576,0,5,255,0,0,0,1,-127,228,0
True,22462359,15999.99,0,9036.287,-13.129169,-2.1896105,6.242095,1.597353,-0.27244484,65.55712,0.007690069,-0.48356932,0.0010640863,0.42705014,-0.023786137,0.109943576,0.19316076,0.32252827,0.24679506,0.3748373,0.42800513,0.16105714,0.35396942,0.1850218,209.5983,207.40642,209.00804,208.57089,0,0,0,0,0,0,0,0,0,0,0,0,-0.7867093,-0.6628149,-0.32559305,-0.27916828,0.8956003,0.6821019,0.48094198,0.33491492,-0.008972049,0.0068969987,0.00044951588,0.015672792,164,6,231,2,0,-9496.168,116.57786,1483.2201,65.57714,752337.2,795.12866,122.962845,117.69081,123.16371,123.16371,-14.7,1,98.87027,0,0,5.992891,5.99289,0,5,255,0,0,0,1,-127,219,0
True,22462484,15999.99,0,9165.79,-18.31273,-1.5925273,5.753654,3.1810436,-0.23394585,66.034004,0.05936007,-0.472193,-0.008140441,0.36845312,-0.015001324,0.109023,0.18964499,0.3178856,0.24303721,0.3699982,0.7155186,0.22883286,0.4000575,0.22390166,215.48286,209.762,211.44937,210.88959,0,0,0,0,0,0,0,0,0,0,0,0,-1.141194,-0.94370675,-0.56096995,-0.49047723,1.346956,0.97105455,0.6890089,0.5391659,-0.009403314,0.0063274987,2.734363E-06,0.015097454,164,6,231,2,0,-9492.928,116.732254,1490.2233,66.11099,649780.5,677.2294,123.23789,118.01956,123.277084,123.277084,-14.7,1,104.16356,0,0,6.110058,6.1100574,0,5,255,0,0,0,1,-127,211,0
True,22462593,15999.99,0,9241.286,-17.649261,-3.4019222,4.895598,4.488371,-0.19421566,66.289085,0.058527425,-0.445365,0.006971704,0.32234415,-0.0031320672,0.11101903,0.15124364,0.29317033,0.2190825,0.35478303,0.65035856,0.29429448,0.49584654,0.28416157,215.25276,211.55827,213.92987,212.9351,0,0,0,0,0,0,0,0,0,0,0,0,-1.306612,-1.1302266,-0.77157575,-0.6567717,1.4595209,1.1679133,0.9171657,0.71560943,-0.014113871,0.0032957643,-0.0028453022,0.013288487,164,6,231,2,0,-9490.2295,116.81525,1496.55,66.44115,591692.9,611.46423,124.04552,118.52217,123.43592,123.43592,-14.7,1,108.88678,0,0,6.2138405,6.21384,0,5,255,0,0,0,1,-127,206,0
True,22462703,15999.99,0,9275.666,-20.93228,-2.3950822,5.601111,5.2220917,-0.18876624,66.60615,0.029461114,-0.34254485,-0.041575164,0.27826104,0.005301362,0.10805329,0.13531727,0.2535645,0.17898792,0.30946276,0.6037305,0.182801,0.4708846,0.27568412,216.88838,211.29324,214.82877,213.7418,0,0,0,0,0,0,0,0,0,0,0,0,-0.76308495,-0.63914776,-0.8530636,-0.7114689,0.9730309,0.6647752,0.9743971,0.76301354,-0.016067503,-0.0015625395,-0.0076122507,0.007900238,164,6,231,2,0,-9487.658,116.842384,1503.1185,66.810814,658618,678.2494,124.64746,119.092316,123.67652,123.67652,-14.7,1,113.64796,0,0,6.3197274,6.3197284,0,5,255,0,0,0,1,0,203,0
True,22462812,15999.99,0,9378.095,-17.510506,-4.7542515,4.804915,4.971489,-0.19666886,66.95925,0.087814815,-0.14154796,0.008261798,0.2551092,0.015606726,0.107657626,0.11438362,0.23193273,0.17667516,0.3034137,0.6390644,0.25734723,0.5459041,0.38045168,218.919,213.15883,217.61003,216.1431,0,0,0,0,0,0,0,0,0,0,0,0,-0.75118005,-0.67389655,-0.80267686,-0.6994216,0.9862427,0.7213627,0.9707221,0.79619974,-0.018635357,-0.0042160302,-0.007887222,0.0071810484,164,6,231,2,0,-9485.249,116.80734,1509.8966,67.14385,574482.5,584.9323,124.80857,119.29933,123.91168,123.91168,0,1,118.58855,0,0,6.427136,6.4271374,0,5,255,0,0,0,1,0,202,0
True,22462906,15999.99,0,9293.324,-22.884615,-1.338723,6.5732574,3.69073,-0.25881052,67.517006,-0.055532575,-0.09773045,-0.073577344,0.24143985,0.017271798,0.10405158,0.13527496,0.2882277,0.13872941,0.2821609,0.36429885,0.121056855,0.3156829,0.18132724,216.16035,212.36809,215.46411,214.17557,0,0,0,0,0,0,0,0,0,0,0,0,-0.63804054,-0.51753926,-0.5606941,-0.4407988,0.7347172,0.5315088,0.6434544,0.4766373,-0.01607269,0.0026894696,-0.01239869,0.004654251,164,6,231,2,0,-9483.31,116.72014,1515.867,67.6183,752153.5,772.81915,124.95268,119.5136,124.113976,124.113976,0,1,122.89939,0,0,6.5203204,6.5203214,0,5,255,0,0,0,1,-71,203,0
True,22463015,15999.99,0,9415.55,-17.288162,-2.8303335,5.7007456,1.8148489,-0.2749958,68.15479,0.026726982,-0.043423794,0.014675882,0.2398038,0.02076329,0.10341552,0.15594551,0.3032978,0.21998522,0.37525198,0.4070627,0.17970759,0.36230987,0.27846047,218.62045,214.90495,218.28618,217.34981,0,0,0,0,0,0,0,0,0,0,0,0,-0.79735297,-0.6798544,-0.2813395,-0.25138965,0.8952496,0.70320463,0.45871598,0.3751493,-0.013537109,0.004538063,-0.0027379766,0.015722092,164,6,231,2,0,-9481.203,116.58323,1523.219,68.179504,722849.44,732.91614,125.07489,119.713326,124.20309,124.20309,0,1,128.06429,0,0,6.6329746,6.6329756,0,5,255,0,0,0,1,-127,207,0
True,22463140,15999.99,0,9451.946,-16.010788,-0.8897208,5.9644957,1.169713,-0.2756145,68.80722,0.05678152,-0.24810034,0.019518511,0.22155084,0.023074718,0.10548426,0.18130274,0.3349236,0.24035214,0.40092537,0.36319202,0.18956237,0.2780311,0.17645726,219.29933,217.41344,218.51164,217.9907,0,0,0,0,0,0,0,0,0,0,0,0,-0.7732432,-0.68303424,-0.21129711,-0.18335335,0.8542912,0.7088509,0.3492102,0.25447124,-0.010426629,0.008417487,-0.00031650066,0.018774468,164,6,231,2,0,-9479.287,116.40319,1530.6785,68.81771,752647.2,760.71155,125.24809,119.95497,124.2397,124.2397,0,1,133.3523,0,0,6.745405,6.745406,0,5,255,0,0,0,1,-127,213,0
True,22463250,15999.99,0,9504.235,-19.445251,0.43306163,6.050952,1.9003143,-0.2801149,69.40216,0.014409019,-0.39574334,0.01010405,0.1806444,0.027030218,0.10376001,0.1955514,0.33751196,0.23022743,0.37054664,0.3244526,0.10561045,0.24674195,0.13106997,220.51715,218.51138,219.5393,219.43208,0,0,0,0,0,0,0,0,0,0,0,0,-0.20248269,-0.17431073,-0.32404646,-0.2784719,0.38245094,0.20380825,0.40729314,0.30777577,-0.008678798,0.00873499,-0.0015202537,0.015162665,164,6,231,2,0,-9477.58,116.194115,1538.184,69.428734,752513.2,756.3083,125.41049,120.202225,124.289955,124.289955,0,1,138.5738,0,0,6.856793,6.856794,0,5,255,0,0,0,1,0,220,0
True,22463359,15999.99,0,9572.8125,-18.077316,-1.1422915,6.7613745,2.0341043,-0.28330302,70.05426,-0.023378318,-0.15108313,-0.0048065907,0.15121485,0.032952774,0.10464665,0.15034547,0.28346482,0.20195763,0.34042776,0.18711282,0.09595376,0.23308823,0.14850429,220.72954,219.82808,221.7928,221.2322,0,0,0,0,0,0,0,0,0,0,0,0,-0.25718698,-0.22670513,-0.30828226,-0.2626737,0.31805086,0.24617544,0.38648167,0.30174658,-0.014224047,0.0021052249,-0.0048813224,0.011581749,164,6,231,2,0,-9476.062,115.9465,1545.8921,70.08436,752227.6,750.3688,125.44484,120.25313,124.368355,124.368355,0,1,143.96713,0,0,6.9694824,6.9694824,0,5,255,0,0,0,1,0,229,0
True,22463468,15999.99,0,9628.321,-14.882795,2.080099,6.202426,0.74274254,-0.30775642,70.70087,0.023413606,0.04089237,0.045474503,0.14586857,0.029006656,0.10576791,0.2407883,0.37926063,0.27988586,0.4232474,0.17170183,0.12160696,0.13978831,0.12646711,222.82314,221.73878,222.55336,222.25652,0,0,0,0,0,0,0,0,0,0,0,0,-0.11860788,-0.110737294,-0.09263209,-0.07990682,0.2086848,0.1644719,0.1676946,0.14959621,-0.0031297505,0.01385615,0.004383769,0.021428391,164,6,231,2,0,-9474.832,115.70161,1553.1973,70.70544,752568.2,746.63306,125.40442,120.26355,124.40149,124.40149,0,1,149.04465,0,0,7.0747585,7.074758,0,5,255,0,0,0,1,0,239,0
True,22463578,15999.99,0,9701.943,-9.538099,1.4148237,6.1116066,0.037332535,-0.2952838,71.34729,-0.046495736,-0.14644778,0.02136457,0.1427705,0.028543038,0.10953594,0.23827855,0.33877078,0.2773653,0.3828507,0.13550489,0.088585764,0.14179714,0.107139096,223.76643,223.58011,224.25188,224.29158,0,0,0,0,0,0,0,0,0,0,0,0,-0.3484287,-0.31422088,-0.027462846,-0.022025632,0.3738504,0.32646927,0.14443211,0.10937968,-0.0034376122,0.008889407,0.0040840916,0.016625527,164,6,231,2,0,-9473.687,115.44873,1560.733,71.34791,752390,740.7145,125.38869,120.27985,124.37599,124.37599,0,1,154.25374,0,0,7.182124,7.1821237,0,4,255,0,0,0,1,-127,249,0
True,22463671,15999.99,0,9775.499,-9.460229,4.141631,6.0668564,0.6517725,-0.2610197,71.96658,-0.06331176,-0.17877889,0.024046313,0.11723021,0.025012586,0.11030456,0.28405482,0.37531957,0.3135676,0.39904222,0.10118524,0.07495529,0.13073644,0.09732933,225.05466,225.42216,225.9534,226.13213,0,0,0,0,0,0,0,0,0,0,0,0,-0.051621772,-0.047823332,-0.105555214,-0.09474912,0.11359252,0.08891213,0.16802952,0.13583224,0.002177596,0.013372716,0.008388277,0.018550575,164,6,231,2,0,-9472.639,115.21035,1568.5026,71.97001,752436.5,735.19763,125.39331,120.33416,124.356155,124.356155,0,1,159.63174,0,0,7.291576,7.291576,0,4,255,0,0,0,1,0,4,0
True,22463781,15999.99,0,9878.356,-7.641233,1.6320438,5.7825427,0.4682474,-0.2445569,72.563324,-9.05362E-06,-0.025278622,0.015755437,0.10825542,0.023742506,0.113091536,0.23070768,0.28459054,0.2999803,0.38191146,0.1127242,0.1049559,0.15821661,0.14113472,227.44218,227.43196,228.59033,228.43726,0,0,0,0,0,0,0,0,0,0,0,0,-0.057459977,-0.056195434,-0.06527802,-0.058433656,0.12652428,0.11905321,0.17115407,0.15275307,-0.0043663047,0.002243314,0.006772846,0.016513854,164,6,231,2,0,-9471.723,115.00907,1576.0975,72.56525,752406.5,727.45056,125.35133,120.32249,124.3446,124.3446,0,1,164.87418,0,0,7.397461,7.3974614,0,4,255,0,0,0,1,0,13,0
True,22463890,15999.99,0,9932.3955,-4.1709685,5.498227,5.708703,0.09728861,-0.27406168,73.16743,-0.03794549,0.0018915923,0.026509307,0.10613685,0.015331695,0.11526014,0.33380508,0.3882019,0.38163173,0.43756187,0.10101138,0.10092456,0.09793775,0.09649399,229.2055,229.196,229.49077,229.47498,0,0,0,0,0,0,0,0,0,0,0,0,-0.015073514,-0.0136331115,-0.015020289,-0.0037412383,0.10212987,0.1018412,0.09908285,0.09656649,0.008280281,0.014952943,0.016480599,0.023130275,164,6,231,2,0,-9470.874,114.830795,1583.7045,73.168,752488.25,723.65186,125.28244,120.282745,124.33995,124.33995,0,1,170.15096,0,0,7.5025115,7.5025125,0,4,255,0,0,0,1,0,21,0
True,22464015,15999.99,0,10018.785,-1.37173,5.4725204,5.7136497,-0.062268734,-0.25954306,73.85751,-0.09688144,-0.0021559466,0.042889386,0.105448656,0.008325093,0.11946537,0.37087753,0.40757385,0.38536933,0.4119882,0.07553098,0.07738398,0.09413712,0.09468276,230.92493,230.97089,231.60779,231.61652,0,0,0,0,0,0,0,0,0,0,0,0,0.005934381,0.006409945,0.0018295762,0.01078118,0.075763755,0.077649005,0.094154894,0.095294595,0.012827825,0.01732923,0.016924974,0.020089753,164,6,231,2,0,-9469.9,114.67869,1592.8275,73.85799,752402.5,717.2855,125.2056,120.24516,124.31893,124.31893,0,1,176.4488,0,0,7.627326,7.6273274,0,4,255,0,0,0,1,0,28,0
True,22464125,15999.99,0,10091.114,-0.50890553,7.6030746,5.468517,-0.081133366,-0.20002657,74.415634,-0.100788705,-0.020886036,-0.02352994,0.103620954,-0.0014835518,0.12124471,0.44400927,0.41869253,0.41634312,0.42606458,0.06874072,0.068644844,0.0932106,0.09263897,232.49228,232.57106,233.30026,233.35847,0,0,0,0,0,0,0,0,0,0,0,0,-0.052336983,-0.05206323,0.00056330784,0.013836946,0.08639703,0.08615506,0.09321231,0.09366664,0.021798633,0.01869312,0.020607527,0.021763332,164,6,231,2,0,-9469.087,114.62428,1600.615,74.41595,752398.4,712.1357,125.12511,120.20873,124.2841,124.2841,0,1,181.8701,0,0,7.7329326,7.7329335,0,4,255,0,0,0,1,-2,30,0
True,22464218,15999.99,0,10189.154,-7.4390683,6.0220685,4.9281597,0.1671691,-0.16789263,74.90968,-0.0004895973,-0.25562748,-0.015338278,0.088854365,-0.008006584,0.11834871,0.39834845,0.44393373,0.4345624,0.46282995,0.16679764,0.10549763,0.1462029,0.09657023,235.21472,235.2218,235.27835,235.45192,0,0,0,0,0,0,0,0,0,0,0,0,-0.41448256,-0.37704656,-0.06369861,-0.03954808,0.44678548,0.3915276,0.15947665,0.10435449,0.016197585,0.021789365,0.02277366,0.026134461,164,6,231,2,0,-9468.332,114.651505,1608.3104,74.91006,752532.56,705.5048,125.06711,120.20566,124.23319,124.23319,0,1,187.18094,0,0,7.8364778,7.836478,0,4,255,0,0,0,1,-127,31,0
True,22464328,15999.99,0,10246.921,-9.232358,2.2790399,5.2112474,1.0281973,-0.20919037,75.42307,-0.05803385,-0.14421625,-0.040147252,0.0632034,-0.0070609767,0.11602168,0.31778407,0.3426218,0.34175542,0.38869047,0.10379223,0.072905935,0.13878722,0.100547776,235.99156,236.09303,236.98438,236.96574,0,0,0,0,0,0,0,0,0,0,0,0,-0.100880794,-0.09307338,-0.14348559,-0.12601398,0.14474033,0.118228294,0.19962467,0.16121222,0.0063150413,0.009361796,0.011739597,0.017319828,164,6,231,2,0,-9467.674,114.69325,1616.0872,75.43037,752351.4,701.2228,125.05234,120.242905,124.217255,124.217255,0,1,192.58679,0,0,7.9403048,7.9403048,0,4,255,0,0,0,1,0,31,0
True,22464437,15999.99,0,10312.479,-9.479601,3.6526403,4.9483767,0.46823645,-0.24022266,75.94142,-0.028513538,-0.005161294,0.0019170097,0.056435414,-0.012288615,0.11443162,0.32949132,0.375948,0.36811024,0.4221726,0.106573984,0.08567398,0.1144581,0.10622592,237.96793,237.58203,238.41365,238.32802,0,0,0,0,0,0,0,0,0,0,0,0,-0.08367701,-0.0786329,-0.058818057,-0.046624076,0.13549855,0.11628914,0.12868652,0.116007544,0.0077511296,0.013449803,0.014872991,0.021300606,164,6,231,2,0,-9467.124,114.75689,1624.035,75.94324,752414.5,696.8778,124.97551,120.21892,124.191414,124.191414,0,1,198.05798,0,0,8.04556,8.04556,0,4,255,0,0,0,1,-5,30,0
True,22464562,15999.99,0,10391.495,-10.857478,3.1034567,4.8195744,0.19571447,-0.2408641,76.5056,-0.061615687,-0.23752226,-0.03687481,0.043895733,-0.0151307145,0.114463866,0.32622123,0.38253704,0.35967627,0.42070898,0.12149933,0.07564652,0.13737868,0.0917939,239.41693,239.59859,240.15881,240.33214,0,0,0,0,0,0,0,0,0,0,0,0,-0.41994616,-0.3709195,-0.057138167,-0.042869672,0.43716916,0.3785547,0.14878733,0.10131105,0.0073499978,0.014258057,0.013870258,0.02112659,164,6,231,2,0,-9466.606,114.85705,1633.2637,76.506226,752334.75,691.45496,124.94281,120.24187,124.13383,124.13383,0,1,204.4067,0,0,8.166811,8.166813,0,4,255,0,0,0,1,-101,28,0
True,22464656,15999.99,0,10483.592,-9.225277,2.1944973,4.616107,0.7420254,-0.21485323,76.960754,0.05055983,-0.08295241,0.007655992,0.024881959,-0.016231626,0.11454783,0.3362593,0.38444898,0.37945682,0.42655882,0.16387345,0.11859962,0.16172437,0.1325545,242.05942,241.55502,242.34421,242.21404,0,0,0,0,0,0,0,0,0,0,0,0,-0.08336793,-0.077533215,-0.10730164,-0.090348445,0.1838606,0.14169428,0.19408353,0.16041675,0.008581333,0.014492586,0.016222015,0.021822095,164,6,231,2,0,-9466.292,114.97076,1641.1171,76.96462,752599.9,685.77673,124.88423,120.235275,124.104065,124.104065,-0.82424545,1,209.84482,0,0,8.269234,8.269234,0,4,255,0,0,0,1,0,25,0
True,22464765,15999.99,0,10510.327,-7.972685,3.4200337,4.8903923,0.3773687,-0.27221036,77.47113,-0.05320202,-0.02985811,-0.0045670476,0.019125296,-0.019807028,0.11525269,0.3881166,0.44962505,0.36455116,0.43196464,0.09974557,0.08466911,0.098770596,0.08773033,242.59259,242.41536,242.87685,242.83043,0,0,0,0,0,0,0,0,0,0,0,0,-0.13106692,-0.12465517,-0.047888897,-0.03612489,0.16470493,0.15069097,0.10976783,0.09487686,0.014942478,0.022487499,0.014449846,0.022464804,164,6,231,2,0,-9466.055,115.087425,1649.1171,77.47253,752411.44,683.75867,124.81508,120.19801,124.07116,124.07116,-3.571681,1,215.34064,0,0,8.372881,8.372882,0,4,255,0,0,0,1,-127,21,0
True,22464875,15999.99,0,10585.767,-11.791676,2.5886295,4.592083,0.3038205,-0.22591054,77.93292,-0.054860286,-0.25910956,-0.032039415,0.0044687623,-0.02036553,0.11377853,0.38051546,0.44579968,0.3937879,0.45732507,0.14130944,0.08383935,0.13295393,0.084797546,244.19676,244.2381,244.51819,244.7047,0,0,0,0,0,0,0,0,0,0,0,0,-0.47957635,-0.42363828,-0.07270531,-0.051209085,0.49996182,0.43185464,0.15153484,0.09906056,0.0140100755,0.022018254,0.017925877,0.025479972,164,6,231,2,0,-9465.907,115.23163,1657.4917,77.933846,752369.56,678.82336,124.772415,120.215546,123.985214,123.985214,-7.2961817,1,221.11777,0,0,8.480682,8.480683,0,4,255,0,0,0,1,-127,16,0
True,22464984,15999.99,0,10653.113,-15.824928,1.8973575,4.67982,1.762917,-0.19326556,78.35108,-0.053927545,-0.41032147,-0.013648884,-0.036728412,-0.017875474,0.111205384,0.34963086,0.43727428,0.35647753,0.43608406,0.119868346,0.06522693,0.1724092,0.09058619,244.88255,245.73328,246.30377,246.5326,0,0,0,0,0,0,0,0,0,0,0,0,-0.14045756,-0.12364175,-0.26211286,-0.21995343,0.18465304,0.13979211,0.3137325,0.2378768,0.010221574,0.020972475,0.013489947,0.022954576,164,6,231,2,0,-9465.93,115.383766,1665.9673,78.37115,752255.44,674.344,124.80821,120.33106,123.952484,123.952484,-11.067569,1,226.93544,0,0,8.58916,8.589161,0,4,255,0,0,0,1,0,10,0
True,22465093,15999.99,0,10742.263,-17.922016,0.6387352,4.6393075,2.0470533,-0.19220483,78.76505,0.025660975,-0.1459775,-0.0014080729,-0.06648012,-0.016078144,0.109993465,0.29920286,0.40862986,0.33994994,0.45240968,0.21896897,0.09904869,0.18512325,0.12427637,248.78827,247.05095,248.36162,247.9946,0,0,0,0,0,0,0,0,0,0,0,0,-0.2432681,-0.21383512,-0.27145332,-0.22922003,0.32730228,0.23566099,0.3285689,0.2607421,0.0040357523,0.017458767,0.011524942,0.024895571,164,6,231,2,0,-9466.168,115.53622,1674.4652,78.791885,752472,669.0546,124.75549,120.336685,123.956474,123.956474,-14.19595,1,232.77466,0,0,8.697353,8.697354,0,4,255,0,0,0,1,0,6,0
True,22465203,15999.99,0,10765.8955,-16.650223,0.55926305,4.757621,1.2237692,-0.25646305,79.24523,-0.060293127,-0.17005002,-0.024279706,-0.07742193,-0.015260928,0.10929486,0.27221912,0.38189343,0.27046347,0.39364052,0.13691776,0.074096374,0.13452841,0.09162333,248.49744,248.00887,248.85503,248.8223,0,0,0,0,0,0,0,0,0,0,0,0,-0.38856086,-0.33827996,-0.15976968,-0.13804136,0.4119782,0.3462999,0.20886418,0.16568118,0.0007257536,0.014179107,0.0032635145,0.01790835,164,6,231,2,0,-9466.595,115.65476,1682.8661,79.2551,752312,667.3545,124.771225,120.38896,123.97824,123.97824,-14.7,1,238.55751,0,0,8.80381,8.80381,0,4,255,0,0,0,1,-127,2,0
True,22465328,15999.99,0,10863.106,-19.58445,3.109743,4.048865,1.7480106,-0.19078493,79.6414,0.032333463,-0.41173854,-0.003909,-0.116344556,-0.016127015,0.10698074,0.33482966,0.48066214,0.36487058,0.51543546,0.31662935,0.12262163,0.17714985,0.09178357,252.45154,250.46426,250.50487,250.62445,0,0,0,0,0,0,0,0,0,0,0,0,-0.79536045,-0.6685819,-0.25890556,-0.2081241,0.85606796,0.67973363,0.3137103,0.22746399,0.008405965,0.026294708,0.014487818,0.032388866,164,6,231,2,0,-9467.355,115.80415,1692.5757,79.66081,752613.5,661.87384,124.83974,120.57096,123.944176,123.944176,-14.7,1,245.24725,0,0,8.926376,8.926375,0,4,255,0,0,0,1,-125,255,0
True,22465437,15999.99,0,10921.764,-21.50319,-0.3509662,4.9700623,3.3797016,-0.1687336,79.946754,-0.0038398309,-0.44163883,-0.036435477,-0.1637394,-0.008462358,0.107411645,0.26488307,0.40099382,0.2908819,0.4436357,0.24586068,0.09444895,0.23042525,0.10878163,252.52863,251.42874,252.53809,252.2025,0,0,0,0,0,0,0,0,0,0,0,0,-0.35600054,-0.30323842,-0.4610122,-0.37228468,0.4326475,0.3176069,0.5153912,0.3878522,-0.00017413124,0.016522083,0.005691115,0.023852408,164,6,231,2,0,-9468.257,115.91382,1700.9786,80.01834,752334.7,657.91345,124.991196,120.7849,123.98062,123.98062,0,1,251.04826,0,0,9.03226,9.032259,0,4,255,0,0,0,1,0,254,0
True,22465546,15999.99,0,11009.261,-20.538641,-2.949219,4.92394,3.9633694,-0.20119333,80.276505,-0.014163103,-0.25218552,-0.038675833,-0.1987277,-0.00053536514,0.10479606,0.22193648,0.3529485,0.2440816,0.37659365,0.2829824,0.107107505,0.2814895,0.1641198,254.89687,252.41112,254.96616,254.18944,0,0,0,0,0,0,0,0,0,0,0,0,-0.46037948,-0.3829787,-0.51705754,-0.42543697,0.54039645,0.39767414,0.58871454,0.45599553,-0.0054422356,0.010628536,0.00012690574,0.01588161,164,6,231,2,0,-9469.424,115.97228,1709.5359,80.374535,751956.3,652.0493,125.03317,120.87013,124.07436,124.07436,0,1,256.98013,0,0,9.139985,9.139984,0,4,255,0,0,0,1,0,255,0
True,22465640,15999.99,0,11065.913,-21.073648,-3.0656223,4.7464495,2.9235535,-0.23514068,80.65206,0.044875294,-0.0378426,0.031904444,-0.21114028,0.0036856553,0.1049054,0.18797256,0.3467628,0.24165669,0.4034537,0.29721782,0.13272417,0.27266625,0.1936611,256.63232,253.48524,256.30234,255.36563,0,0,0,0,0,0,0,0,0,0,0,0,-0.43311474,-0.38567883,-0.3787167,-0.32205763,0.52528733,0.40787727,0.46666178,0.37580013,-0.009608466,0.009869758,-0.0001613982,0.01907507,164,6,231,2,0,-9470.672,115.97631,1717.0989,80.70537,752381.1,649.3345,125.07085,120.95053,124.13725,124.13725,0,1,262.24203,0,0,9.235163,9.235161,0,4,255,0,0,0,1,-18,1,0
True,22465750,15999.99,0,11036.501,-15.055677,-2.0206997,4.944162,1.086998,-0.3296094,81.21215,-0.017658243,0.057180826,-0.0032488764,-0.2089425,0.005631558,0.10639032,0.19996038,0.31461552,0.21138057,0.34798372,0.11743276,0.08362777,0.13158113,0.11777738,254.8367,253.87868,255.34901,254.9841,0,0,0,0,0,0,0,0,0,0,0,0,-0.14104496,-0.13025485,-0.118804984,-0.10672993,0.18353239,0.15478995,0.17728005,0.15894271,-0.008137964,0.005926367,-0.0037610047,0.012480095,164,6,231,2,0,-9472.344,115.91875,1725.9852,81.220085,752284.75,650.9451,125.11949,121.0163,124.18736,124.18736,0,1,268.45273,0,0,9.346849,9.346848,0,4,255,0,0,0,1,0,2,0
True,22465859,15999.99,0,11092.129,-5.6490736,-0.059405856,4.4844036,-0.0326128,-0.33078623,81.699165,-0.005045728,0.052811436,0.010573489,-0.20199843,0.004202784,0.10906119,0.3257306,0.32347268,0.2955879,0.3752994,0.0762826,0.09632284,0.115846895,0.119931996,255.44632,255.6408,256.56693,256.4425,0,0,0,0,0,0,0,0,0,0,0,0,-0.00655505,-0.005674349,0.008880352,0.0122423135,0.07656372,0.09648983,0.11618676,0.12055521,0.0072898157,0.007012844,0.00625062,0.015727732,164,6,231,2,0,-9474.11,115.84517,1734.7069,81.699844,752314.7,647.7321,125.028625,120.9758,124.13806,124.13806,0,1,274.5644,0,0,9.456085,9.456084,0,4,255,0,0,0,1,0,3,0
True,22465968,15999.99,0,11213.499,-0.5476653,-2.92881,3.9196107,-0.24180603,-0.27389973,82.12999,0.076028064,0.009724953,-0.013071813,-0.19864206,0.0077352417,0.10759239,0.2916179,0.28576994,0.33751094,0.3454696,0.124318816,0.16387537,0.19444406,0.19286512,257.61707,258.4456,259.52722,259.42914,0,0,0,0,0,0,0,0,0,0,0,0,0.025641091,0.028972935,0.027998243,0.032601763,0.12693554,0.16641685,0.19644947,0.1956012,0.003105335,0.0023879856,0.011234965,0.012181189,164,6,231,2,0,-9475.883,115.76773,1743.3733,82.1308,752421.1,640.85223,124.9498,120.91505,124.06358,124.06358,0,1,280.6405,0,0,9.564062,9.564061,0,4,255,0,0,0,1,0,1,0
True,22466078,15999.99,0,11215.429,0.7556398,-0.6468069,4.3684626,-0.1511631,-0.30570567,82.64196,-0.02258455,-0.0050511253,-0.06136511,-0.19838521,0.008298871,0.100023024,0.33792323,0.27900058,0.36179453,0.29538253,0.08486234,0.07678533,0.11091531,0.11420709,258.466,258.32864,259.31464,259.38312,0,0,0,0,0,0,0,0,0,0,0,0,0.019026153,0.01942547,0.014517388,0.017675383,0.08696902,0.079204395,0.11186135,0.115566775,0.0087854415,0.0015576109,0.014122102,0.0062262043,164,6,231,2,0,-9477.688,115.65476,1752.2598,82.64266,752311.1,640.60925,124.85779,120.90068,124.01372,124.01372,-0.22020435,1,286.8672,0,0,9.674121,9.67412,0,4,255,0,0,0,1,0,251,0
True,22466203,15999.99,0,11305.261,-4.1413255,-1.7811742,4.370566,-0.0039577484,-0.28228867,83.13897,-0.030641291,-0.14991307,-0.1437529,-0.20421958,0.010928846,0.09059386,0.36630493,0.25370663,0.38350445,0.28939927,0.10351643,0.08085052,0.1615615,0.12827837,260.09085,260.28372,261.58966,261.5653,0,0,0,0,0,0,0,0,0,0,0,0,-0.26170844,-0.24343328,-0.018793097,-0.013760839,0.2814373,0.2565084,0.16265085,0.12901434,0.012266923,-0.0015451051,0.016703252,0.005514838,164,6,231,2,0,-9479.7,115.52845,1762.146,83.139435,752124.7,635.22046,124.730545,120.87216,123.90784,123.90784,-2.9983864,1,293.76895,0,0,9.795837,9.795837,0,4,255,0,0,0,1,-127,239,0
True,22466312,15999.99,0,11392.46,-10.926481,-0.31077176,3.5443542,1.1329594,-0.26561475,83.49616,0.038221624,-0.4059383,-0.11517113,-0.23432583,0.012204457,0.076553084,0.31278008,0.26259023,0.3593649,0.3289569,0.22613621,0.11221309,0.21631865,0.12164295,262.99817,262.46255,263.36172,263.24835,0,0,0,0,0,0,0,0,0,0,0,0,-0.5676489,-0.50105375,-0.1851643,-0.16165291,0.6110343,0.51346534,0.28474474,0.20230836,0.0057012215,-0.00045538694,0.013833236,0.01021795,164,6,231,2,0,-9481.574,115.40974,1770.8425,83.50427,752462.3,630.89185,124.750565,121.01275,123.83576,123.83576,-5.2884007,1,299.86728,0,0,9.902594,9.902593,0,4,255,0,0,0,1,-11,226,0
True,22466406,15999.99,0,11434.848,-14.905081,-2.708835,4.396886,2.5014172,-0.2964062,83.86358,-0.0021340158,-0.2236982,-0.10844702,-0.26909986,0.017992532,0.064979285,0.27712032,0.24198124,0.28677768,0.26735708,0.15284091,0.0823637,0.21562243,0.1326034,263.2905,262.88367,264.8519,264.389,0,0,0,0,0,0,0,0,0,0,0,0,-0.24956487,-0.22157387,-0.3189413,-0.2759961,0.2926482,0.2363869,0.38498905,0.30619848,0.001326967,-0.0029834174,0.00520315,0.0028941892,164,6,231,2,0,-9483.574,115.25892,1779.4015,83.9014,752228.8,628.1507,124.72548,121.08566,123.83856,123.83856,0,1,305.86255,0,0,10.007613,10.007612,0,4,255,0,0,0,1,0,215,0
True,22466531,15999.99,0,11462.759,-15.169013,-1.2364227,4.317129,1.4450397,-0.33109856,84.349495,-0.027315268,-0.0025968163,-0.05639526,-0.27990055,0.01911708,0.055005137,0.25011,0.30407503,0.23951566,0.27970582,0.11837377,0.077426665,0.1372476,0.115377106,264.5948,263.73236,265.1721,264.89087,0,0,0,0,0,0,0,0,0,0,0,0,-0.1652515,-0.14954527,-0.15911262,-0.145666,0.20327422,0.16840035,0.21012789,0.18582374,-0.0019862913,0.0046334043,-0.000415951,0.0043623634,164,6,231,2,0,-9486.085,115.048645,1789.1532,84.36252,752247.25,626.67487,124.7171,121.15541,123.88287,123.88287,0,1,312.7712,0,0,10.127331,10.127329,0,4,255,0,0,0,1,0,204,0
True,22466625,15999.99,0,11516.981,-8.053954,-2.2580159,4.1291876,0.3144493,-0.33663356,84.770355,-0.01736024,0.05576952,-0.030661171,-0.2747591,0.02116704,0.050513543,0.22240914,0.22264533,0.23115304,0.24942912,0.09269511,0.08385986,0.1299238,0.13186643,265.45218,264.99417,266.46432,266.3115,0,0,0,0,0,0,0,0,0,0,0,0,-0.043194804,-0.041501682,-0.027521381,-0.02610757,0.10226522,0.09356744,0.1328067,0.13442603,-0.005384255,-0.0053552836,-0.0014102049,0.00076268613,164,6,231,2,0,-9488.382,114.846634,1797.5195,84.7716,752144.5,623.5782,124.69188,121.19702,123.87865,123.87865,0,1,318.70898,0,0,10.229953,10.22995,0,4,255,0,0,0,1,0,196,0
True,22466750,15999.99,0,11615.253,-1.740046,-4.2802854,3.970511,-0.18385887,-0.3754803,85.210304,0.073834956,0.030363299,-0.06853102,-0.26934543,0.02561048,0.04656191,0.20552716,0.14737272,0.2728353,0.23268972,0.14588392,0.20892623,0.14191544,0.15016282,267.89603,269.14844,268.07718,268.1241,0,0,0,0,0,0,0,0,0,0,0,0,0.017675458,0.020435324,0.025319409,0.026281413,0.14695081,0.20992325,0.14415638,0.15244535,-0.007455107,-0.014588704,0.0035455078,-0.0012275055,164,6,231,2,0,-9491.017,114.58446,1806.9812,85.21133,752417.9,618.70325,124.63226,121.20726,123.83362,123.83362,0,1,325.4515,0,0,10.345545,10.345542,0,4,255,0,0,0,1,0,188,0
True,22466859,15999.99,0,11627.527,0.6157986,-3.6195333,4.4255357,-0.19950485,-0.44737458,85.655304,0.0042294655,0.005381857,-0.08461488,-0.2672815,0.030033903,0.0385464,0.22559646,0.10946314,0.2728753,0.17807958,0.09252606,0.107747205,0.1069753,0.11135338,268.06406,268.3593,268.67932,268.7316,0,0,0,0,0,0,0,0,0,0,0,0,0.023143405,0.024863811,0.023239119,0.026090488,0.095376566,0.11057879,0.10947041,0.114369094,-0.0049932785,-0.019238934,0.0035502613,-0.007720247,164,6,231,2,0,-9493.375,114.28671,1815.4899,85.6567,752317.5,617.91504,124.59011,121.25535,123.83649,123.83649,0,1,331.50735,0,0,10.448959,10.448956,0,4,255,0,0,0,1,0,180,0
True,22466953,15999.99,0,11712.084,0.8599076,-3.6989448,3.8360043,-0.04649353,-0.42468262,86.03641,0.07735729,-0.011623003,-0.07902211,-0.26773253,0.034465164,0.028912708,0.17456646,0.107487924,0.27646753,0.19555707,0.14846037,0.14033961,0.1410418,0.14098804,270.40344,270.27347,270.54178,270.58643,0,0,0,0,0,0,0,0,0,0,0,0,0.009508092,0.011099114,0.006233466,0.007474548,0.14876454,0.14077783,0.14117949,0.14118603,-0.011252943,-0.019481227,0.003977351,-0.0056423023,164,6,231,2,0,-9495.706,113.961784,1823.9595,86.03746,752488.75,613.6948,124.544556,121.27514,123.81173,123.81173,0,1,337.5385,0,0,10.55135,10.551345,0,4,255,0,0,0,1,0,172,0
True,22467078,15999.99,0,11731.984,0.4132383,-3.2707505,4.005251,0.05952072,-0.45847368,86.459045,-0.009515453,-0.009349036,-0.10489106,-0.26872882,0.038740743,0.019392438,0.24302615,0.108549744,0.23442401,0.12970537,0.082645655,0.07939463,0.11321151,0.11253205,270.31323,270.2924,271.28244,271.3007,0,0,0,0,0,0,0,0,0,0,0,0,-0.0021469935,-0.0018063777,-0.0048117684,0.0013945361,0.08267354,0.07941518,0.11331372,0.11254069,-0.0028552413,-0.019350978,-0.0010213107,-0.013471581,164,6,231,2,0,-9498.079,113.579895,1832.6017,86.46027,752252.4,612.3082,124.49686,121.33627,123.82097,123.82097,0,1,343.70627,0,0,10.655354,10.655349,0,4,255,0,0,0,1,0,164,0
True,22467187,15999.99,0,11781.263,0.29941982,-0.52372664,3.5551488,0.07863808,-0.40929317,86.87449,-0.013581641,-0.0024959268,-0.095877655,-0.2694028,0.039196953,0.009052538,0.24423774,0.12749784,0.24191724,0.19057553,0.077392936,0.081031725,0.103400245,0.10089125,271.52774,271.62048,272.37155,272.34354,0,0,0,0,0,0,0,0,0,0,0,0,-0.005423748,-0.005106434,-0.00598367,-0.0042830356,0.077582754,0.08119246,0.10357324,0.100982115,-0.0027066208,-0.017026683,-0.00013042241,-0.0062345713,164,6,231,2,0,-9500.68,113.14901,1842.0657,86.87549,752318.9,609.85144,124.458176,121.36677,123.82027,123.82027,0,1,350.4484,0,0,10.7687,10.768695,0,4,255,0,0,0,1,0,154,0
True,22467296,15999.99,0,11839.783,4.0455756,-1.143382,3.5125437,0.030237198,-0.3737855,87.25949,-0.02105578,0.16098924,-0.041595865,-0.2638674,0.040995337,0.0015979722,0.2988311,0.17560558,0.2800652,0.2153119,0.069428094,0.11000159,0.09578417,0.12063055,272.86133,273.03467,273.7723,273.6216,0,0,0,0,0,0,0,0,0,0,0,0,0.2966535,0.33403602,0.01631043,0.01787125,0.3046696,0.35168228,0.09716295,0.12194716,0.003990151,-0.011125481,0.0044050887,-0.0032936,164,6,231,2,0,-9503.247,112.71569,1851.4408,87.26029,752258.6,606.74426,124.406784,121.38016,123.79825,123.79825,0,1,357.12558,0,0,10.880447,10.880441,0,4,255,0,0,0,1,127,147,0
True,22467406,15999.99,0,11940.103,11.73738,-1.8261504,3.016452,-1.3961143,-0.29602695,87.53783,0.048942905,0.42630914,-0.042936955,-0.23104623,0.043314062,-0.0016004913,0.26386774,0.12593603,0.3055869,0.18817073,0.1185727,0.25855544,0.11069103,0.2050813,275.14935,276.25937,275.72653,275.8256,0,0,0,0,0,0,0,0,0,0,0,0,0.62509936,0.72236556,0.1828331,0.2095659,0.6362458,0.76724374,0.21372984,0.29321697,-0.00029867887,-0.017218264,0.007439431,-0.0065204836,164,6,231,2,0,-9505.678,112.28152,1860.7487,87.54946,752423.4,601.8724,124.54128,121.54825,123.784,123.784,0,1,363.88602,0,0,10.990606,10.9906,0,4,255,0,0,0,1,127,142,0
True,22467500,15999.99,0,11956.137,19.836658,-1.2549734,3.8193367,-3.5589533,-0.26181436,87.72044,-0.025884213,0.52402633,-0.033637978,-0.1834384,0.04542642,-0.001613716,0.332506,0.109736525,0.3202313,0.13352977,0.05983796,0.17545475,0.097320765,0.22386718,275.19443,275.23322,276.52386,276.69995,0,0,0,0,0,0,0,0,0,0,0,0,0.25019675,0.31151232,0.36060444,0.45715562,0.25725278,0.35752523,0.37350622,0.5090263,0.008120928,-0.019205399,0.009180542,-0.013016889,164,6,231,2,0,-9507.593,111.88785,1868.7007,87.79299,752143.6,600.65137,124.73932,121.77489,123.86868,123.86868,0,1,369.50787,0,0,11.084014,11.084007,0,4,255,0,0,0,1,0,138,0
True,22467609,15999.99,0,11964.763,30.193459,3.2427804,4.1542993,-3.7878208,-0.1593523,87.966484,-0.016235312,0.2506245,-0.07477814,-0.14050303,0.041948482,-0.005608714,0.4811372,0.18540171,0.5049186,0.20047006,0.06446053,0.15487574,0.086263195,0.16793634,275.39,276.2052,276.4067,276.79953,0,0,0,0,0,0,0,0,0,0,0,0,0.32106125,0.38719213,0.32987434,0.43855187,0.3274683,0.41701826,0.34096688,0.4696066,0.02635298,-0.009923823,0.031138487,-0.0050581843,164,6,231,2,0,-9509.572,111.439186,1878.2982,88.04814,752328.3,600.49286,124.795456,121.85101,124.06855,124.06855,0,1,376.52933,0,0,11.195586,11.1955805,0,4,255,0,0,0,1,0,135,0
True,22467734,15999.99,0,11987.452,25.719429,1.7366624,3.863987,-2.5545397,-0.21175241,88.29447,-0.094931096,0.21698931,-0.07311934,-0.121725254,0.04046934,-0.01377027,0.5095043,0.17112848,0.46075782,0.14921147,0.058564592,0.12195629,0.08286013,0.13925774,275.97287,276.3898,277.1405,277.26547,0,0,0,0,0,0,0,0,0,0,0,0,0.42968747,0.52213216,0.23134838,0.29425722,0.43366015,0.5361859,0.24573945,0.32554576,0.029832676,-0.0116746705,0.0258881,-0.011152452,164,6,231,2,0,-9511.212,111.00994,1888.0499,88.33167,752153.7,599.11,124.88185,122.022964,124.18997,124.18997,0,1,383.32617,0,0,11.307829,11.307823,0,4,255,0,0,0,1,127,131,0
True,22467828,15999.99,0,12035.49,27.28738,5.964528,3.2593238,-2.5227094,-0.28150678,88.462456,-0.03225303,0.385316,-0.12796669,-0.0900504,0.031751093,-0.015843166,0.5810027,0.24494697,0.64821815,0.27714697,0.06980943,0.27168924,0.07817699,0.15004757,276.95758,279.87036,277.90375,277.50616,0,0,0,0,0,0,0,0,0,0.120000005,0,0,0.53641164,0.75814205,0.22094837,0.30773923,0.54093516,0.8053536,0.23437113,0.34237072,0.03860312,-0.0026196204,0.048175745,0.00405813,164,6,231,2,0,-9512.378,110.682106,1896.7554,88.49887,752586.94,597.3651,125.07092,122.189926,124.24042,124.24042,0,1,389.67416,0,0,11.407234,11.4072275,0,4,255,0,0,0,1,19,129,0
True,22467937,15999.99,0,12079.942,26.31344,3.529285,3.7238479,-3.6049418,-0.19258404,88.682205,-0.10798495,0.3906892,-0.07125341,-0.04231016,0.028642202,-0.021159958,0.5233754,0.2652495,0.5691906,0.23615016,0.08494872,0.08731954,0.12718643,0.1978988,278.68484,276.94086,280.1586,279.06512,0,0,0,0,0,0,0,0,0,0.120000005,0,0.120000005,0.2851665,0.28208336,0.32024488,0.41435418,0.29755035,0.29528922,0.3445768,0.45918766,0.031534187,-0.00012918562,0.03877996,-0.00081608444,164,6,231,2,0,-9513.397,110.35864,1906.9115,88.75566,751112.1,593.12354,125.1667,122.31118,124.3284,124.3284,-4.6754694,1,396.68848,0,0,11.522469,11.522464,0,4,255,0,0,0,1,0,129,0
True,22468062,15999.99,0,12107.015,27.734198,3.8987427,4.170315,-3.5187225,-0.035451412,88.951866,-0.006971196,0.23688339,0.04534814,-0.0041008336,0.026580913,-0.018690158,0.51169044,0.25628316,0.50326836,0.3557803,0.043745898,0.2507047,0.055306982,0.19882362,277.71356,281.5442,278.4741,280.71204,0,0,0,0,0,0,0,0,0,0.120000005,0,0.120000005,0.2741255,0.39910915,0.28808093,0.49216247,0.2775941,0.47131833,0.29334193,0.53080577,0.03010083,-0.0012290515,0.030942291,0.013407055,164,6,231,2,0,-9514.095,110.04374,1917.9741,89.02144,753133.6,594.82666,125.20506,122.393616,124.49409,124.49409,-4.6443806,1,404.5921,0,0,11.647235,11.647231,0,4,255,0,0,0,1,0,129,0
True,22468171,15999.99,0,12122.231,25.930977,4.7584634,3.7420912,-2.591381,-0.2772658,89.236435,-0.109201446,0.12922162,0.015285384,0.01626722,0.018278327,-0.017461188,0.52873653,0.25568163,0.55518115,0.29529518,0.056683004,0.09224528,0.094344094,0.13845812,278.98492,278.86963,280.85767,280.17035,0,0,0,0,0,0,0,0,0,0.120000005,0,0.120000005,0.22041447,0.14059584,0.2019491,0.28593874,0.22758625,0.16815582,0.22289965,0.31769738,0.032191813,-0.0013028383,0.037114337,0.006215818,164,6,231,2,0,-9514.356,109.81511,1927.5447,89.27448,751571.44,591.7216,125.23829,122.46144,124.6006,124.6006,-3.321745,1,411.16937,0,0,11.754669,11.754666,0,4,255,0,0,0,1,0,129,0
True,22468281,15999.99,0,12233.417,18.174192,2.8590937,2.7006993,-1.9442565,-0.33458018,89.454185,0.043260336,0.20747252,-0.15136643,0.031504847,0.014071251,-0.020487193,0.45643595,0.19598547,0.49635237,0.29561284,0.062469333,0.4222328,0.09169453,0.25563896,279.38058,286.43793,281.39096,283.2429,0,0,0,0,0,0,0,0,0,0.120000005,0,0.120000005,0.48156986,0.67551464,0.18348807,0.27322412,0.48560473,0.7966182,0.20512377,0.37416935,0.02332297,-0.008625552,0.03012003,0.006253589,164,6,231,2,0,-9514.36,109.63883,1937.4159,89.47593,753161.2,588.51196,125.28435,122.61776,124.62615,124.62615,-5.5546246,1,418.25113,0,0,11.865128,11.865125,0,3,255,0,0,0,1,120,129,0
True,22468390,15999.99,0,12211.915,24.24304,3.9277027,2.598298,-2.404069,-0.2032572,89.635956,-0.020901706,0.42460924,0.043264262,0.06676893,0.010495304,-0.017036745,0.4689894,0.28842434,0.50108725,0.18839435,0.082236744,0.34273428,0.12407713,0.08568467,281.07178,285.01773,282.45563,280.50137,0,0,0,0,0,0,0,0,0,0,0,0,0.6078008,0.8826489,0.23008968,0.18120311,0.61333895,0.9468558,0.2614123,0.20044059,0.024862856,0.0027135909,0.030682974,-0.0064938962,164,6,231,2,0,-9514.116,109.49485,1947.1621,89.66841,751703,587.509,125.53102,122.81357,124.68166,124.68166,-14.7,1,424.94894,0,0,11.973956,11.973953,0,3,255,0,0,0,1,123,129,69
True,22468515,15999.99,0,12262.004,23.917652,-1.1080103,3.2550457,-4.3766975,-0.17299461,89.74444,-0.011032606,0.50378567,-0.012223342,0.11859339,0.015113737,-0.025323072,0.48396808,0.24943884,0.5110348,0.25059605,0.10924904,0.2876298,0.10987328,0.23655818,281.95312,283.65576,283.22824,283.55347,0,0,0,0,0,0,0,0,0,0,0,0,0.77738047,0.9702008,0.4083965,0.52350384,0.7850196,1.0119389,0.42291826,0.5744702,0.026700236,-0.0020686202,0.031865664,0.0009014234,164,6,231,2,0,-9513.539,109.34464,1957.7697,89.85126,752115.1,585.65155,125.7464,123.083534,124.72778,124.72778,-14.7,1,432.5511,0,0,12.092329,12.092325,0,3,255,0,0,0,1,122,132,30
True,22468609,15999.99,0,12373.959,22.966232,-3.4533758,2.534472,-6.0321035,-0.06305599,89.6913,0.11246819,0.34076062,-0.0585683,0.16494808,0.020976167,-0.027136078,0.37071508,0.17803437,0.4351845,0.22363622,0.2361828,0.56982833,0.20159651,0.32406086,283.91928,289.36075,284.9553,285.64548,0,0,0,0,0,0,0,0,0,0,0,0,1.1368779,1.3211365,0.6326173,0.730363,1.1611519,1.4387863,0.6639622,0.79902786,0.012807898,-0.010827551,0.022847623,-0.0023038983,164,6,231,2,0,-9512.725,109.18772,1967.2072,89.893936,577460,445.78003,126.09377,123.46269,124.91169,124.91169,0,1,439.0584,0,0,12.197729,12.197727,0,3,201,0,0,0,1,122,138,0
True,22468718,15999.99,0,11376.289,26.224377,-1.3464301,-10.567835,-6.816516,0.24802315,88.27035,0.09154973,0.30075374,0.0014060158,0.20295554,0.027986504,-0.028048022,0.38992,0.15050147,0.37520197,0.12929992,-0.37176934,-0.46246418,-0.25984788,-0.35890135,264.7147,255.07158,265.53662,262.99164,0,0,0,0,0,0,0,0,0,0,0,0,1.0863822,1.3313203,0.6463735,0.80926245,1.1482328,1.409357,0.6966489,0.88527733,0.015163697,-0.01420491,0.015716147,-0.013519786,164,6,231,2,0,-9511.699,108.97995,1976.4111,88.53349,751394.8,629.87726,127.17955,124.40164,125.1605,125.1605,0,1,445.6905,0,0,12.301303,12.301301,0,3,255,255,0,0,1,127,146,129
True,22468828,15999.99,0,11943.87,26.753962,-1.8892646,-5.924099,-7.0573454,0.43299603,87.035995,0.020213041,0.25887436,-0.01547358,0.24022396,0.034215078,-0.027913574,0.39435124,0.1704161,0.3163402,0.09050917,0.119713105,0.31339085,0.15747249,0.2769571,274.00616,277.05768,275.5714,276.4353,0,0,0,0,0,0,0,0,0,0,0,0,0.6846242,0.8147742,0.68301964,0.86055887,0.6950119,0.8729667,0.7009375,0.90402806,0.015707262,-0.011762053,0.008717921,-0.01813172,164,6,231,2,0,-9510.246,108.72341,1986.5692,87.322716,752793.44,602.24347,127.90266,125.050026,125.4934,125.4934,0,1,452.73807,0,0,12.418347,12.418346,0,3,255,0,0,0,1,0,155,0
True,22468953,15999.99,0,11920.209,32.279034,1.3548613,2.684701,-5.869524,-0.04281199,87.29187,-0.11856116,0.17420362,0.07558659,0.26476982,0.028134502,-0.024035215,0.45872235,0.22848977,0.41049698,0.16706428,0.07318367,0.25848657,0.103338555,0.1948614,273.55197,276.90323,274.96094,275.69104,0,0,0,0,0,0,0,0,0,0,0,0,0.49461347,0.66586035,0.47688574,0.64254904,0.49999833,0.71427256,0.48795375,0.6714464,0.023603432,-0.0046383664,0.019912463,-0.009029884,164,6,231,2,0,-9508.654,108.467964,1995.4847,87.48899,752205,602.5677,128.0783,125.17514,125.817474,125.817474,0,1,459.18317,0,0,12.522019,12.522018,0,3,255,0,0,0,1,0,164,0
True,22469046,15999.99,0,11941.078,28.076088,-0.41227168,3.9326394,-3.2034569,-0.21084166,87.67106,-0.021669239,-0.04682886,-0.029475205,0.26950184,0.02656136,-0.026241262,0.4140672,0.17318961,0.46312392,0.20199314,0.075717814,0.151892,0.1303211,0.17804486,274.03656,275.90872,275.79443,276.6186,0,0,0,0,0,0,0,0,0,0,0,0,0.30798775,0.36438227,0.2858441,0.35291404,0.3171587,0.3947729,0.31415033,0.39528254,0.018125746,-0.011421839,0.026169412,-0.0048771016,164,6,231,2,0,-9506.621,108.21455,2004.6877,87.72981,752124.4,601.3604,128.14648,125.25046,126.008316,126.008316,-3.3023882,1,465.65704,0,0,12.629676,12.629674,0,3,255,0,0,0,1,0,172,0
True,22469171,15999.99,0,11934.651,15.660199,4.9477444,3.542198,-0.40168762,-0.24654657,88.12044,-0.047721207,-0.089356355,-0.09671251,0.2596034,0.018453753,-0.034336902,0.44079185,0.26760742,0.500323,0.3042942,0.063053355,0.06865474,0.0849187,0.08089255,274.90778,275.445,275.75757,275.9777,0,0,0,0,0,0,0,0,0,0,0,0,0.056327105,0.058202103,0.015428143,0.03228877,0.084548615,0.09000532,0.08630882,0.08709861,0.02140396,0.00016005337,0.030592106,0.00728574,164,6,231,2,0,-9504.045,107.95382,2014.9083,88.1217,752337.5,602.0352,128.06537,125.20581,126.0076,126.0076,-7.903129,1,473.08063,0,0,12.749578,12.749576,0,3,255,0,0,0,1,0,182,0
True,22469281,15999.99,0,11975.236,4.3291435,4.271613,3.0179803,0.2509899,-0.25208533,88.44855,-0.08374614,0.05243911,-0.06076544,0.2555828,0.01365041,-0.043927368,0.4216324,0.31907192,0.4102795,0.30760044,0.055495482,0.062987864,0.07536699,0.08234607,276.08914,276.02887,276.86365,276.80533,0,0,0,0,0,0,0,0,0,0,0,0,0.14768647,0.15410635,-0.020689664,-0.015413381,0.15776895,0.16648194,0.078155264,0.083776176,0.019053742,0.0064730197,0.019886605,0.0076788254,164,6,231,2,0,-9501.692,107.77596,2023.8846,88.44926,752294.5,599.9339,127.91579,125.13112,125.9485,125.9485,0,1,479.4438,0,0,12.854704,12.8547,0,3,255,0,0,0,1,122,196,0
True,22469390,15999.99,0,12011.352,6.687785,6.9845343,3.0388076,-0.46056938,-0.18413734,88.75555,-0.11395733,0.16532038,-0.021089923,0.27338144,0.0066128224,-0.04625401,0.50633395,0.43973354,0.48221263,0.39873216,0.048124067,0.05294251,0.0629914,0.08131739,277.20078,276.52472,277.81918,277.55066,0,0,0,0,0,0,0,0,0,0,0,0,0.019488446,0.019416496,0.044056755,0.061869938,0.051920377,0.056390688,0.076869465,0.102178305,0.029443778,0.021274142,0.028438918,0.01851371,164,6,231,2,0,-9499.1875,107.651306,2033.1587,88.756935,752299.25,598.1358,127.807495,125.06024,125.85233,125.85233,0,1,486.13333,0,0,12.963133,12.963128,0,3,255,0,0,0,1,0,217,0
True,22469500,15999.99,0,12049.506,7.552696,7.0581713,2.979019,-0.5510063,-0.14557356,89.028755,-0.14704473,0.08041679,0.019210573,0.2828544,-0.0005286839,-0.045611966,0.5278732,0.47862285,0.48665974,0.4354566,0.04516485,0.05303958,0.06722944,0.080335066,277.79797,277.60315,278.62506,278.55396,0,0,0,0,0,0,0,0,0,0,0,0,0.116395995,0.12269583,0.042302255,0.06601285,0.12485148,0.13366924,0.07943097,0.10397798,0.032085918,0.026044555,0.028967649,0.022879973,164,6,231,2,0,-9496.908,107.61313,2041.3256,89.03058,752242.75,596.16943,127.66633,124.94199,125.77754,125.77754,-8.041626,1,491.9145,0,0,13.058517,13.058513,0,3,255,0,0,0,1,83,241,0
True,22469609,15999.99,0,11555.715,12.267063,3.3123214,-8.333614,-1.221035,0.07158613,88.25817,0.07438519,0.32868814,0.06884229,0.30743772,-0.0028310968,-0.04179189,0.48776656,0.4316957,0.49805364,0.4432958,-0.40843722,-0.13622917,-0.19217457,-0.19988863,261.33295,268.43915,268.57693,267.32025,0,0,0,0,0,0,0,0,0,0,0,0,0.5317216,0.61291116,0.13692278,0.17763604,0.670484,0.6278682,0.23596379,0.2674136,0.02716618,0.02028817,0.030322298,0.023811996,164,6,231,2,0,-9494.034,107.64877,2051.1333,88.26665,649005.1,536.14856,127.615524,124.893555,125.68349,125.68349,-14.7,1,498.87805,0,0,13.173393,13.1733885,0,3,194,255,0,0,1,127,13,234
True,22469734,15999.99,0,11112.499,19.460379,-0.012906551,-19.931807,-3.397316,0.4642055,85.53882,0.071462184,0.4593448,0.07629472,0.35861263,0.003743538,-0.031251106,0.42645386,0.3745227,0.3634787,0.27523828,-0.19510037,-0.23905985,-0.32912588,-0.38755226,260.31693,256.9292,256.75302,254.37523,0,0,0,0,0,0,0,0,0,0,0,0,0.86873084,1.0014517,0.40148598,0.45875698,0.89036924,1.0295899,0.5191482,0.60054535,0.019645173,0.013274964,0.014322333,0.003831204,164,6,231,2,0,-9490.972,107.68789,2060.811,85.60751,573555.75,492.70468,127.882126,125.033676,125.7438,125.7438,-14.7,1,505.79318,0,0,13.290244,13.290236,0,3,255,255,0,0,1,127,41,231
True,22469828,15999.99,0,11680.974,18.236761,-4.719868,-5.9247694,-5.88076,0.25048548,84.8708,-0.021410711,0.5468272,0.10178192,0.40644842,0.009009183,-0.023334607,0.34260097,0.32441926,0.24756803,0.20010872,0.14857586,0.3493295,0.1875313,0.3472012,267.982,269.75986,269.94327,270.55826,0,0,0,0,0,0,0,0,0,0,0,0,0.87508595,1.0367641,0.6569637,0.77298,0.88760924,1.0940343,0.6832052,0.8473764,0.009359244,0.0071289577,0.00054141507,-0.0051011443,164,6,231,2,0,-9488.32,107.677704,2068.6133,85.07466,752704.56,615.6899,128.09969,125.26074,125.8681,125.8681,-14.7,1,511.4173,0,0,13.386964,13.386956,0,3,255,0,0,0,1,1,60,107
True,22469953,15999.99,0,11733.491,23.338715,-2.7370572,3.0304284,-7.610733,-0.10397577,84.94347,-0.034303084,0.3741311,0.18175645,0.46010658,0.007757177,-0.0066810963,0.24485739,0.21343082,0.26785666,0.21699803,0.14665186,0.45660686,0.1960365,0.34231025,268.54462,273.4498,270.55942,271.37976,0,0,0,0,0,0,0,0,0,0,0,0,0.70513654,0.8855993,0.72459453,0.8956815,0.7202252,0.99638146,0.75064474,0.9588648,-0.00263061,-0.0064855926,0.0029535815,-0.003093131,164,6,231,2,0,-9484.855,107.6096,2077.9946,85.2838,740931.25,602.9389,128.3919,125.44516,126.26541,126.26541,-14.7,1,518.26294,0,0,13.504387,13.504379,0,3,255,0,0,0,1,1,78,113
True,22470046,15999.99,0,11764.412,25.37217,-1.323882,4.274761,-7.5936356,-0.26569158,85.07676,0.016294818,0.221234,0.15103641,0.4902514,0.0052737757,0.008995122,0.22730908,0.2098092,0.28008276,0.23466095,0.21484417,0.50493664,0.22255826,0.34876347,269.3392,274.24402,271.12762,272.15298,0,0,0,0,0,0,0,0,0,0,0,0,1.0805745,1.2753544,0.7564721,0.9120871,1.1017256,1.3716741,0.7885317,0.9764931,-0.0047831982,-0.0069298446,0.0044071786,-0.00099314,164,6,231,2,0,-9481.632,107.535904,2085.904,85.41539,703236.7,570.95544,128.75055,125.67821,126.68094,126.68094,-14.7,1,524.1216,0,0,13.604456,13.604447,0,3,255,0,0,0,1,122,86,115
True,22470156,15999.99,0,11803.117,20.998642,-3.3471475,3.1065578,-6.9164524,-0.32093692,85.250046,0.01649483,0.14831546,0.1076355,0.5099772,0.007563424,0.024040159,0.1941167,0.14200403,0.25969827,0.15720092,0.23734647,0.5107093,0.25003797,0.38593268,269.83002,274.68112,272.10175,273.43164,0,0,0,0,0,0,0,0,0,0,0,0,1.1819599,1.3950307,0.6961783,0.8484317,1.2055548,1.4855756,0.7397184,0.9320839,-0.008854788,-0.015247261,0.0019836128,-0.010202564,164,6,231,2,0,-9477.727,107.42731,2094.754,85.53076,669705.5,541.7693,130.08588,126.87665,127.05725,127.05725,-14.7,1,530.7641,0,0,13.717645,13.717637,0,3,255,0,0,0,1,124,90,119
True,22470281,15999.99,0,11763.627,23.79728,-2.0682914,3.8615994,-5.354782,-0.34319854,85.59214,0.016368598,0.039898958,0.16342917,0.52408135,0.007804142,0.03951316,0.18296503,0.15705074,0.24914531,0.23172277,0.12342809,0.33860093,0.19002037,0.2916369,268.99963,273.439,271.27844,272.56537,0,0,0,0,0,0,0,0,0,0,0,0,0.5323919,0.63678914,0.5172498,0.63379407,0.54651225,0.72121495,0.5510491,0.6976726,-0.010222722,-0.013401534,0.00072894245,-0.001342468,164,6,231,2,0,-9473.536,107.293884,2103.5261,85.76016,752279.1,610.66547,130.9453,127.6264,127.39247,127.39247,-14.7,1,537.44116,0,0,13.8311825,13.831176,0,2,255,0,0,0,1,0,88,122
True,22470390,15999.99,0,11698.177,23.124947,0.20642948,4.1516867,-1.9944153,-0.40017295,86.10797,-0.007567402,-0.1680785,0.107206024,0.5162441,0.0062234933,0.055297736,0.26618168,0.19257864,0.3055028,0.24054235,0.07332972,0.12617238,0.11187716,0.12813295,268.69547,270.56754,270.0812,270.82196,0,0,0,0,0,0,0,0,0,0,0,0,0.2225541,0.25220808,0.17093012,0.19876412,0.23432365,0.28200778,0.20428804,0.23648515,-1.4837831E-05,-0.009043455,0.0074294284,-0.00029388443,164,6,231,2,0,-9469.06,107.16264,2112.1462,86.131996,752275.5,614.1098,131.02005,127.619644,127.59364,127.59364,-14.7,1,544.10596,0,0,13.944213,13.944206,0,2,255,0,0,0,1,0,79,125
True,22470500,15999.99,0,11738.143,6.7293806,-1.2420723,3.4313514,0.15864182,-0.3879664,86.51077,-0.0056449682,-0.12825911,0.01916728,0.4980713,0.008554433,0.06239904,0.21792465,0.2244906,0.2945645,0.29261783,0.081069745,0.078670494,0.12136447,0.10354877,270.1715,270.7155,271.3662,271.5029,0,0,0,0,0,0,0,0,0,0,0,0,0.0034422558,0.0036926286,-0.031070232,-0.0307055,0.08114279,0.07875711,0.12527846,0.10800545,-0.00593435,-0.0051289313,0.006128948,0.0058975033,164,6,231,2,0,-9464.4375,107.04589,2120.6296,86.51178,752220.1,611.92725,130.92035,127.49112,127.57297,127.57297,-14.7,1,550.72473,0,0,14.056136,14.056129,0,2,255,0,0,0,1,0,66,127
True,22470609,15999.99,0,11066.119,-0.547142,0.17616284,-15.098912,0.32016373,-0.00549984,84.98185,0.081356645,0.0658389,0.070805594,0.49420062,0.0111467065,0.06575555,0.2575656,0.32629952,0.25666314,0.29308116,-0.35784286,-0.33230278,-0.25131476,-0.25473103,253.22156,253.44281,256.90115,256.64914,0,0,0,0,0,0,0,0,0,0,0,0,0.12813295,0.12846482,-0.029775467,-0.030850194,0.38009155,0.35627005,0.2530725,0.25659236,-0.00107174,0.0073596016,0.0016227588,0.005952589,164,6,231,2,0,-9459.809,106.93999,2129.136,84.98245,600843.6,518.3223,130.8352,127.39662,127.525635,127.525635,-14.7,1,557.3632,0,0,14.1685705,14.168565,0,1,125,255,0,0,1,62,54,254
True,22470703,15999.99,0,10687.084,7.0744905,0.7683563,-26.250937,-0.32702255,0.47706008,82.22949,0.007869542,0.2931073,0.15875654,0.5117863,0.014313754,0.077528805,0.29418853,0.39722386,0.23246466,0.27130073,-0.31705934,-0.42644757,-0.21971373,-0.25479499,245.44397,241.72221,249.44212,247.67757,0,0,0,0,0,0,0,0,0,0,0,0,0.4338545,0.47563356,0.06447248,0.07110961,0.53736055,0.63881516,0.22897778,0.26453176,0.0034206621,0.016059633,-0.0012542643,0.003363058,164,6,231,2,0,-9455.996,106.85999,2136.0854,82.23152,219972.3,196.3971,130.86139,127.39042,127.517334,127.517334,-14.7,1,562.7957,0,0,14.263413,14.263407,0,1,98,255,0,0,1,126,43,246
True,22470812,15999.99,0,10064.921,17.076094,2.17724,-27.038343,-2.1634293,0.68325067,78.94901,-0.012165885,0.54874456,0.0797777,0.5598039,0.007844392,0.09398996,0.47369665,0.42290607,0.30829903,0.27425545,-0.47972605,-0.29954034,-0.23874809,-0.7908282,231.4236,236.086,239.56049,223.91116,0,0,0,0,0,0,0,0,0,0,0,0,0.64065593,0.7389207,0.2975457,0.34978494,0.8003606,0.7973257,0.3814893,0.8647305,0.025440276,0.019209977,0.0077618845,0.0037143528,164,6,231,2,0,-9451.466,106.81847,2144.0044,78.9816,-105573.984,-100,131.03079,127.47806,127.55884,127.55884,-14.7,1,569.0433,0,0,14.376742,14.376735,0,1,0,255,0,0,1,126,25,226
True,22470937,15999.99,0,9658.759,27.52544,4.6907225,-26.434645,-4.9075546,0.72315025,75.56879,-0.0026000105,0.6549689,0.0416551,0.6336175,-0.006056368,0.10463197,0.61819905,0.4407812,0.41648614,0.24998945,-0.45783672,-0.43276846,-0.21043922,-0.6382547,225.25107,221.68266,229.29675,216.39651,0,0,0,0,0,0,0,0,0,0,0,0,0.9787694,1.2043005,0.5554912,0.707708,1.0805572,1.2796985,0.59401613,0.9530056,0.043165863,0.021402657,0.02062453,0.0008293055,164,6,231,2,0,-9446.899,106.8431,2151.4702,75.73143,-101217.875,-100,131.44829,127.83072,127.74121,127.74121,-14.7,1,575.01294,0,0,14.489944,14.489936,0,1,0,255,0,0,1,126,4,191
True,22471062,15999.99,0,8990.108,28.9532,3.7493563,-22.394873,-8.455828,0.6369815,72.254166,-0.08976685,0.7613928,0.057488374,0.724102,-0.020089822,0.10689252,0.6425614,0.41097978,0.43611872,0.19703662,-0.5785153,-0.29910055,-0.2994304,-1.1818193,207.46964,213.96799,217.13248,194.76244,0,0,0,0,0,0,0,0,0,0,0,0,1.19677,1.522058,0.9253678,1.2204611,1.3292624,1.5511678,0.97260684,1.6988885,0.046154298,0.017747022,0.022958696,-0.005466394,164,6,231,2,0,-9441.608,106.94209,2159.4458,72.75005,-94392.48,-100,133.70505,129.83981,128.81856,128.81856,-14.7,1,581.53827,0,0,14.618611,14.618604,0,1,0,255,0,0,1,122,231,147
True,22471156,15999.99,0,8364.144,24.340225,1.2855533,-17.906229,-11.286669,0.6406696,69.53905,-0.059972476,0.7446479,-0.044566695,0.7990953,-0.029122224,0.10300989,0.5659856,0.33117005,0.41520217,0.2160122,-0.7582095,-0.86491084,-0.93146724,-1.086635,199.03284,193.88863,194.3895,188.37827,0,0,0,0,0,0,0,0,0,0,0,0,1.5425845,1.9450738,1.4152591,1.701604,1.718851,2.1287045,1.6942815,2.018968,0.03676103,0.007957052,0.020471875,-0.0032103397,164,6,231,2,0,-9437.119,107.08998,2165.6858,70.451965,-87651.086,-100,136.97012,132.64474,131.12523,131.12523,-14.7,1,586.753,0,0,14.726056,14.726049,0,1,0,255,0,0,1,121,205,129
True,22471281,15999.99,0,7945.2817,24.869106,2.1885047,-16.324703,-13.934185,0.9778855,66.392845,0.063076474,0.62579095,-0.11195356,0.8807591,-0.03645235,0.09585663,0.5134281,0.2983492,0.3710438,0.1545727,-0.6159559,-0.6100124,-0.7626399,-1.7819976,191.9127,189.17702,187.78781,171.5687,0,0,0,0,0,0,0,0,0,0,0,0,2.2788506,2.3940015,1.7498626,2.3239567,2.3606274,2.4704976,1.9088317,2.9285305,0.030313984,0.003931038,0.015221767,-0.010515042,164,6,231,2,0,-9432.145,107.30845,2172.1345,67.84635,-80973.266,-97.17564,142.4714,137.0467,136.458,136.458,-14.7,1,592.6364,0,0,14.844065,14.844059,0,1,0,255,0,0,1,121,183,136
True,22471375,15999.99,0,7677.539,19.107676,-0.79091644,-11.963187,-16.762457,0.77194643,64.1215,-0.08789297,0.76246053,0.004037138,0.9493843,-0.042994834,0.09231551,0.4706947,0.28130034,0.30513734,0.12534156,-0.6442623,-0.93683255,-0.7638003,-1.4775268,178.59207,175.93684,185.04332,169.62302,0,0,0,0,0,0,0,0,0,0,0,0,2.23609,2.9054372,2.3120298,2.7041154,2.327052,3.0527399,2.4349277,3.0814486,0.025072038,0.001839716,0.0073859803,-0.013990406,164,6,231,2,0,-9427.882,107.50608,2177.3748,66.280785,-75445.61,-93.77753,148.12605,142.17805,141.30411,141.30411,-14.7,1,597.3006,0,0,14.944818,14.944812,0,1,0,255,0,0,1,123,180,133
True,22471500,15999.99,0,7161.1167,21.639843,1.9211409,-11.780718,-19.59075,0.66941357,61.018005,0.009910125,0.7226822,-0.04025892,1.0346674,-0.05585752,0.083287366,0.4566481,0.25915253,0.37171444,0.18407272,-0.4494127,-0.9376047,-1.184475,-1.7608187,177.68321,166.1089,167.55635,156.16322,0,0,0,0,0,0,0,0,0,0,0,0,3.0021262,3.375242,2.8213007,3.2892957,3.035578,3.5030503,3.059856,3.7309446,0.023348995,-0.0008770749,0.015301503,-0.007007707,164,6,231,2,0,-9422.999,107.76672,2183.0586,64.08933,-65306.08,-87.16441,157.39566,149.19275,149.97154,149.97154,-14.7,1,603.4418,0,0,15.0599785,15.059973,0,1,0,255,0,0,1,123,219,129
True,22471593,15999.99,0,6893.556,24.847887,4.296396,-11.474052,-21.735271,0.77663124,58.140903,-0.046213467,0.7636425,-0.01417369,1.1109501,-0.066241436,0.074630566,0.54421395,0.34559363,0.4248105,0.21022636,-0.7673106,-0.9445785,-0.9303853,-1.289188,159.33495,158.34001,161.42706,157.37535,0,0,0,0,0,0,0,0,0,0,0,0,3.5165203,3.8603625,3.1265168,3.6619594,3.599261,3.9742455,3.2620122,3.8822613,0.034090377,0.009726342,0.021614231,-0.0038982332,164,6,231,2,0,-9418.716,108.04044,2187.7666,62.075676,-61775.97,-85.07193,166.25067,155.7746,158.55533,158.55533,-14.7,1,607.4768,0,0,15.161001,15.160996,0,1,0,255,0,0,1,123,21,129
True,22471718,15999.99,0,6338.599,21.946838,3.3368511,-10.088972,-24.702225,0.70297635,54.51019,-0.0890776,0.7958544,0.008607246,1.2086936,-0.08215386,0.07078423,0.48304287,0.2981702,0.36904553,0.19985041,-0.50654155,-1.2502338,-1.4435656,-1.0813488,157.56305,143.34145,141.90051,146.47586,0,0,0,0,0,0,0,0,0,0,0,0,3.88886,4.69264,3.5533829,4.389307,3.921711,4.8563313,3.8354154,4.5205455,0.026586741,0.003909081,0.01498419,-0.0051318556,164,6,231,2,0,-9413.427,108.44003,2193.248,59.850266,-52159.58,-77.9374,175.58243,163.41772,167.98863,167.98863,-14.7,1,610.8502,0,0,15.286123,15.2861185,0,1,0,255,0,0,1,123,114,129
True,22471828,15999.99,0,5894.7974,17.234426,0.43834478,-7.6211457,-27.011597,0.6324084,51.698215,0.001570614,0.7224982,-0.02467842,1.2831441,-0.09062265,0.06605802,0.3697957,0.20722085,0.36097887,0.1821336,-0.7044478,-1.4950033,-1.6904062,-1.1848812,143.33499,129.5761,131.16936,140.7616,0,0,0,0,0,0,0,0,0.120000005,0.120000005,0,0,3.593872,4.5796547,4.4994454,4.938491,3.662262,4.817497,4.8065042,5.078645,0.0126951225,-0.0072473474,0.014025122,-0.007238254,164,6,231,2,0,-9409.317,108.78281,2197.298,58.33294,30999.164,50.101112,180.09636,167.93835,174.87794,174.87794,-14.7,1,613.6587,0,0,15.383999,15.383994,0,1,93,255,0,0,1,123,127,134
True,22471921,15999.99,0,6774.978,15.019831,-0.29779458,-5.0212984,-29.278988,0.6889584,48.986088,0.04918584,0.6897684,0.068238795,1.3586042,-0.096735,0.06481165,0.14363751,0.14821872,0.21863979,0.1813109,0.11273941,0,0.055588413,0.10213326,155.32042,155.20825,156.84877,157.37941,0,0,0,0,0,0,0,0,0.120000005,0,0.120000005,0.120000005,1.9238633,0,1.838206,1.8634906,1.9271637,0,1.8390464,1.8662874,-0.015046887,-0.014484929,-0.0028979369,-0.007336065,164,6,231,2,0,-9404.959,109.154976,2201.44,57.073376,444633.53,629.15485,180.53635,168.64935,175.78197,175.78197,-14.7,1,616.6391,0,0,15.488577,15.488572,0,1,255,0,0,0,1,123,127,0
True,22472031,15999.99,0,8436.242,3.2076583,-10.096993,-2.7610726,-32.797165,-0.19783258,46.349716,0.106502816,0.657,-0.052874267,1.4367721,-0.090803914,0.053828467,0.03558838,0.03929634,0.05855277,0.06320938,0,0,0,0,193.20273,193.20555,195.80144,195.62,0,0,0,0,0,0,0,0,0,0,0,0,0,0,0,0,0,0,0,0,-0.028300885,-0.027846042,-0.021931099,-0.021377463,164,6,231,2,0,-9400.135,109.496864,2205.9329,56.780178,755412,858.6317,177.40898,165.85355,173.23495,173.23495,-14.7,1,619.9341,0,0,15.604591,15.604587,0,1,255,0,0,0,1,17,127,0
True,22472156,15999.99,0,8360.154,16.203276,5.0327325,5.569066,-34.58033,0.2325362,44.202248,-0.05029362,0.7137393,0.0701521,1.5149869,-0.09252325,0.041919887,0.12834081,0.085314155,0.12420341,0.060205787,0.93654144,1.1341558,0.9914848,1.1380225,189.44164,194.1645,192.71901,194.80284,0,0,0,0,0,0,0,0,0.120000005,0.120000005,0.120000005,0.120000005,2.0970683,2.175451,2.154557,2.2521288,2.2966945,2.4533439,2.3717415,2.523327,-0.016923279,-0.022201203,-0.014125723,-0.021734567,164,6,231,2,0,-9395.428,109.75179,2210.2185,56.122116,335020.3,382.08746,176.12172,164.76906,172.29517,172.29517,-14.7,1,623.1446,0,0,15.717305,15.717299,0,1,255,0,0,0,1,0,127,7
True,22472265,15999.99,0,8125.6753,17.990368,8.037128,7.8301787,-36.04872,0.5665908,42.028275,-0.1601893,0.756692,-0.2592857,1.5966495,-0.10329975,0.028249726,0.6567675,0.3026447,0.5262964,0.14854458,0.2669408,0.52157885,1.0609941,1.2148119,182.59381,188.81366,188.46468,188.96687,0,0,0,0,0,0,0,0,0.120000005,0.120000005,0.120000005,0.120000005,0.86367863,1.1854845,2.2757647,2.388986,0.90399015,1.2951518,2.5109386,2.6801162,0.047896914,0.0044579506,0.03368015,-0.011231739,164,6,231,2,0,-9390.645,110.12509,2214.2773,55.37334,486401.5,570.66797,174.79074,163.93256,172.42033,172.42033,-14.7,1,623.84875,0,0,15.83008,15.830074,0,1,255,0,0,0,1,-127,127,10
True,22472359,15999.99,0,7709.6807,21.102486,18.628246,11.443074,-36.605423,0.35658938,40.70359,-0.09288333,0.59183156,-0.2838599,1.6645176,-0.12823847,-0.014349457,0.78225607,0.67931443,0.9464006,0.8503192,0.21922162,0.22127752,0.8769246,1.1043941,183.33942,178.24307,176.01266,177.1263,0,0,0,0,0,0,0,0,0.120000005,0.120000005,0.120000005,0.120000005,-0.13355118,0.606476,2.2588847,2.4713507,0.25669834,0.6455826,2.4231296,2.7068913,0.06329014,0.050662667,0.08362743,0.07220407,164,6,231,2,0,-9386.454,110.6188,2217.5464,54.74364,597957.7,741.3172,172.48842,162.23367,173.1183,173.1183,-14.7,1,626.3802,0,0,15.927025,15.927018,0,1,255,0,0,0,1,-127,127,0
True,22472484,15999.99,0,8654.909,6.363092,-4.249429,1.4883819,-38.240734,-0.07432845,38.535946,0.17303479,0.47893137,0.0022227857,1.7224491,-0.111684665,-0.029612454,0.12340694,0.123513035,0.19967163,0.21331872,0,0,0,1.8430465,198.68182,198.49854,200.53172,200.62636,0,0,0,0,0,0,0,0,0,0,0,0.120000005,0,0,0,2.701245,0,0,0,3.2700987,-0.017528499,-0.017515484,-0.005153112,-0.003530573,164,6,231,2,0,-9381.452,111.294624,2221.2434,54.289764,692274.9,766.6737,169.99664,160.26561,172.86322,172.86322,-14.7,1,629.4283,0,0,16.041908,16.041903,0,1,255,0,0,0,1,-127,127,0
True,22472593,15999.99,0,9972.871,2.496876,-9.306724,0.44064146,-40.062874,-0.7425505,36.261322,-0.003985724,0.47794828,-0.044730358,1.7777809,-0.09265369,-0.036679078,0.037201066,0.038978748,0.065824844,0.06808369,0.82815325,1.1490011,0,0,217.22597,224.04457,235.56755,235.54384,0,0,0,0,0,0,0,0,0.120000005,0.120000005,0,0,0.5578088,1.1361502,0,0,0.9984931,1.6158717,0,0,-0.028103061,-0.027885001,-0.021066504,-0.020797944,164,6,231,2,0,-9376.395,111.8309,2224.9587,54.041363,676421.56,648.0291,167.46632,158.07266,169.89659,169.89659,-14.7,1,632.50336,0,0,16.158304,16.158298,0,1,255,0,0,0,1,127,127,0
True,22472703,15999.99,0,8898.453,13.4671135,5.6279845,8.4567,-40.369026,-0.17910549,35.217224,-0.052407093,0.41019168,0.026354838,1.8343354,-0.10840915,-0.033946697,0.48235324,0.458288,0.5371408,0.5207119,1.6365392,1.9669735,2.1553724,2.3290703,202.3452,211.58911,203.43259,205.99727,0,0,0,0,0,0,0,0,0.120000005,0.120000005,0.120000005,0.120000005,2.3798363,2.474271,2.7550583,2.8368552,2.8882315,3.1608546,3.497996,3.6704655,0.026502147,0.023550153,0.03496947,0.033016197,164,6,231,2,0,-9371.054,112.37443,2228.723,53.571846,376707.34,403.35437,166.60916,158.01913,170.25618,170.25618,-14.7,1,635.76556,0,0,16.27999,16.279985,0,1,255,0,0,0,1,127,127,0
True,22472812,15999.99,0,8484.845,13.849199,4.1795154,6.1626806,-40.300087,0.23436254,34.281998,0.047070198,0.3790942,-0.0007026745,1.8715588,-0.105908215,-0.038028803,0.6008875,0.5231691,0.6343706,0.56581515,2.2248423,2.4404268,2.1139925,2.2971368,193.10553,197.07796,196.0815,196.75725,0,0,0,0,0,0,0,0,0.120000005,0.120000005,0.120000005,0.120000005,2.9211702,2.9756045,2.844133,2.924186,3.6719422,3.848364,3.5437348,3.7185616,0.041042313,0.031508878,0.046529375,0.03837864,164,6,231,2,0,-9366.847,112.87102,2231.488,52.909424,382840,430.5003,167.42119,158.84824,171.20818,171.20818,-14.7,1,638.3898,0,0,16.375027,16.375021,0,1,255,0,0,0,1,127,127,0
True,22472921,15999.99,0,8677.195,8.17563,-2.8398657,2.2031412,-40.78204,0.22650719,32.821808,0.047778822,0.37686804,0.030188408,1.9131747,-0.09758351,-0.03933092,0.39144468,0.39142242,0.3573461,0.3605521,2.8557916,3.045895,2.5386646,2.6441493,197.99881,199.82507,201.2898,201.10625,0,0,0,0,0,0,0,0,0.120000005,0.120000005,0.120000005,0.120000005,3.1763487,3.224437,3.024309,3.062083,4.2713857,4.435591,3.9485774,4.0457234,0.0153507255,0.015347995,0.013593212,0.0139743835,164,6,231,2,0,-9361.895,113.4622,2234.5994,52.349754,389341,429.02545,168.04733,159.62196,171.56598,171.56598,-11.76,1,641.4594,0,0,16.486807,16.486801,0,1,255,0,0,0,1,127,127,0
True,22473031,15999.99,0,8937.43,6.597347,-4.331646,2.483226,-41.426304,-0.13270144,31.32382,-0.0028573787,0.39468208,0.031940106,1.9532796,-0.09556517,-0.03994355,0.22485223,0.25173953,0.31625485,0.31555536,3.371997,3.5558288,2.863521,3.0277863,205.96164,206.78171,206.09828,206.74968,0,0,0,0,0,0,0,0,0.120000005,0.120000005,0.120000005,0.120000005,3.271049,3.318629,3.0614576,3.1291175,4.697885,4.8638687,4.19193,4.354178,-0.0050845705,-0.0017864034,0.008707769,0.00862461,164,6,231,2,0,-9357.384,113.942276,2237.3696,51.935898,393063.3,419.9254,168.57538,160.32483,171.69223,171.69223,-11.76,1,644.2585,0,0,16.588722,16.588717,0,1,255,0,0,0,1,127,127,0
True,22473156,15999.99,0,8992.803,7.900769,-3.1521895,2.0852733,-41.82722,-0.11801086,29.862312,0.060540967,0.37222177,0.025351368,1.9964767,-0.08749389,-0.040333662,0.03934285,0.04582203,0.098217994,0.116096504,3.648643,3.9416776,3.2133887,3.370328,204.69562,208.20157,208.18318,208.52242,0,0,0,0,0,0,0,0,0.120000005,0.120000005,0.120000005,0.120000005,3.3488564,3.4095,3.1773705,3.2319129,4.952518,5.2116704,4.519021,4.669515,-0.027840337,-0.02704556,-0.017215198,-0.015089575,164,6,231,2,0,-9352.266,114.44577,2240.413,51.39346,401645.16,426.53732,169.34833,161.20322,172.35753,172.35753,-11.76,1,647.4423,0,0,16.704422,16.704418,0,1,255,0,0,0,1,127,127,0
True,22473265,15999.99,0,8947.065,8.46346,-2.1492267,3.6056118,-42.119476,-0.112801224,28.459106,0.030703237,0.3801519,0.04420292,2.0396974,-0.079052456,-0.042005748,0,0,0.010603404,0.027757898,3.9024293,4.240098,3.45683,3.6547353,202.65698,206.6896,207.55545,207.81535,0,0,0,0,0,0,0,0,0.120000005,0.120000005,0.120000005,0.120000005,3.417835,3.4807744,3.2466183,3.3140993,5.1875377,5.4858203,4.742384,4.9335933,-0.03266638,-0.03266638,-0.027631924,-0.025592381,164,6,231,2,0,-9347.13,114.911125,2243.3542,50.8329,406575.4,433.71982,170.32167,161.11374,172.95636,172.95636,-11.76,1,650.64624,0,0,16.820559,16.820553,0,1,255,0,0,0,1,127,127,0
True,22473359,15999.99,0,8842.683,8.911293,-1.7682096,3.603069,-42.314598,-0.07334016,27.241959,0.029708423,0.3817059,0.023370087,2.0783055,-0.07584413,-0.041257296,0.06910265,0.03612796,0.08687757,0.045451246,4.246713,4.5642405,3.619238,3.8316891,202.5183,205.40208,204.13245,204.5808,0,0,0,0,0,0,0,0,0.120000005,0.120000005,0.120000005,0.120000005,3.5227034,3.575925,3.3174555,3.3876271,5.517609,5.798235,4.9096227,5.1144757,-0.02418981,-0.028234696,-0.01856349,-0.023488773,164,6,231,2,0,-9342.706,115.29415,2245.7842,50.325485,410619.72,443.41116,171.09384,161.9912,173.5813,173.5813,-11.76,1,653.38934,0,0,16.920664,16.920654,0,1,255,0,0,0,1,127,127,0
True,22473484,15999.99,0,8817.095,8.493689,-2.0341601,3.831019,-42.51731,-0.07535347,25.88921,0.0517321,0.37490368,-0.0031085294,2.1206336,-0.0666689,-0.042682428,0.22559573,0.1903475,0.2165245,0.18379006,4.501729,4.914534,3.969762,4.1694694,199.49104,203.9163,204.43437,204.89856,0,0,0,0,0,0,0,0,0.120000005,0.120000005,0.120000005,0.120000005,3.5707672,3.6410277,3.4056222,3.4648936,5.74595,6.116349,5.230418,5.421251,-0.004993368,-0.009317141,-0.0031494312,-0.0070413128,164,6,231,2,0,-9337.629,115.704994,2248.4644,49.779297,417148.7,451.49792,171.76443,162.82367,174.17522,174.17522,-11.76,1,656.57605,0,0,17.035664,17.035654,0,1,255,0,0,0,1,127,127,0
True,22473593,15999.99,0,8139.7183,11.638968,3.0328412,8.26107,-42.2565,0.15768272,24.854038,-0.043634642,0.410179,-0.043766018,2.1659002,-0.06495028,-0.048783038,0.5156602,0.4241509,0.4784886,0.36508578,4.193202,4.6388807,3.6313074,3.893205,183.73808,188.45946,188.60292,189.40076,0,0,0,0,0,0,0,0,0.120000005,0.120000005,0.120000005,0.120000005,3.5930412,3.6610324,3.3925023,3.483348,5.5220366,5.9095154,4.9694533,5.224056,0.030587792,0.01936268,0.02799616,0.014513407,164,6,231,2,0,-9332.579,116.11589,2250.9824,49.024075,416770.9,487.93445,172.8532,163.93922,175.07346,175.07346,-11.76,1,659.7608,0,0,17.15015,17.150137,0,1,255,0,0,0,1,127,127,0
True,22473703,15999.99,0,7842.36,10.844433,0.71820444,5.810409,-42.08363,0.23924199,23.68725,0.095538005,0.357352,0.03352671,2.2097948,-0.062684305,-0.05275045,0.29471713,0.2812788,0.4831794,0.49293923,4.559394,4.8585806,3.7276292,3.9281392,181.45497,182.847,180.50331,180.60762,0,0,0,0,0,0,0,0,0.120000005,0.120000005,0.120000005,0.120000005,3.7446516,3.8013139,3.5347865,3.582356,5.900041,6.1689377,5.1371136,5.3163476,0.0034855045,0.001837071,0.028553858,0.029714234,164,6,231,2,0,-9327.674,116.55922,2253.2468,48.292595,424721.44,517.89624,173.48135,164.82771,175.90843,175.90843,-11.76,1,662.8753,0,0,17.261646,17.261633,0,1,255,0,0,0,1,118,127,0
True,22473812,15999.99,0,8459.203,5.3483844,-5.371652,3.0129793,-42.450954,-0.071547166,22.240429,0.08473931,0.3578874,0.004364699,2.2469027,-0.047103856,-0.051890478,0.088992484,0.10493221,0.13757075,0.16215132,2.2401402,2.6263623,4.7413254,4.9821925,192.60022,195.15025,195.926,196.40373,0,0,0,0,0,0,0,0,0.120000005,0.120000005,0.120000005,0.120000005,2.644989,2.832501,3.6346726,3.6939461,3.4661498,3.8627505,5.9741955,6.2022157,-0.021749996,-0.019794727,-0.012536446,-0.009613998,164,6,231,2,0,-9322.889,116.94272,2255.375,47.924164,432517.12,488.3634,173.6898,165.19641,175.90756,175.90756,-11.76,1,665.9433,0,0,17.3708,17.370787,0,1,255,0,0,0,1,-127,127,0
True,22473921,15999.99,0,8074.9136,8.974779,1.7004927,8.649227,-42.265926,0.121911794,21.557533,-0.017842269,0.3368487,-0.056873474,2.2860827,-0.041170835,-0.056561463,0.32606763,0.23297012,0.29760838,0.20718305,0.85102403,1.3700145,4.5383167,4.783048,183.33801,188.21973,186.58192,187.15556,0,0,0,0,0,0,0,0,0.120000005,0.120000005,0.120000005,0.120000005,1.0951236,1.842613,3.5978544,3.6643453,1.3869166,2.296119,5.7914486,6.025361,0.0073311552,-0.004088778,0.0064908415,-0.0042600594,164,6,231,2,0,-9318.046,117.29773,2257.4282,47.44629,435975.72,514.3889,173.32465,165.60117,176.67766,176.67766,-11.76,1,669.0332,0,0,17.481396,17.48138,0,1,255,0,0,0,1,-127,127,0
True,22474031,15999.99,0,7770.9326,9.442746,1.9080393,8.926987,-41.841064,0.26607156,21.28547,0.024006031,0.24433088,-0.008688197,2.3142316,-0.03898371,-0.060572598,0.30074272,0.24570177,0.33397293,0.2728939,0.77608156,1.2519109,4.4378467,4.586078,177.26808,180.8195,179.6114,179.77705,0,0,0,0,0,0,0,0,0.120000005,0.120000005,0.120000005,0.120000005,1.1191772,1.8663646,3.662431,3.697258,1.3619325,2.2473536,5.753945,5.8908257,0.004224643,-0.002527032,0.010814317,0.0035524778,164,6,231,2,0,-9313.674,117.6542,2259.1252,46.944824,444529.88,546.3527,171.75783,165.20651,177.48808,177.48808,-11.76,1,671.84033,0,0,17.581118,17.581106,0,1,255,0,0,0,1,-127,127,0
True,22474140,15999.99,0,7824.3115,8.003099,-0.15167764,7.1792684,-41.53007,0.108227074,21.029781,-0.054460496,0.2052188,-0.037098486,2.3393059,-0.03856753,-0.062778056,0.2782399,0.17994125,0.26277867,0.21514805,0.78417957,1.3221556,4.5808992,4.725326,176.5094,182.73924,181.15999,181.39949,0,0,0,0,0,0,0,0,0.120000005,0.120000005,0.120000005,0.120000005,1.1185364,1.8670833,3.6569457,3.69247,1.3660386,2.2878146,5.8615603,5.9969196,0.0014643036,-0.010593638,0.0023498498,-0.0033130795,164,6,231,2,0,-9308.758,118.05268,2260.9023,46.55116,448488.78,547.1189,170.11206,164.70963,177.86415,177.86415,-11.76,1,675.0098,0,0,17.69329,17.693281,0,1,255,0,0,0,1,-127,127,0
True,22474250,15999.99,0,7536.1064,10.241694,2.1587884,9.722431,-40.6175,0.090800986,21.262745,-0.047556728,0.13305826,-0.008808486,2.3598971,-0.04592463,-0.06711875,0.32486877,0.2599543,0.36424264,0.32041904,0.75879645,1.215059,4.1800356,4.297708,173.14014,176.83566,173.33025,173.73285,0,0,0,0,0,0,0,0,0.120000005,0.120000005,0.120000005,0.120000005,1.0910027,1.8256301,3.5843956,3.62306,1.3289315,2.19301,5.5064135,5.6211085,0.0071840957,-0.00077872723,0.014413163,0.00920286,164,6,231,2,0,-9303.862,118.462906,2262.5088,45.846416,451369.94,571.72925,168.55222,164.28207,178.56622,178.56622,-11.76,1,678.1834,0,0,17.80532,17.805311,0,1,255,0,0,0,1,-127,127,0
True,22474359,15999.99,0,7594.341,9.57981,0.23426957,7.432748,-39.763947,0.102524966,21.646358,0.05781912,0.042432725,-0.021953354,2.368939,-0.043287914,-0.068529904,0.16138504,0.1339419,0.26005834,0.24357441,0.7793839,1.2161092,4.2007637,4.269113,173.0961,176.89926,175.39163,175.8054,0,0,0,0,0,0,0,0,0.120000005,0.120000005,0.120000005,0.120000005,1.0459492,1.7748593,3.559791,3.590678,1.304396,2.151522,5.506226,5.5783772,-0.012869861,-0.016236212,0.00202642,6.6604465E-05,164,6,231,2,0,-9299.101,118.87776,2263.9192,45.274128,456358.94,574.05054,167.12712,163.75345,179.16005,179.16005,-11.76,1,681.25006,0,0,17.9147,17.91469,0,1,255,0,0,0,1,-127,127,0
True,22474468,15999.99,0,7409.7236,13.497371,3.3787637,8.460528,-38.371582,0.23378071,22.502998,-0.010599937,0.009120788,-0.08081243,2.370931,-0.040132504,-0.075773805,0.3235772,0.217815,0.35781133,0.22046913,1.5634624,1.8783854,3.723314,3.8143172,169.00874,172.32811,170.94633,171.79437,0,0,0,0,0,0,0,0,0.120000005,0.120000005,0.120000005,0.120000005,2.3092315,2.5131154,3.3927832,3.4427621,2.788721,3.137528,5.037266,5.1382513,0.007025663,-0.005947802,0.013648529,-0.0026804432,164,6,231,2,0,-9294.332,119.30083,2265.188,44.483906,452939.34,582.89636,166.37762,163.74371,179.81918,179.81918,-11.76,1,684.3715,0,0,18.024963,18.024954,0,1,255,0,0,0,1,127,127,0
True,22474593,15999.99,0,7156.805,14.972412,3.2387896,6.74367,-36.528553,0.5021621,23.34537,0.008833664,-0.0051742312,-0.04274691,2.3703532,-0.03930324,-0.08127411,0.2912312,0.15965645,0.30087394,0.24062762,3.310667,3.6082275,3.4008348,3.4126112,159.76605,166.41837,166.42972,166.5058,0,0,0,0,0,0,0,0,0.120000005,0.120000005,0.120000005,0.120000005,3.3691385,3.4330049,3.3393557,3.3474069,4.723517,4.9804444,4.7662325,4.780277,0.003057897,-0.013081903,0.0068790913,-0.0002837479,164,6,231,2,0,-9289.474,119.78927,2266.278,43.35428,445197.3,594.0879,167.58783,164.73674,180.643,180.643,-11.76,1,687.57477,0,0,18.13899,18.138985,0,1,255,0,0,0,1,127,127,0
True,22474687,15999.99,0,6848.442,16.64186,4.581741,7.015412,-34.825096,0.48343283,23.929808,-0.15487134,0.06301947,-0.06774852,2.3749256,-0.04856293,-0.08852561,0.32060763,0.21719015,0.33723542,0.19609246,3.2085133,3.5072358,2.9138823,3.023799,152.9814,158.65848,158.87321,159.98238,0,0,0,0,0,0,0,0,0.120000005,0.120000005,0.120000005,0.120000005,3.3569815,3.408426,3.1536758,3.2152824,4.643693,4.8906107,4.293761,4.413774,0.0066614,-0.00602445,0.011202205,-0.0055786483,164,6,231,2,0,-9284.911,120.2799,2267.1362,42.25703,434134.56,604.1387,169.0306,165.73186,181.10983,181.10983,-11.76,1,690.60114,0,0,18.24801,18.248003,0,1,255,0,0,0,1,127,127,0
True,22474796,15999.99,0,6122.074,22.691357,9.8646145,8.526142,-32.543518,0.6114093,24.57154,-0.17765796,0.10915792,-0.12633838,2.386109,-0.066493936,-0.104526214,0.6627574,0.44633994,0.6839254,0.37787113,2.5193913,2.6559455,2.123558,2.2727633,138.98337,140.86336,141.6746,142.6805,0,0,0,0,0,0,0,0,0.120000005,0.120000005,0.120000005,0.120000005,3.235534,3.253052,2.9546432,3.0488498,4.1007333,4.1995707,3.6386008,3.8027542,0.048631668,0.022084527,0.05242107,0.01603349,164,6,231,2,0,-9280.493,120.83699,2267.758,40.78253,420798.94,654.73505,170.48993,166.88112,182.10632,182.10632,-11.76,1,693.53625,0,0,18.356245,18.356237,0,1,255,0,0,0,1,127,127,0
True,22474921,15999.99,0,6205.13,18.855345,3.3383808,4.077936,-30.525085,0.42240268,24.753649,-0.008959839,0.06266229,-0.048108216,2.3981156,-0.076553926,-0.116454415,0.37030357,0.3157328,0.5470664,0.40592346,2.6882503,2.6730502,2.2261713,2.3075328,143.58208,142.25365,143.29951,143.7276,0,0,0,0,0,0,0,0,0.120000005,0.120000005,0.120000005,0.120000005,3.2004907,3.206652,2.9493532,2.9990442,4.1796927,4.1746635,3.6952028,3.784042,0.012757421,0.0060634203,0.036149554,0.019368704,164,6,231,2,0,-9275.692,121.551315,2268.1685,39.3027,415547.3,640.95465,171.25777,167.65291,182.6319,182.6319,-11.76,1,696.7748,0,0,18.478127,18.478117,0,1,255,0,0,0,1,127,127,0
True,22475031,15999.99,0,6641.93,10.804703,-0.99897265,3.3950486,-29.763313,0.034755304,24.867832,-0.118165225,0.10236234,0.0013621487,2.405363,-0.077424556,-0.11949042,0.28703547,0.19669332,0.20028181,0.1878041,2.7055335,2.9841485,2.652232,2.6883934,146.7927,152.19379,155.46964,155.53201,0,0,0,0,0,0,0,0,0.120000005,0.120000005,0.120000005,0.120000005,3.0681596,3.1211703,2.932767,2.942368,4.090662,4.3181996,3.9541695,3.9855976,0.0025432222,-0.008538723,-0.005080566,-0.0065640733,164,6,231,2,0,-9271.473,122.1659,2268.4033,38.784855,410955.28,590.9201,171.78903,168.12332,182.43137,182.43137,-11.76,1,699.63354,0,0,18.587502,18.587492,0,1,255,0,0,0,1,127,127,0
True,22475140,15999.99,0,6410.2524,13.434486,3.0363748,5.5497627,-28.677471,-0.023552412,25.122105,-0.18616135,0.13602811,0.018234022,2.4220483,-0.09642441,-0.11800485,0.24532104,0.15948407,0.44136122,0.37663832,2.5368319,2.848397,2.294934,2.3884416,144.09055,150.0979,148.30373,148.80443,0,0,0,0,0,0,0,0,0.120000005,0.120000005,0.120000005,0.120000005,2.9958177,3.0503516,2.7852895,2.8344777,3.9256132,4.173489,3.6089556,3.7066045,-0.002573736,-0.0131030455,0.02358199,0.015886921,164,6,231,2,0,-9267.379,122.768486,2268.5056,38.12503,401827.06,598.00446,172.77289,168.78493,182.60828,182.60828,-11.76,1,702.42,0,0,18.69514,18.695133,0,1,255,0,0,0,1,127,127,0
True,22475250,15999.99,0,6263.741,14.436297,3.613663,5.5691934,-27.460535,0.04218798,25.327387,-0.14969735,0.13771246,0.016296484,2.4379857,-0.11079409,-0.11744169,0.4837631,0.25365332,0.45888478,0.349061,2.349584,2.59684,2.1679063,2.2622254,140.56631,145.16281,145.36012,145.89598,0,0,0,0,0,0,0,0,0.120000005,0.120000005,0.120000005,0.120000005,2.8941848,2.9629176,2.716868,2.7666583,3.727848,3.9398549,3.4758005,3.5738022,0.02667509,-0.0015516467,0.02566541,0.012608178,164,6,231,2,0,-9263.342,123.40806,2268.445,37.357185,396801.53,604.6567,173.54776,169.34822,182.95303,182.95303,-11.76,1,705.18585,0,0,18.803461,18.803455,0,1,255,0,0,0,1,127,127,0
True,22475359,15999.99,0,6494.1436,11.209061,-0.66360116,2.5560718,-26.648294,-0.14643005,25.239838,-0.11984147,0.12377127,0.19771448,2.4556587,-0.12699154,-0.10834433,0.20120901,0.21917462,0.20529002,0.35728374,2.658579,2.8484502,2.4069076,2.4207458,147.8408,151.04883,150.8759,149.66025,0,0,0,0,0,0,0,0,0.120000005,0.120000005,0.120000005,0.120000005,2.9153554,2.9630606,2.7385783,2.7513225,3.9455469,4.1101575,3.6459587,3.6646674,-0.007984798,-0.005781021,-0.0044851266,0.013585798,164,6,231,2,0,-9259.398,124.06602,2268.2378,36.704254,393858.53,580.8136,174.02155,169.79086,183.03043,183.03043,-11.76,1,707.8164,0,0,18.91172,18.911715,0,1,255,0,0,0,1,127,127,0
True,22475468,15999.99,0,7196.712,6.1420565,-5.7226014,0.24486136,-26.469454,-0.5649558,24.919012,-0.056403838,0.10373661,0.22739771,2.4694328,-0.13579498,-0.088836975,0.1275755,0.25351042,0.0780294,0.23793155,3.4084666,3.4718266,0,3.0235739,165.85933,165.90363,166.5508,166.20784,0,0,0,0,0,0,0,0,0.120000005,0.120000005,0,0.120000005,2.9441059,2.9746537,0,2.749198,4.503932,4.5718865,0,4.086574,-0.017017156,-0.0015691742,-0.019615471,-0.0006042905,164,6,231,2,0,-9255.466,124.66944,2267.9631,36.358055,395724.47,526.4871,174.14319,169.86801,182.35321,182.35321,-11.76,1,710.52374,0,0,19.020927,19.020922,0,1,255,0,0,0,1,127,127,0
True,22475578,15999.99,0,7853.151,3.5581622,-8.029762,-0.46232176,-26.411474,-0.86655325,24.602787,-0.05357402,0.104570635,0.23929325,2.4796987,-0.13967043,-0.0656164,0.06909219,0.17404014,0.037179288,0.11923934,3.8965847,4.1805763,0,3.6848853,177.47458,182.3482,182.4816,181.81985,0,0,0,0,0,0,0,0,0.120000005,0.120000005,0,0.120000005,2.9470904,2.9926813,0,2.7845984,4.885562,5.1413383,0,4.6186976,-0.024191093,-0.011317508,-0.024472248,-0.014715916,164,6,231,2,0,-9251.961,125.12957,2267.6902,36.10559,398254.9,485.1716,174.39267,169.89096,179.88069,179.88069,-11.76,1,712.9383,0,0,19.118797,19.118792,0,1,255,0,0,0,1,127,127,0
True,22475687,15999.99,0,8518.315,3.153265,-8.7316,-0.68264425,-26.31818,-1.014558,24.28557,0.04742323,0.06677498,0.33912948,2.489786,-0.13896357,-0.03610653,0.021943865,0.06504254,0.04344122,0.26297656,0,4.969451,4.272825,4.3237576,196.31538,195.8188,197.20221,196.9637,0,0,0,0,0,0,0,0,0,0.120000005,0.120000005,0.120000005,0,3.074033,2.7968268,2.812273,0,5.843383,5.106787,5.157883,-0.029974608,-0.024687849,-0.02372775,0.0023733787,164,6,231,2,0,-9247.872,125.56804,2267.34,35.825478,402397.03,452.07068,172.77669,170.08687,179.16594,179.16594,-11.76,1,715.7568,0,0,19.233606,19.233599,0,1,255,0,0,0,1,127,127,0
True,22475796,15999.99,0,9244.945,1.3050545,-9.964122,-0.78646594,-26.351171,-1.2486349,23.982786,0.08922148,0.05841582,0.19123061,2.4967344,-0.13112323,-0.010439015,0,0,0.14711092,0.25058532,0,0,0,5.0126233,212.9895,212.9722,214.14182,213.44298,0,0,0,0,0,0,0,0,0,0,0,0.120000005,0,0,0,2.8377016,0,0,0,5.7601166,-0.03266638,-0.03266638,-0.01140219,0.00090014935,164,6,231,2,0,-9243.944,125.8692,2266.9854,35.65273,403723.75,417.90298,170.68114,169.13141,179.09023,179.09023,-11.76,1,718.4644,0,0,19.344282,19.344276,0,1,255,0,0,0,1,127,127,0
True,22475906,15999.99,0,10235.667,0.9875256,-11.96874,-1.5595222,-26.444347,-1.8796363,23.646921,0.07297697,0.05515307,0.1546389,2.5028849,-0.122583576,0.0068206266,0,0,0.056548398,0.07045618,0,0,0,0,235.05354,235.05487,237.11847,237.09952,0,0,0,0,0,0,0,0,0,0,0,0,0,0,0,0,0,0,0,0,-0.03266638,-0.03266638,-0.022169404,-0.020515872,164,6,231,2,0,-9240.106,126.03327,2266.6301,35.52483,752252.2,704.04645,168.6906,167.03134,176.53252,176.53252,-5.879999,1,721.06793,0,0,19.452703,19.452698,0,1,255,0,0,0,1,127,127,0
True,22476015,15999.99,0,11258.535,0.75113285,-11.312207,-1.2233542,-26.511309,-2.430676,23.347336,0.10231374,0.035645857,0.26011553,2.5088236,-0.11275299,0.029059624,0,0,0.0049589477,0.009006865,0,0,0,0,259.38217,259.38345,260.10983,260.58987,0,0,0,0,0,0,0,0,0,0,0,0.120000005,0,0,0,0,0,0,0,0,-0.03266638,-0.03266638,-0.028303009,-0.02782174,164,6,231,2,0,-9235.887,126.04448,2266.2332,35.409824,752262.2,639.7261,166.61726,164.84592,173.87556,173.87556,-8.147675,1,723.9742,0,0,19.572235,19.572227,0,1,255,0,0,0,1,127,127,0
True,22476125,15999.99,0,11436.927,2.2928941,-8.055778,1.0683689,-26.3436,-2.2616043,23.414904,0.2903926,0.005998485,0.17378916,2.5119708,-0.09691158,0.047355592,0,0,0.045562387,0.24760093,0,0,6.897677,6.843028,267.08075,267.08197,263.2215,261.84714,0,0,0,0,0,0,0,0,0,0,0.120000005,0.120000005,0,0,2.8171248,2.8229928,0,0,7.450781,7.402454,-0.03266638,-0.03266638,-0.02347556,0.0005453266,164,6,231,2,0,-9232.658,125.95758,2265.912,35.31795,410392.62,342.7071,165.18123,163.3294,173.85008,173.85008,-11.76,1,726.1988,0,0,19.664064,19.664057,0,1,255,0,0,0,1,127,127,0
True,22476234,15999.99,0,12123.795,0.32811934,-10.802496,0.018450499,-26.312988,-1.903095,23.462345,0.3396972,-0.0172813,0.2770039,2.51301,-0.05980918,0.07394999,0,0,0.00013257877,0.034770183,0,0,0,0,278.88535,278.88657,280.12314,281.0608,0,0,0,0,0,0,0,0,0,0,0,0.120000005,0,0,0,0,0,0,0,0,-0.03266638,-0.03266638,-0.028876826,-0.024758672,164,6,231,2,0,-9228.751,125.75789,2265.4937,35.305477,753771.94,594.89813,163.49219,161.5489,171.98727,171.98727,-5.879999,1,728.8931,0,0,19.775497,19.77549,0,1,255,0,0,0,1,127,127,0
True,22476359,15999.99,0,11886.296,2.7113323,-4.934036,4.3446865,-25.900995,-0.8159779,24.121632,0.6221794,-0.016830187,-0.25461495,2.5145652,-0.002000281,0.08391673,0.10539248,0,0.25666618,0.0027018497,7.637471,0,7.072799,7.077478,261.45227,284.58282,275.91092,274.71796,0,0,0,0,0,0,0,0,0.120000005,0.120000005,0.120000005,0.120000005,2.986135,0,2.7298865,2.741109,8.200486,0,7.5813437,7.5897546,-0.019738268,-0.03266638,0.0016231202,-0.02857136,164,6,231,2,0,-9224.678,125.43275,2265.0234,35.403114,403072.78,323.03717,161.94475,159.84996,173.11104,173.11104,-11.76,1,731.7045,0,0,19.891977,19.891972,0,1,255,0,0,0,1,127,127,0
True,22476453,15999.99,0,9574.873,11.014261,10.161645,14.504096,-24.86515,0.74644965,25.71697,-0.072242275,0.15845136,-0.07087986,2.5244465,0.018552579,0.069676176,0.6810388,0.5573468,0.5473,0.38674933,4.7393007,5.066142,4.7988763,4.9495473,204.71063,209.46677,228.54272,228.89621,0,0,0,0,0,0,0,0,0.120000005,0.120000005,0.120000005,0.120000005,2.8309507,2.8758242,2.5220144,2.5700085,5.5204396,5.825475,5.421233,5.577003,0.05087418,0.035701334,0.036177322,0.01708904,164,6,231,2,0,-9221.07,125.21327,2264.4521,35.77982,382470.5,379.97992,164.99986,162.24117,174.92708,174.92708,-11.76,1,734.3022,0,0,19.994732,19.994724,0,1,255,0,0,0,1,127,127,0
True,22476578,15999.99,0,8770.534,6.449719,1.9611819,8.774937,-24.578,0.49804685,26.136745,-0.025049789,0.15774076,0.021899931,2.543615,0.0077752,0.06444937,0.21103658,0.14168628,0.23493882,0.20744202,4.757132,4.7896996,3.8281286,3.9705303,204.99551,203.04155,201.21848,202.29688,0,0,0,0,0,0,0,0,0.120000005,0.120000005,0.120000005,0.120000005,2.8792946,2.887357,2.5018928,2.5465143,5.560633,5.5926785,4.5731864,4.7169743,-0.006779287,-0.015286239,-0.00096010417,-0.00422927,164,6,231,2,0,-9216.979,125.06117,2263.608,35.88113,377641.56,410.98294,166.64516,163.77747,176.16605,176.16605,-11.76,1,737.1648,0,0,20.111359,20.111353,0,1,255,0,0,0,1,127,127,0
True,22476671,15999.99,0,8670.9375,4.938859,-3.3607163,4.2660117,-24.521488,0.69978714,26.195595,-0.0076057464,0.16796613,0.17246634,2.559442,0.0012280683,0.09219751,0.08645993,0.15552469,0.3073491,0.06877452,5.260616,0,3.698777,0,218.87166,185.5747,198.52309,199.84596,0,0,0,0,0,0,0,0,0.120000005,0,0.120000005,0,2.868447,0,2.4850643,0,5.991833,0,4.456063,0,-0.022060655,-0.013588732,0.0076489374,-0.020715808,164,6,231,2,0,-9213.512,124.92633,2262.7966,35.888744,377311.56,415.81955,167.05354,164.37556,177.2273,177.2273,-11.76,1,739.59973,0,0,20.210665,20.210659,0,1,255,0,0,0,1,127,127,0
