IsRaceOn,TimestampMS,EngineMaxRpm,EngineIdleRpm,CurrentEngineRpm,AccelerationX,AccelerationY,AccelerationZ,VelocityX,VelocityY,VelocityZ,AngularVelocityX,AngularVelocityY,AngularVelocityZ,Yaw,Pitch,Roll,NormalizedSuspensionTravelFrontLeft,NormalizedSuspensionTravelFrontRight,NormalizedSuspensionTravelRearLeft,NormalizedSuspensionTravelRearRight,TireSlipRatioFrontLeft,TireSlipRatioFrontRight,TireSlipRatioRearLeft,TireSlipRatioRearRight,WheelRotationSpeedFrontLeft,WheelRotationSpeedFrontRight,WheelRotationSpeedRearLeft,WheelRotationSpeedRearRight,WheelOnRumbleStripFrontLeft,WheelOnRumbleStripFrontRight,WheelOnRumbleStripRearLeft,WheelOnRumbleStripRearRight,WheelInPuddleDepthFrontLeft,WheelInPuddleDepthFrontRight,WheelInPuddleDepthRearLeft,WheelInPuddleDepthRearRight,SurfaceRumbleFrontLeft,SurfaceRumbleFrontRight,SurfaceRumbleRearLeft,SurfaceRumbleRearRight,TireSlipAngleFrontLeft,TireSlipAngleFrontRight,TireSlipAngleRearLeft,TireSlipAngleRearRight,TireCombinedSlipFrontLeft,TireCombinedSlipFrontRight,TireCombinedSlipRearLeft,TireCombinedSlipRearRight,SuspensionTravelMetersFrontLeft,SuspensionTravelMetersFrontRight,SuspensionTravelMetersRearLeft,SuspensionTravelMetersRearRight,CarOrdinal,CarClass,CarPerformanceIndex,DrivetrainType,NumCylinders,PositionX,PositionY,PositionZ,Speed,Power,Torque,TireTempFl,TireTempFr,TireTempRl,TireTempRr,Boost,Fuel,Distance,BestLapTime,LastLapTime,CurrentLapTime,CurrentRaceTime,Lap,RacePosition,Accelerator,Brake,Clutch,Handbrake,Gear,Steer,NormalDrivingLine,NormalAiBrakeDifference
True,37522421,15999.99,0,177.27124,-0.47915632,0.041058563,0.51025134,-0.009541959,0.00014968589,1.3239337,-0.00011630438,-0.0006079046,0.0033740045,1.1962755,0.049390964,0.06681201,0.24968795,0.26695052,0.2483819,0.2259908,-0.0010861924,-0.0009822279,-0.0014835926,-0.0017441498,4.0947676,4.0984793,4.092001,4.0931406,0,0,0,0,0,0,0,0,0.120000005,0.120000005,0.120000005,0.120000005,0.023731645,0.023028107,0.019589962,0.019625282,0.02375649,0.023049045,0.01964606,0.019702632,-0.0020380616,7.947534E-05,0.0006381795,-0.0020239577,164,6,231,2,0,2173.0134,173.91634,-1317.1034,1.323968,-40.085434,-2.1601703,203.62836,199.5103,221.33142,221.33142,0,1,67.42267,0,0,0.7146146,52.866318,0,11,0,0,0,0,1,0,127,0
True,37541843,15999.99,0,84.43821,-0.013378859,-0.063588545,3.9463356,-0.0020676553,-0.0035920993,0.40171927,-0.02265071,-0.0008347901,-0.010609177,1.2953553,-0.035560656,0.036002688,0.25790253,0.26277673,0.25082433,0.24759391,0.7611356,0.2323377,-0.039170712,0.056193,1.1929516,1.1197109,2.632423,2.1262434,0,0,0,0,0,0,0,0,0,0,0,0,0.008454313,0.008473439,0.0059480113,0.006095384,0.7611825,0.23249215,0.039619736,0.056522626,-0.0010304078,-0.00043250993,0.00092856586,0.00054449216,164,6,231,2,0,675.30133,263.6258,-2836.9163,0.4017407,4826.775,702.13763,117.87056,117.870964,118.16202,118.16202,0,1,-61.488125,0,0,0.09085971,0.09085971,0,8,255,0,0,0,1,0,58,0
True,37541968,15999.99,0,305.82632,0.04119587,-0.08686596,11.406796,0.0014486909,-0.013951909,1.7502117,-0.03803805,-0.0043962733,-0.017243356,1.2950946,-0.039034195,0.034346465,0.216189,0.23875713,0.26354876,0.27952477,2.1430924,0.4584383,0.83731997,0.5213323,9.373707,6.025499,6.9226923,6.5144405,0,0,0,0,0,0,0,0,0,0,0,0,0.049580555,0.048613757,-0.0075789024,-0.005932201,2.1436658,0.46100864,0.8373543,0.5213661,-0.006147258,-0.0033789054,0.0024414062,0.0043408386,164,6,231,2,0,675.41144,263.62933,-2836.8853,1.7502679,48129.883,1546.6406,118.037094,118.05119,118.35602,118.35602,0,1,-61.400135,0,0,0.20215887,0.20215887,0,7,255,0,0,0,1,0,58,0
True,37542078,15999.99,0,508.65012,0.07627082,-0.13859355,12.820937,-0.0024920702,-0.03827851,3.2192078,-0.016240945,-0.0024119748,-0.006350872,1.2949324,-0.041940544,0.034215182,0.16834727,0.20624536,0.2700221,0.30540258,0.5542644,0.4261431,1.0632459,1.5063753,11.302531,10.611328,11.877585,12.471094,0,0,0,0,0,0,0,0,0,0,0,0,0.017124167,0.01854651,0.009279656,0.010651039,0.5545289,0.4265465,1.0632864,1.506413,-0.012015831,-0.0073670074,0.00321104,0.0074175186,164,6,231,2,0,675.68634,263.63766,-2836.8071,3.2194362,81711.9,1546.6406,120.82422,118.20741,119.25312,119.25312,0,1,-61.180336,0,0,0.31640235,0.31640232,0,7,255,0,0,0,1,0,58,0
True,37542187,15999.99,0,714.33936,-0.11449385,0.010775484,13.216738,-0.004379511,-0.036066614,4.7853446,0.005230183,0.0056956783,-0.0001406041,1.2946826,-0.04288183,0.033806726,0.15451074,0.19526547,0.30062833,0.3429904,1.2257222,0.2944502,1.4000161,1.293117,17.215593,15.872534,17.439106,15.504982,0,0,0,0,0,0,0,0,0,0,0,0,-0.014086666,-0.011363205,0.025441108,0.028387284,1.2258031,0.2946694,1.4002472,1.2934285,-0.013713108,-0.008713871,0.0068498924,0.011886429,164,6,231,2,0,676.12573,263.65295,-2836.6821,4.7854824,117048.98,1546.6406,122.32854,118.34187,119.94792,119.94792,0,1,-60.82895,0,0,0.42955565,0.42955562,0,7,255,0,0,0,1,0,58,0
True,37542296,15999.99,0,935.9044,0.014778137,-0.0812874,14.840575,0.00084114075,-0.04837142,6.487732,-0.0045736553,-0.002685419,0.0063181655,1.293838,-0.04263402,0.03409884,0.15293749,0.1892413,0.29492876,0.3352247,1.4973743,0.596956,0.76218253,0.5668016,22.71168,21.378885,21.530518,21.231771,0,0,0,0,0,0,0,0,0,0,0,0,0.35463935,0.35935917,-0.00803941,-0.0048431735,1.5387979,0.6967751,0.7622249,0.5668223,-0.013906093,-0.009452835,0.0061722584,0.010963146,164,6,231,2,0,676.7495,263.67587,-2836.5044,6.4879127,150549.77,1546.6406,123.960205,118.524796,120.7561,120.7561,0,1,-60.330013,0,0,0.544698,0.544698,0,7,255,0,0,0,1,6,58,0
True,37542421,15999.99,0,1190.39,3.6145675,-0.19122127,11.666744,0.34310758,-0.06656276,7.8132496,0.012533212,0.2977139,0.024973646,1.3095199,-0.04239073,0.035994347,0.16227554,0.17427923,0.28628907,0.32208222,0.83047324,2.9919508,0.5209965,1.7535571,26.7449,29.89044,26.354939,27.734365,0,0,0,0,0,0,0,0,0,0,0,0,0.79914707,0.98445195,0.025833162,0.029766886,1.1525285,3.1497483,0.5216366,1.7538097,-0.01276063,-0.011288177,0.0051450618,0.009400599,164,6,231,2,0,677.5454,263.70483,-2836.3027,7.821062,190717.77,1546.6406,125.39581,121.56227,120.97128,120.97128,0,1,-59.698654,0,0,0.6587114,0.65871143,0,7,255,0,0,0,1,0,57,0
True,37542515,15999.99,0,1324.0454,0.16380596,-0.117284164,13.499286,0.10931277,-0.07401368,9.223374,-0.003984943,0.13184085,-0.013882302,1.3345665,-0.04342124,0.0350498,0.17624977,0.17094794,0.28415024,0.30754027,0.9880023,0.6624339,0.71761465,0.693017,31.524237,29.954048,31.123611,29.858667,0,0,0,0,0,0,0,0,0,0,0,0,-0.34558162,-0.34597716,0.0671665,0.068414845,1.0466973,0.7473412,0.7207511,0.6963858,-0.01104646,-0.0116968155,0.0048907697,0.007671673,164,6,231,2,0,678.34534,263.73438,-2836.127,9.2243185,213620.23,1546.6406,126.04162,125.62616,121.30492,121.30492,0,1,-59.06969,0,0,0.7543854,0.7543854,0,7,255,0,0,0,1,0,56,0
True,37542625,15999.99,0,1571.5228,-0.26947856,-0.16082111,15.14762,0.0021438599,-0.103945255,10.991927,-0.00871725,0.011554096,-0.008739141,1.3401909,-0.044748534,0.033783484,0.19223829,0.1555741,0.28771108,0.3156215,0.44771603,1.3368909,0.6324434,0.53821397,35.484688,38.10225,36.191277,35.85511,0,0,0,0,0,0,0,0,0,0,0,0,-0.01744685,-0.014946762,0.0135604115,0.01510321,0.44805583,1.3369745,0.6325888,0.53842586,-0.009085204,-0.013582671,0.0053141303,0.008632466,164,6,231,2,0,679.47003,263.7753,-2835.8655,10.992418,253490.66,1546.6406,125.97222,125.59091,121.550705,121.550705,0,1,-58.182404,0,0,0.8684097,0.86840963,0,7,255,0,0,0,1,0,55,0
True,37542734,15999.99,0,1821.6782,-0.15243554,-0.17327431,15.487742,-0.0076789856,-0.13129069,12.722569,-0.003938417,-0.0024026278,-0.010064414,1.340418,-0.045476172,0.03267477,0.20151383,0.16399455,0.29902202,0.32046518,0.47977835,1.3986162,0.64053047,0.5526875,41.151337,44.26982,41.86098,41.588528,0,0,0,0,0,0,0,0,0,0,0,0,0.009657251,0.013653831,0.0050109546,0.007706666,0.47987553,1.3986828,0.6405501,0.5527412,-0.007947408,-0.012549762,0.0066589117,0.009208344,164,6,231,2,0,680.7637,263.82217,-2835.562,12.7232485,294162.03,1546.6406,125.83296,126.65656,121.825325,121.825325,0,1,-57.16127,0,0,0.98036265,0.98036253,0,7,255,0,0,0,1,0,54,0
True,37542859,15999.99,0,2052.7463,-0.11968708,-0.23157333,15.535978,-0.006894827,-0.15107736,14.487548,0.009336621,-0.0030536565,-0.022048827,1.3401014,-0.0450994,0.030860383,0.19604647,0.1616157,0.3366093,0.315204,0.62106633,0.73991746,0.545307,0.55411565,47.393265,47.822906,47.27483,47.322212,0,0,0,0,0,0,0,0,0,0,0,0,0.011010494,0.015029706,0.003491745,0.008048802,0.6211639,0.7400701,0.5453182,0.5541741,-0.008618068,-0.012841567,0.011127766,0.008582834,164,6,231,2,0,682.26416,263.876,-2835.2095,14.488338,331545.44,1546.6406,125.753845,126.99864,122.09004,122.09004,0,1,-55.976765,0,0,1.0935482,1.093548,0,7,255,0,0,0,1,0,52,0
True,37542968,15999.99,0,2311.16,0.03396678,-0.32069466,15.444503,-0.0065300465,-0.16651428,16.298357,0.015484832,-0.0036436059,-0.01656586,1.3397907,-0.04350149,0.028470268,0.19178323,0.16214073,0.34327602,0.33413017,0.5815613,0.7532199,0.5840982,0.55511546,53.12836,53.895847,53.353317,53.248753,0,0,0,0,0,0,0,0,0,0,0,0,0.008721066,0.012784063,0.00081539695,0.0067612245,0.5816267,0.7533284,0.58409876,0.55515665,-0.009141024,-0.012777165,0.011920385,0.01083301,164,6,231,2,0,684.01984,263.9374,-2834.7966,16.29921,373469.84,1546.6406,125.72847,126.90144,122.353485,122.353485,0,1,-54.59077,0,0,1.2106183,1.210618,0,7,255,0,0,0,1,0,50,0
True,37543078,15999.99,0,2551.5583,-0.082424164,-0.17294417,15.57331,-0.00859642,-0.17153133,18.099962,-0.0007770915,-0.001638865,-0.010955725,1.3394274,-0.042290557,0.027174944,0.19807602,0.18798473,0.34415305,0.32745475,0.553768,0.4829767,0.5206601,0.553424,58.890236,58.57367,58.95323,59.111763,0,0,0,0,0,0,0,0,0,0,0,0,0.0066510476,0.00987891,0.0018247045,0.0075957556,0.5538079,0.48307773,0.5206633,0.55347615,-0.0083691105,-0.009606972,0.012024656,0.010039356,164,6,231,2,0,685.9608,264.0029,-2834.3394,18.100775,412264.06,1546.6406,125.72285,126.80536,122.62395,122.62395,0,1,-53.05836,0,0,1.326475,1.3264747,0,7,255,0,0,0,1,0,48,0
True,37543187,15999.99,0,2770.2212,-0.02482009,-0.27096733,15.341145,-0.01108551,-0.20931138,19.625065,0.00084013457,-0.0014876206,-0.002240277,1.3392781,-0.042642575,0.026553417,0.18697748,0.18074541,0.34469867,0.3392272,0.59581035,0.667166,0.50675756,0.49846944,64.059296,64.463165,63.833904,63.812386,0,0,0,0,0,0,0,0,0,0,0,0,0.005600055,0.009462496,0.0015224117,0.0078925565,0.59583664,0.6672331,0.5067598,0.4985319,-0.009730529,-0.010494996,0.012089532,0.011439014,164,6,231,2,0,687.77783,264.06317,-2833.9106,19.62618,447853.4,1546.6406,125.7588,126.718216,122.85312,122.85312,0,1,-51.623726,0,0,1.4254043,1.4254041,0,7,255,0,0,0,1,0,46,0
True,37543296,15999.99,0,3030.4524,0.1026268,-0.3541506,15.333238,-0.0111413,-0.2074684,21.424429,0.017519195,-0.0014063836,-0.01208505,1.3391019,-0.040802687,0.026136499,0.1711805,0.14535145,0.34171593,0.33992517,0.43613842,0.7785081,0.57429963,0.53649354,68.98299,71.01398,70.08461,69.876434,0,0,0,0,0,0,0,0,0,0,0,0,0.0066637783,0.010070137,0.0026357817,0.0086808745,0.43618932,0.7785733,0.57430565,0.53656375,-0.011668287,-0.014836643,0.011734903,0.011521999,164,6,231,2,0,690.11224,264.13922,-2833.3594,21.425436,489952.78,1546.6406,125.79973,126.70856,123.12627,123.12627,0,1,-49.780506,0,0,1.5422124,1.542212,0,7,255,0,0,0,1,0,44,0
True,37543406,15999.99,0,3229.3716,0.12912464,0.005115021,15.384313,-0.0022830963,-0.22032619,22.973286,-0.036490127,-0.007127283,-0.02110937,1.338593,-0.041593533,0.02421579,0.2303627,0.19229038,0.30781305,0.31292558,0.38657123,0.5243633,0.5287168,0.4972115,73.772446,74.61074,74.84986,74.73264,0,0,0,0,0,0,0,0,0,0,0,0,0.006982285,0.009778802,-0.0018020709,0.001522712,0.3866343,0.5244545,0.5287199,0.49721384,-0.0044086203,-0.009078816,0.0077041015,0.008311946,164,6,231,2,0,692.2674,264.20874,-2832.8503,22.97434,522242.12,1546.6406,125.80165,126.71868,123.3793,123.3793,0,1,-48.08113,0,0,1.6419184,1.6419181,0,7,255,0,0,0,1,0,42,0
True,37543515,15999.99,0,3463.8694,-0.19862604,0.28044042,15.230055,0.0001540184,-0.25811595,24.752352,0.005869425,-0.0026058208,-0.025955506,1.3380181,-0.04481681,0.020937447,0.2314884,0.18900518,0.37519556,0.36061206,0.5012617,0.57168305,0.41167873,0.3977738,80.10044,80.655846,79.83155,79.74829,0,0,0,0,0,0,0,0,0,0,0,0,0.0027130214,0.007033501,-0.003333843,0.005485825,0.50126904,0.5717263,0.41169223,0.39781165,-0.004270535,-0.009481799,0.015715383,0.013981514,164,6,231,2,0,694.97955,264.3015,-2832.2085,24.753698,528137.2,1458.2106,125.8491,126.69083,123.6362,123.6362,0,1,-45.939194,0,0,1.7586286,1.7586282,0,7,255,0,0,0,1,0,39,0
True,37543625,15999.99,0,3679.9365,-2.155113,-0.67030346,13.2221365,-0.11536074,-0.23976591,26.263311,0.054827627,-0.13186023,-0.045809455,1.3336307,-0.04063637,0.017152496,0.17755772,0.14301719,0.3611144,0.33966437,0.7912613,0.4454371,0.4731917,0.35683683,86.60355,84.8653,84.65424,84.50929,0,0,0,0,0,0,0,0,0,0,0,0,-0.6258654,-0.5724569,-0.017122846,-0.009635921,1.0088618,0.7253421,0.4735014,0.3569669,-0.010886017,-0.01512298,0.0140412375,0.011490986,164,6,231,2,0,697.8322,264.39938,-2831.5254,26.26466,455777.88,1184.1934,125.93886,126.71973,123.86644,123.86644,0,1,-43.684635,0,0,1.8734655,1.8734652,0,7,255,0,0,0,1,-119,37,0
True,37543734,15999.99,0,3826.3774,-2.9455955,-1.1552098,12.046596,0.06335831,-0.22166784,27.396545,0.043198496,-0.16928029,-0.019448385,1.3131876,-0.03492432,0.014292738,0.15408066,0.13951117,0.29909196,0.2888639,0.41258788,0.38388866,0.52074575,0.39934474,87.58272,88.24689,88.64145,88.58578,0,0,0,0,0,0,0,0,0,0,0,0,0.07040491,0.072335035,-0.10095978,-0.09717868,0.4185518,0.39064416,0.5304423,0.4109987,-0.013765864,-0.015553052,0.0066672266,0.005451191,164,6,231,2,0,700.40576,264.4765,-2830.867,27.397514,524218.6,1309.8862,126.20774,126.79167,124.07391,124.07391,0,1,-41.642128,0,0,1.9725469,1.9725466,0,7,255,0,0,0,1,0,35,0
True,37543843,15999.99,0,4032.889,-2.1205447,-0.5025513,13.298233,0.09967661,-0.24579784,28.951815,-0.019992124,-0.038460057,-0.03319945,1.3028047,-0.033513535,0.011425364,0.25309023,0.21309012,0.28803512,0.2777728,0.357684,0.36709148,0.4393476,0.3866123,92.585884,92.86777,93.44227,93.27731,0,0,0,0,0,0,0,0,0,0,0,0,-0.015361015,-0.012461757,-0.04925711,-0.047364704,0.3580137,0.36730292,0.44210017,0.38950285,-0.0016207173,-0.0065273866,0.0053526573,0.0041325428,164,6,231,2,0,703.5722,264.5602,-2830.0244,28.95303,589287.06,1396.8486,126.262985,126.78281,124.33957,124.33957,0,1,-39.12256,0,0,2.0888472,2.0888467,0,7,255,0,0,0,1,0,34,0
True,37543953,15999.99,0,4221.19,-1.1296875,0.12441086,13.787759,0.037911415,-0.2683488,30.336334,-0.0049608317,-0.005370714,-0.034480777,1.301102,-0.03518152,0.007789333,0.25243577,0.20425831,0.38186076,0.35533035,0.3768151,0.39989525,0.38793522,0.372391,97.247154,97.431984,97.600586,97.53082,0,0,0,0,0,0,0,0,0,0,0,0,-0.009113384,-0.0057613575,-0.016680244,-0.007924341,0.37692532,0.39993677,0.38829368,0.3724753,-0.0017009974,-0.007610753,0.016507827,0.01335356,164,6,231,2,0,706.4104,264.6358,-2829.2485,30.337545,622220.6,1409.132,126.32315,126.794785,124.54309,124.54309,0,1,-36.859882,0,0,2.188072,2.1880713,0,7,255,0,0,0,1,0,34,0
True,37544062,15999.99,0,4449.9014,-0.34021854,-0.2995045,13.606983,0.010037422,-0.27722275,31.941246,0.018956529,0.0009388754,-0.019149538,1.3009713,-0.03441664,0.004460281,0.23197034,0.20178606,0.36835903,0.34165403,0.43786424,0.39513648,0.39115313,0.39627722,102.87922,102.53058,102.788666,102.81657,0,0,0,0,0,0,0,0,0,0,0,0,-0.0038905118,-0.00021375559,-0.0054173474,0.001791935,0.43788153,0.39513654,0.39119065,0.39628127,-0.0042114183,-0.007914014,0.014902573,0.011727542,164,6,231,2,0,709.9423,264.7321,-2828.2744,31.94245,637470.56,1369.4211,126.420395,126.8286,124.78218,124.78218,0,1,-34.042313,0,0,2.305685,2.3056848,0,7,255,0,0,0,1,0,33,0
True,37544187,15999.99,0,4665.925,0.055081606,-0.9453035,13.222058,0.00027561188,-0.28029567,33.46455,0.033772983,0.0010604064,-0.0056228875,1.3010876,-0.030994313,0.0032718745,0.1667065,0.1542612,0.33077043,0.31444347,0.42307636,0.4110661,0.41296354,0.41709366,107.62088,107.52033,107.84854,107.86792,0,0,0,0,0,0,0,0,0,0,0,0,-0.0015924058,0.0013788904,-0.0016692947,0.0022958068,0.42307937,0.4110684,0.4129669,0.41709998,-0.012217099,-0.013743719,0.010433562,0.008492414,164,6,231,2,0,713.5758,264.82364,-2827.2705,33.465725,651399.7,1334.4751,126.53825,126.88519,125.020386,125.020386,0,1,-31.144384,0,0,2.420912,2.4209118,0,7,255,0,0,0,1,0,33,0
True,37544281,15999.99,0,4841.8516,0.092511654,-0.92285794,13.2190075,-0.001660347,-0.29375467,34.787617,0.009229754,-0.00016024438,-0.004102951,1.3011566,-0.028361851,0.0029685514,0.18039712,0.17028184,0.28884593,0.27932927,0.329912,0.3859267,0.41828176,0.40111533,111.03531,111.59357,112.167076,112.020424,0,0,0,0,0,0,0,0,0,0,0,0,-0.0003096171,0.0022514064,0.0004435417,0.0010623637,0.32991216,0.38593325,0.418282,0.40111673,-0.0105377175,-0.011778524,0.005449053,0.004317589,164,6,231,2,0,716.8849,264.89587,-2826.3557,34.788857,682884.2,1348.1323,126.64064,126.94887,125.232346,125.232346,0,1,-28.504484,0,0,2.5214925,2.5214922,0,7,255,0,0,0,1,0,33,0
True,37544406,15999.99,0,5045.6694,0.04331827,-0.013351064,13.471402,0.0036201477,-0.33104822,36.352448,-0.002727141,-0.0006849659,-0.014225043,1.3010893,-0.02948759,0.0014554382,0.20952518,0.19171974,0.32653886,0.31982672,0.38151577,0.36692,0.3432013,0.3471724,116.56864,116.43011,116.52141,116.56336,0,0,0,0,0,0,0,0,0,0,0,0,-0.0011068019,0.0020219448,-0.0021431718,0.0017046237,0.38151738,0.36692554,0.343208,0.34717658,-0.0069646835,-0.009148814,0.009930465,0.009132441,164,6,231,2,0,720.8636,264.97842,-2825.256,36.353954,712950.8,1350.6542,126.74774,127.02552,125.47453,125.47453,0,1,-25.330505,0,0,2.6374946,2.6374943,0,7,255,0,0,0,1,0,32,0
True,37544515,15999.99,0,5250.3926,-0.06735468,-0.47902927,12.954093,0.0016851425,-0.31622058,37.844868,0.010176929,0.0004813956,0.0040705074,1.3010868,-0.027554221,0.00077631924,0.16904387,0.17176703,0.31532803,0.30583093,0.33100465,0.31178072,0.37128708,0.3717546,120.8252,120.648605,121.532,121.539246,0,0,0,0,0,0,0,0,0,0,0,0,-0.0022428064,0.00015360033,-0.0022427975,0.0005468432,0.33101225,0.31178075,0.37129387,0.371755,-0.011930382,-0.011596343,0.008597579,0.0074684396,164,6,231,2,0,725.0139,265.0642,-2824.1091,37.84619,719433.8,1309.6289,126.87667,127.1093,125.70871,125.70871,0,1,-22.019634,0,0,2.7535155,2.7535155,0,7,255,0,0,0,1,0,32,0
True,37544625,15999.99,0,5446.265,2.8911207,-0.42859712,12.214559,0.051402092,-0.3258335,39.234512,0.020378811,0.17014149,0.018693473,1.3088042,-0.02661568,0.0022707502,0.19238357,0.17977414,0.30154893,0.29781908,0.27029234,0.5742217,0.29259968,0.37775713,125.02873,127.24691,125.55622,125.61322,0,0,0,0,0,0,0,0,0,0,0,0,0.39235315,0.43439803,0.03543251,0.038312376,0.47644407,0.7200224,0.29473722,0.379695,-0.009067383,-0.010614138,0.006959345,0.006515894,164,6,231,2,0,729.2451,265.14658,-2822.9548,39.235893,684346.56,1200.9366,127.017555,127.23732,125.93334,125.93334,0,1,-18.647446,0,0,2.8672376,2.8672376,0,7,255,0,0,0,1,127,31,0
True,37544734,15999.99,0,5612.363,2.920717,0.14446464,12.538021,-0.1913042,-0.32661995,40.652157,-0.02825285,0.058291394,0.0010810103,1.323451,-0.026853316,0.0017406318,0.24038117,0.22504364,0.33274794,0.31397673,0.24330544,0.27999794,0.2870891,0.3320418,129.0537,129.14513,129.81677,129.97034,0,0,0,0,0,0,0,0,0,0,0,0,0.026847256,0.02972222,0.060546268,0.06634176,0.24478218,0.28157106,0.29340416,0.33860448,-0.0031796917,-0.00506109,0.010668673,0.008436922,164,6,231,2,0,733.6609,265.2295,-2821.7986,40.653915,752765.2,1281.7755,127.14812,127.37015,126.1564,126.1564,0,1,-15.138474,0,0,2.9815059,2.9815059,0,7,255,0,0,0,1,0,29,0
True,37544859,15999.99,0,5821.473,1.9205484,-0.28688973,11.946519,-0.06732941,-0.32498157,42.01648,0.044634987,0.00097096985,-0.019566376,1.3257917,-0.026585987,0.0011491019,0.2456808,0.22997098,0.36021113,0.3485178,0.29557747,0.45784113,0.3320499,0.32272315,133.66862,135.48308,134.42917,134.31653,0,0,0,0,0,0,0,0,0,0,0,0,0.016640624,0.021369029,0.014281248,0.020906955,0.2960455,0.45833954,0.33235687,0.32339963,-0.0025296062,-0.004456673,0.013933849,0.012543596,164,6,231,2,0,738.2476,265.32172,-2820.6338,42.017788,723857.7,1188.3977,127.2631,127.47652,126.37556,126.37556,0,1,-11.500913,0,0,3.095933,3.095933,0,7,255,0,0,0,1,0,26,0
True,37544968,15999.99,0,5993.491,0.6574025,-1.3345314,11.392096,-0.0024328232,-0.29495776,43.30189,-0.0026714345,-0.00021322738,0.0067954273,1.3254027,-0.021218082,-0.0016537876,0.3266369,0.3192958,0.3607567,0.35473773,0.36106935,0.18045591,0.31857663,0.40534085,138.60919,136.58609,138.43904,139.28055,0,0,0,0,0,0,0,0,0,0,0,0,-0.0014513688,0.0015314504,-0.0034085512,0.0039681033,0.36107227,0.1804624,0.31859487,0.40536028,0.0074009895,0.006500479,0.01399871,0.013283096,164,6,231,2,0,742.9995,265.4007,-2819.4417,43.302895,751531.3,1198.2344,127.38732,127.60808,126.59947,126.59947,0,1,-7.735637,0,0,3.21077,3.2107697,0,7,255,0,0,0,1,0,23,0
True,37545062,15999.99,0,6103.1357,0.10783529,1.1857675,11.544798,-0.013310432,-0.31314117,44.438286,-0.019207234,0.0019423965,0.025344688,1.3257318,-0.02537407,0.00037773274,0.37332714,0.36806318,0.47642294,0.4580926,0.2189018,0.22976363,0.24007073,0.23613182,140.58496,140.70251,141.12692,141.10115,0,0,0,0,0,0,0,0,0,0,0,0,-0.0012693077,0.002568555,-0.0134683335,0.014749438,0.21890546,0.22977798,0.24044822,0.23659201,0.01312831,0.012482598,0.027750567,0.025571227,164,6,231,2,0,747.14923,265.47,-2818.4023,44.43939,752871,1178.9044,127.48805,127.69133,126.783516,126.783516,0,1,-4.447858,0,0,3.3082345,3.308234,0,7,255,0,0,0,1,0,20,0
True,37545187,15999.99,0,6286.6562,0.22539496,0.45878217,10.947252,-0.0144023895,-0.2812563,45.689766,0.006128127,0.00093636755,0.0113692265,1.3258754,-0.0258526,0.00231862,0.3319676,0.3297791,0.45134568,0.43493652,0.24395104,0.24884517,0.26776782,0.2688137,144.80344,144.85452,145.37962,145.3825,0,0,0,0,0,0,0,0,0,0,0,0,0.00042256317,0.0038746912,-0.010177321,0.013421079,0.24395141,0.24887533,0.26796114,0.26914853,0.008054886,0.0077864267,0.024769068,0.02281814,164,6,231,2,0,752.13806,265.56955,-2817.1536,45.690636,752787.5,1144.2277,127.60224,127.792656,126.986084,126.986084,0,1,-0.49518207,0,0,3.4223301,3.4223297,0,7,255,0,0,0,1,0,17,0
True,37545296,15999.99,0,6450.629,0.119543076,-0.1277338,10.666307,-0.011151314,-0.27953848,46.92134,-0.00373758,0.0006119242,0.015780687,1.3259165,-0.025188832,0.0034203236,0.2572098,0.29540107,0.3826742,0.38368216,0.24212545,0.1999316,0.25985202,0.27548462,148.67557,148.18372,149.19693,149.34036,0,0,0,0,0,0,0,0,0,0,0,0,0.00012802955,0.002472961,-0.0034844088,0.00668011,0.24212548,0.19994691,0.2598754,0.2755656,-0.0011153817,0.0035694018,0.016604539,0.016724382,164,6,231,2,0,757.3126,265.67303,-2815.859,46.92218,752704.2,1114.932,127.72252,127.90209,127.19153,127.19153,0,1,3.6048536,0,0,3.5375004,3.5375,0,7,255,0,0,0,1,0,13,0
True,37545406,15999.99,0,6603.329,0.0006840229,0.604815,10.388023,-0.011113167,-0.30132633,48.122433,-0.024494955,-0.0012109489,0.0152896885,1.325929,-0.027218115,0.0061030546,0.27658638,0.2894266,0.3511533,0.37227482,0.1874959,0.21472886,0.24399322,0.23804575,151.8314,152.16818,152.79549,152.74773,0,0,0,0,0,0,0,0,0,0,0,0,0.0006657351,0.002910792,-0.0020847854,0.0051366175,0.1874971,0.21474859,0.24400213,0.23810117,0.0012614727,0.002836533,0.012856942,0.015368126,164,6,231,2,0,762.6452,265.78278,-2814.5251,48.123375,752250.3,1088.4427,127.84381,128.00975,127.39526,127.39526,0,1,7.829717,0,0,3.6531453,3.6531448,0,7,255,0,0,0,1,0,9,0
True,37545500,15999.99,0,6745.4375,-0.19338298,0.14802007,10.052786,-0.011839867,-0.30089244,49.089394,0.015336232,4.9884013E-05,0.041552037,1.3257993,-0.027581342,0.008106756,0.21982208,0.26510295,0.32623556,0.34806168,0.26676792,0.20600618,0.254149,0.2554771,155.77525,155.09647,155.97473,155.96559,0,0,0,0,0,0,0,0,0,0,0,0,-0.0013844438,0.0011736479,-0.0019524707,0.0029305972,0.2667715,0.20600954,0.2541565,0.2554939,-0.0057016015,-0.00014716014,0.009894401,0.012489367,164,6,231,2,0,767.2237,265.88443,-2813.38,49.090317,752700.44,1066.1179,127.94508,128.10233,127.566345,127.566345,0,1,11.457255,0,0,3.7502303,3.7502296,0,7,255,0,0,0,1,0,6,0
True,37545625,15999.99,0,6509.631,0.12896919,0.4668276,-5.460607,0.1573906,-0.3134358,47.475998,-0.021858795,0.015820233,0.038716033,1.3260771,-0.02824109,0.012600593,0.24130616,0.30580458,0.31439447,0.36786026,0.2170726,0.17202003,0.23449394,0.22420245,150.18404,149.58966,150.66486,150.49533,0,0,0,0,0,0,0,0,0,0,0,0,-0.044231556,-0.040642217,-0.033094943,-0.027637674,0.22153316,0.176756,0.23681784,0.22589949,-0.0030662268,0.0048455633,0.008486584,0.014843274,164,6,231,2,0,772.4581,265.99524,-2812.1028,47.47729,752672.8,1104.7848,128.08987,128.23581,127.78807,127.78807,0,1,15.597717,0,0,3.8638945,3.863894,0,7,255,0,0,0,1,0,2,0
True,37545734,15999.99,0,6667.9033,-0.44552505,0.55080754,7.69024,-0.018111229,-0.30116552,48.5946,-0.007446844,0.009390501,0.066794954,1.3276507,-0.029600674,0.018923981,0.25405878,0.3113902,0.33558264,0.38491237,0.22167484,0.20836191,0.23332131,0.23836747,153.7266,153.53677,154.18231,154.19147,0,0,0,0,0,0,0,0,0,0,0,0,-0.0048104897,-0.0021368987,-0.00034304304,0.006835452,0.22172704,0.20837288,0.23332156,0.23846546,-0.0015019104,0.00553073,0.0110057,0.01687064,164,6,231,2,0,777.75726,266.11963,-2810.7903,48.595535,752688.94,1078.4858,128.21024,128.34692,127.98345,127.98345,0,1,19.794912,0,0,3.977533,3.9775324,0,7,255,0,0,0,1,0,255,0
True,37545859,15999.99,0,6810.916,-1.1971183,0.4630291,9.5658655,-0.07928085,-0.29852745,49.704468,-0.029396644,-0.053811524,0.055184033,1.3266732,-0.030444646,0.026602175,0.24693516,0.32075113,0.32889256,0.39629793,0.18607292,0.17026189,0.23998365,0.21976903,156.68623,156.71307,157.62555,157.60786,0,0,0,0,0,0,0,0,0,0,0,0,-0.13093086,-0.12605605,-0.0022285995,0.0060574,0.22752146,0.2118472,0.23999399,0.21985249,-0.0023757368,0.006679002,0.010210298,0.018224303,164,6,231,2,0,783.1189,266.25082,-2809.4556,49.705425,752574.44,1055.6451,128.3329,128.46225,128.17795,128.17795,0,1,24.04253,0,0,4.089947,4.0899467,0,7,255,0,0,0,1,-99,252,0
True,37545968,15999.99,0,6951.0107,-6.4814215,1.5156516,9.297142,0.059012413,-0.29612142,50.642838,-0.015092649,-0.29364222,0.018865751,1.3089306,-0.03348517,0.030564956,0.2544598,0.33917394,0.3331577,0.4180813,0.33664253,0.18182151,0.26597217,0.17081107,160.9299,160.35118,160.38991,160.55121,0,0,0,0,0,0,0,0,0,0,0,0,-0.49286482,-0.44091055,-0.08273966,-0.06631428,0.5968617,0.4769289,0.27854452,0.1832321,-0.0014527179,0.00893886,0.010717396,0.02081418,164,6,231,2,0,788.0479,266.38412,-2808.186,50.643734,752288.7,1034.1097,128.49605,128.63518,128.35527,128.35527,-5.5259323,1,27.956337,0,0,4.1913843,4.191384,0,7,255,0,0,0,1,-127,250,0
True,37546078,15999.99,0,7108.2573,-11.856673,0.44922173,8.891886,0.87122536,-0.2690373,51.520237,0.0015066424,-0.4534531,0.036215127,1.2667679,-0.032112338,0.0342344,0.1969183,0.33982638,0.29021072,0.44021493,0.4471266,0.14649844,0.3866413,0.20713821,164.5555,163.09985,164.38756,164.2974,0,0,0,0,0,0,0,0,0,0,0,0,-0.19948281,-0.1763007,-0.28376433,-0.24361947,0.48960757,0.2292242,0.47959742,0.319776,-0.008511126,0.009018894,0.0056113154,0.023445703,164,6,231,2,0,793.19196,266.53253,-2806.7427,51.5283,742231.8,997.3051,128.78659,128.95172,128.56927,128.56927,-10.880933,1,32.065266,0,0,4.295993,4.2959924,0,7,255,0,0,0,1,0,250,0
True,37546187,15999.99,0,7206.2783,-13.425389,1.0072383,9.0149145,1.0884914,-0.28127417,52.517635,-0.034594327,-0.18212733,0.052710045,1.2315521,-0.033112507,0.03960799,0.19388613,0.35904488,0.28780603,0.40338466,0.31320614,0.115443364,0.2818109,0.1844413,166.94237,165.18832,166.75656,166.48405,0,0,0,0,0,0,0,0,0,0,0,0,-0.1791621,-0.15157677,-0.2557956,-0.2238338,0.3608284,0.19053264,0.38059002,0.29003477,-0.00888307,0.011376359,0.0053254142,0.019066859,164,6,231,2,0,798.7383,266.69385,-2805.0122,52.529667,752254.56,997.2378,128.95485,129.11777,128.8418,128.8418,-14.7,1,36.531086,0,0,4.407668,4.407667,0,7,255,0,0,0,1,0,254,0
True,37546296,15999.99,0,7344.1777,-9.164091,-0.68761086,8.863443,0.43561745,-0.29925674,53.490158,0.032109916,0.0023481606,0.060107272,1.2243695,-0.03149705,0.046110623,0.18430799,0.3100748,0.26147965,0.39969516,0.2536513,0.1862288,0.26881453,0.24261002,169.53528,168.62657,170.03307,169.75989,0,0,0,0,0,0,0,0,0,0,0,0,-0.09387069,-0.087588765,-0.087793656,-0.07767194,0.27046382,0.20579834,0.28278786,0.25474018,-0.010057986,0.0053693764,0.002195403,0.018628202,164,6,231,2,0,804.3003,266.8578,-2803.106,53.49277,752283.8,978.5036,129.10507,129.26279,129.06053,129.06053,-14.7,1,41.051003,0,0,4.5186086,4.5186076,0,7,255,0,0,0,1,0,6,0
True,37546390,15999.99,0,7426.224,-6.3983965,0.122194976,8.760242,0.038173676,-0.33017975,54.289585,-0.019207586,-0.09523396,0.10015394,1.2220967,-0.032156616,0.053763084,0.22511935,0.38476726,0.27344456,0.4082575,0.2391559,0.15461186,0.20961115,0.17366175,171.71646,171.03171,171.60057,171.55118,0,0,0,0,0,0,0,0,0,0,0,0,-0.2645849,-0.2449573,-0.032618098,-0.024109947,0.3566521,0.28967032,0.21213385,0.17532739,-0.005051803,0.014531631,0.0036179423,0.019646205,164,6,231,2,0,808.91754,266.98428,-2801.4585,54.2906,752273.8,967.7833,129.21983,129.38638,129.2143,129.2143,-14.7,1,44.81734,0,0,4.60958,4.609579,0,7,255,0,0,0,1,-127,12,0
True,37546515,15999.99,0,7566.896,-12.372942,1.5425587,8.234405,0.2795353,-0.27710032,55.31742,-0.09201787,-0.40395147,-0.025960432,1.18976,-0.03221997,0.05966448,0.28695396,0.39272505,0.32171568,0.43731102,0.24202968,0.1144112,0.2637591,0.13686073,174.21605,174.39087,174.89925,175.09546,0,0,0,0,0,0,0,0,0,0,0,0,-0.573047,-0.4887143,-0.13779974,-0.10988318,0.6220621,0.50192785,0.29758635,0.17551403,0.0025332235,0.015507784,0.009357024,0.02310045,164,6,231,2,0,815.50397,267.16812,-2798.984,55.318817,752279.75,949.53076,129.52733,129.71832,129.43057,129.43057,-14.7,1,50.285442,0,0,4.737977,4.737976,0,7,255,0,0,0,1,-127,16,0
True,37546625,15999.99,0,7716.75,-18.483595,3.7138555,7.9346194,1.185318,-0.22262621,56.053013,-0.004280368,-0.5449919,-0.0114238765,1.1353707,-0.036784317,0.059114546,0.29798004,0.42694914,0.35219833,0.48625568,0.5097227,0.17743567,0.3220431,0.14623941,179.75758,177.7854,177.87161,177.95525,0,0,0,0,0,0,0,0,0,0,0,0,-0.80471945,-0.6794097,-0.33129892,-0.26917633,0.95257056,0.7021972,0.46202892,0.3063362,0.0038857535,0.019705929,0.012981188,0.028919607,164,6,231,2,0,820.966,267.35568,-2796.7031,56.065987,752262.75,931.53455,129.86322,130.14783,129.66916,129.66916,-14.7,1,54.84186,0,0,4.8442807,4.8442802,0,7,255,0,0,0,1,-127,20,0
True,37546734,15999.99,0,7873.174,-17.494003,-0.6578313,6.8214836,2.5045376,-0.16865653,56.617996,0.024271045,-0.5415791,-0.035330784,1.0780742,-0.030229082,0.05931144,0.23018001,0.3253537,0.28318518,0.40757382,0.5598238,0.22797465,0.56246805,0.26350877,182.04774,180.07663,182.86221,181.61946,0,0,0,0,0,0,0,0,0,0,0,0,-1.0616459,-0.9109417,-0.61112434,-0.5067716,1.200206,0.9390353,0.8305681,0.5711868,-0.0044310316,0.007243585,0.0047760345,0.019564923,164,6,231,2,0,826.50323,267.55267,-2794.152,56.67361,627849.44,761.8117,130.35631,130.62868,129.96829,129.96829,-14.7,1,59.53534,0,0,4.952454,4.9524536,0,7,255,0,0,0,1,-127,24,0
True,37546843,15999.99,0,7916.634,-24.84845,2.0584798,7.117696,3.4414692,-0.1739003,57.08757,-0.037108757,-0.57143474,-0.04597599,1.0129668,-0.031260133,0.05443854,0.24158421,0.38189137,0.28200218,0.41695625,0.7598944,0.19897814,0.42128935,0.18157744,186.09619,181.19785,182.63522,182.14352,0,0,0,0,0,0,0,0,0,0,0,0,-1.2944603,-1.0180813,-0.7320285,-0.58893067,1.501022,1.0373436,0.84460074,0.61628705,-0.003032118,0.0141788535,0.0046353787,0.020680424,164,6,231,2,0,831.9699,267.73737,-2791.3586,57.19147,642649.6,775.437,131.33635,131.38948,130.36844,130.36844,0,1,64.25413,0,0,5.0603123,5.0603113,0,7,255,0,0,0,1,-127,27,0
True,37546953,15999.99,0,7983.9946,-24.246708,0.8734454,7.252931,3.7840023,-0.13874018,57.572083,-0.037094407,-0.39981917,-0.018610418,0.9616097,-0.029463993,0.054127894,0.22419693,0.39818063,0.24050714,0.41312864,0.47223014,0.13390519,0.49231216,0.24357988,184.9372,182.01025,185.45732,184.30292,0,0,0,0,0,0,0,0,0,0,0,0,-0.61388034,-0.5015439,-0.78153175,-0.6313821,0.7745001,0.51911163,0.9236683,0.67673814,-0.005164955,0.016176999,-0.00029807165,0.02022535,164,6,231,2,0,837.2877,267.92795,-2788.3074,57.696472,694902.8,831.22064,132.30258,132.20465,130.80435,130.80435,0,1,69.13195,0,0,5.1671357,5.1671357,0,7,255,0,0,0,1,0,28,0
True,37547046,15999.99,0,8015.0273,-27.028557,2.1985533,8.287266,2.4749985,-0.18709427,58.323036,-0.06869188,-0.13864018,-0.014342317,0.9328455,-0.03337562,0.05272425,0.24733968,0.43773827,0.26805237,0.47574288,0.33155394,0.11341949,0.32366687,0.17904237,185.81564,183.36597,185.88846,184.87218,0,0,0,0,0,0,0,0,0,0,0,0,-0.4261471,-0.3559025,-0.47142962,-0.37179002,0.5399346,0.3735379,0.5718445,0.41265482,-0.002326116,0.02102939,0.0029768534,0.027669713,164,6,231,2,0,842.51196,268.1222,-2784.9568,58.37582,752264.7,896.27325,132.53745,132.59013,131.19391,131.19391,0,1,73.909096,0,0,5.2741528,5.2741523,0,7,255,0,0,0,1,0,27,0
True,37547156,15999.99,0,8074.821,-18.823505,1.9724445,7.9565415,0.7140026,-0.25337517,59.139618,-0.049302075,0.0016368777,0.042186406,0.9296855,-0.038046863,0.054509852,0.22459996,0.37274024,0.25224584,0.44422683,0.17802761,0.10669084,0.21386419,0.16482837,186.37003,185.29733,187.11111,186.56056,0,0,0,0,0,0,0,0,0,0,0,0,-0.265166,-0.23906979,-0.12691951,-0.10325723,0.3193851,0.2617963,0.24868947,0.1945005,-0.0051155165,0.013056319,0.0010975748,0.02392269,164,6,231,2,0,847.5352,268.3286,-2781.4094,59.14447,752273.1,889.89703,132.67355,132.82295,131.43286,131.43286,0,1,78.64466,0,0,5.378862,5.3788605,0,7,255,0,0,0,1,-127,26,0
True,37547281,15999.99,0,8204.682,-12.86775,2.1108115,7.040582,0.29088593,-0.2592532,59.976685,-0.010270814,-0.28693005,-0.019736744,0.91196465,-0.042034373,0.055805076,0.25817865,0.32475924,0.35067448,0.41884917,0.27772954,0.14403014,0.24329373,0.14655977,189.6871,189.03915,189.56927,189.52686,0,0,0,0,0,0,0,0,0,0,0,0,-0.6022077,-0.5288791,-0.10854526,-0.0872637,0.66316503,0.5481403,0.2664093,0.17057174,-0.0009965375,0.0071706623,0.012800012,0.020905472,164,6,231,2,0,853.26697,268.5911,-2777.1292,59.97795,752251.3,875.90875,132.86922,133.10004,131.62953,131.62953,0,1,84.26316,0,0,5.4990087,5.4990067,0,7,255,0,0,0,1,-127,21,0
True,37547390,15999.99,0,8314.7705,-1.6376181,-0.31419864,1.6005139,2.646761,-0.24982554,60.11235,0.026712023,-0.38537705,-0.02388607,0.8689302,-0.038424622,0.054418,0.2037449,0.33843243,0.26852167,0.38464186,0.57748574,0.1796355,0.4037357,0.19909947,194.08505,190.19368,192.42038,191.5077,0,0,0,0,0,0,0,0,0,0,0,0,-1.0563931,-0.85926396,-0.52034044,-0.42925808,1.2039336,0.8778402,0.65860206,0.473184,-0.007673729,0.008847903,0.0030326508,0.016838476,164,6,231,2,0,858.8224,268.85403,-2772.8562,60.171112,691922.1,794.8931,133.22075,133.55695,131.87021,131.87021,0,1,89.62969,0,0,5.61568,5.6156783,0,7,255,0,0,0,1,-127,9,0
True,37547500,15999.99,0,8289.703,-18.72944,2.6213996,4.456518,3.0855522,-0.15709835,60.45105,-0.081597425,-0.43873942,-0.076909766,0.82556504,-0.039327953,0.052086182,0.33077136,0.510224,0.26172554,0.46353802,0.22430892,0.0847635,0.330039,0.13502362,190.44228,190.43419,192.2631,191.72107,0,0,0,0,0,0,0,0,0,0,0,0,-0.40321055,-0.3269105,-0.58265936,-0.44166303,0.46140355,0.33772078,0.66963995,0.46184152,0.007908147,0.02992095,0.002224639,0.026218645,164,6,231,2,0,863.44586,269.07303,-2769.165,60.52994,752206.6,866.5388,133.82562,134.19746,132.18338,132.18338,0,1,94.167366,0,0,5.7138166,5.7138157,0,6,255,0,0,0,1,0,250,0
True,37547625,15999.99,0,8351.923,-21.322548,2.5246696,5.9730563,2.2554321,-0.096936464,61.093323,-0.08957784,-0.13126746,-0.050209284,0.79026407,-0.043047905,0.047564723,0.376244,0.5116808,0.36737135,0.5210654,0.17137067,0.08822784,0.2604375,0.14550295,192.27055,191.66183,193.76678,192.99278,0,0,0,0,0,0,0,0,0,0,0,0,-0.33299464,-0.28653425,-0.39841145,-0.30498317,0.37450412,0.29981,0.47598255,0.33791396,0.013486113,0.030099645,0.014785141,0.033058226,164,6,231,2,0,869.44714,269.4028,-2763.9104,61.135014,752285.3,860.2173,134.05681,134.60513,132.59938,132.59938,0,1,100.27342,0,0,5.845136,5.8451347,0,6,255,0,0,0,1,0,236,0
True,37547718,15999.99,0,8385.314,-18.321943,5.2988405,6.2500496,0.8851414,-0.13882214,61.643486,-0.077815026,0.0339139,-0.016442282,0.7867365,-0.052390933,0.04455019,0.44990966,0.51822543,0.4365764,0.6251079,0.13289699,0.106558286,0.13860537,0.11421829,193.6562,193.12584,193.98767,193.60721,0,0,0,0,0,0,0,0,0,0,0,0,-0.15529259,-0.14803213,-0.1386439,-0.0790885,0.2043952,0.18239567,0.19604485,0.13892734,0.022522412,0.03090246,0.023013107,0.045428105,164,6,231,2,0,873.20074,269.6456,-2760.3574,61.64999,752265.3,856.94324,134.17975,134.81732,132.79836,132.79836,0,1,104.24529,0,0,5.9294252,5.9294233,0,6,255,0,0,0,1,0,230,0
True,37547843,15999.99,0,8515.798,-3.7986279,1.9651345,6.167206,0.046714783,-0.19404784,62.5028,-0.05336722,0.029502502,-0.033893235,0.79187787,-0.0572206,0.041918483,0.39474562,0.3672946,0.41932926,0.43213728,0.101150714,0.105719745,0.17355518,0.1753239,195.8366,195.76604,197.19043,197.08371,0,0,0,0,0,0,0,0,0,0,0,0,-0.013103493,-0.01248798,-0.0096576605,0.00920295,0.10199592,0.10645475,0.17382368,0.17556527,0.015755638,0.0123883225,0.020962551,0.02248533,164,6,231,2,0,878.9406,270.07,-2754.7336,62.503117,752262.4,843.7148,134.2817,134.95038,133.00365,133.00365,0,1,110.42741,0,0,6.0590563,6.0590544,0,6,255,0,0,0,1,0,221,0
True,37547953,15999.99,0,8599.265,-0.52214956,3.8163314,6.509593,-0.045139313,-0.21895397,63.237473,-0.05329716,0.005499889,-0.052659523,0.7932884,-0.06524128,0.03715942,0.4165183,0.36242566,0.43877822,0.41975814,0.09812529,0.10360707,0.13724902,0.13917132,198.00386,198.04117,198.89935,198.91246,0,0,0,0,0,0,0,0,0,0,0,0,0.007366446,0.008475081,-1.4370506E-05,0.017947925,0.098401405,0.10395313,0.13724902,0.14032385,0.018426415,0.011791065,0.023274891,0.021013543,164,6,231,2,0,883.884,270.4738,-2749.8604,63.23787,752252.94,835.58484,134.37663,135.05429,133.18524,133.18524,-6.1694984,1,115.77076,0,0,6.1696267,6.169625,0,6,255,0,0,0,1,0,214,0
True,37548062,15999.99,0,8706.911,0.25729537,4.0421925,6.3111863,-0.0222435,-0.22154522,63.98485,-0.019791912,0.0005134903,-0.084956385,0.7933481,-0.073150426,0.030316127,0.4028552,0.34833747,0.46769267,0.42454562,0.117786214,0.12856612,0.14054379,0.14186506,200.62549,200.77101,201.28085,201.29788,0,0,0,0,0,0,0,0,0,0,0,0,0.006365832,0.008408253,-0.00671326,0.015728272,0.11795811,0.12884077,0.14070404,0.14273427,0.01675041,0.010062918,0.026712604,0.021582738,164,6,231,2,0,889.2431,270.97223,-2744.5813,63.98524,752572.7,825.72296,134.4821,135.16522,133.38518,133.38518,-10.872852,1,121.56207,0,0,6.28812,6.288119,0,6,255,0,0,0,1,0,207,0
True,37548187,15999.99,0,8788.832,-0.1330843,3.773124,6.4720306,-0.021541595,-0.23108351,64.712585,-0.09631362,-0.0067926524,-0.09216943,0.7932661,-0.078707725,0.020180691,0.45974517,0.35375443,0.51011616,0.41896027,0.08663119,0.091828465,0.11934,0.11605979,202.4511,202.54828,203.23283,203.22765,0,0,0,0,0,0,0,0,0,0,0,0,-0.041429896,-0.041310355,-0.013625295,0.012646366,0.09602811,0.10069267,0.1201153,0.11674675,0.0237289,0.010727398,0.031756446,0.020918682,164,6,231,2,0,894.5631,271.50644,-2739.3438,64.713,752261,817.5113,134.58725,135.27669,133.56718,133.56718,-12.974583,1,127.311646,0,0,6.404419,6.4044175,0,6,255,0,0,0,1,-13,199,0
True,37548281,15999.99,0,8899.563,-4.922576,2.829071,5.7586756,0.10328293,-0.21422124,65.2832,-0.00370688,-0.22158204,-0.10975391,0.78250456,-0.083373055,0.010615872,0.4018652,0.33306158,0.4331407,0.37164,0.16865443,0.11235812,0.20697017,0.13468549,204.87897,205.03273,205.90118,205.78328,0,0,0,0,0,0,0,0,0,0,0,0,-0.38257968,-0.34993023,-0.06188346,-0.04373853,0.4181047,0.3675262,0.21602364,0.14160946,0.016628973,0.008189078,0.02260463,0.015292652,164,6,231,2,0,899.2072,272.02164,-2734.7378,65.28364,752252.94,807.4253,134.70425,135.41571,133.73508,133.73508,0,1,132.35123,0,0,6.5053425,6.505341,0,6,255,0,0,0,1,-127,193,0
True,37548406,15999.99,0,8954.955,-12.759123,5.469279,5.984436,0.96871185,-0.24452972,65.91787,-0.10509218,-0.32260665,-0.09904095,0.743384,-0.09302886,-0.00024091454,0.44284365,0.43664005,0.44975024,0.45888045,0.110497065,0.070707746,0.15054508,0.08696499,205.85345,206.75482,206.87865,207.28957,0,0,0,0,0,0,0,0,0,0,0,0,-0.07198574,-0.064705946,-0.19458175,-0.155514,0.13187702,0.095845945,0.24602008,0.17817831,0.021655649,0.020894676,0.024579383,0.025664896,164,6,231,2,0,904.50635,272.66006,-2729.279,65.925446,752434,802.57495,134.96042,135.74854,133.93576,133.93576,-0.37918186,1,138.21938,0,0,6.621713,6.6217117,0,6,255,0,0,0,1,0,189,0
True,37548515,15999.99,0,9075.498,-11.991541,1.836699,5.716221,0.91026306,-0.21157455,66.526245,0.024224624,-0.05367155,-0.0064922515,0.7225661,-0.096305735,-0.0043170284,0.3552217,0.40993097,0.41813514,0.46489513,0.20221996,0.121881865,0.19165348,0.15373503,209.82176,208.755,209.86632,209.65294,0,0,0,0,0,0,0,0,0,0,0,0,-0.13684912,-0.12427565,-0.15558955,-0.12565313,0.24417329,0.17406788,0.24685858,0.19855268,0.010907382,0.01761837,0.02082058,0.026379995,164,6,231,2,0,909.6633,273.3642,-2723.6995,66.5328,752496.94,791.9449,135.06094,135.90092,134.1755,134.1755,-1.3543968,1,144.08533,0,0,6.7369175,6.7369165,0,6,255,0,0,0,1,0,190,0
True,37548625,15999.99,0,9140.627,-6.571869,0.8113114,5.5910306,0.2852173,-0.23704958,67.171326,-0.0129535515,0.015192891,0.019263541,0.72122335,-0.09745122,-0.0025263529,0.31670636,0.3832106,0.3548702,0.42415544,0.116831176,0.10879425,0.15545237,0.14716984,210.61215,210.40715,211.49179,211.34167,0,0,0,0,0,0,0,0,0,0,0,0,-0.04832496,-0.04606579,-0.043350678,-0.030779071,0.12643111,0.11814502,0.16138376,0.15035395,0.0061828457,0.01434068,0.013298847,0.02153635,164,6,231,2,0,914.7124,274.07236,-2718.0564,67.172356,752435.44,786.2667,135.1659,136.03033,134.35385,134.35385,-4.437475,1,149.94022,0,0,6.850662,6.8506603,0,6,255,0,0,0,1,0,195,0
True,37548734,15999.99,0,9227.074,-2.2416573,0.10117531,5.31616,0.038410187,-0.24989915,67.69785,0.038978692,0.014157546,0.0058030915,0.7227739,-0.097885765,-0.0015632515,0.32293117,0.3559308,0.3685335,0.4161944,0.1582992,0.15267293,0.1604497,0.16397311,212.88756,212.72379,213.25449,213.2479,0,0,0,0,0,0,0,0,0,0,0,0,-0.010866014,-0.008192392,-0.0070330547,0.004425397,0.15867169,0.15289257,0.16060378,0.16403282,0.0069464184,0.010994364,0.014923312,0.020589843,164,6,231,2,0,919.0987,274.69995,-2713.0955,67.698326,752265.94,778.79047,135.24625,136.11449,134.50023,134.50023,-7.3018866,1,155.05101,0,0,6.9492807,6.949279,0,6,255,0,0,0,1,0,200,0
True,37548843,15999.99,0,9317.946,1.0472457,-1.3865118,5.1664395,-0.010040283,-0.2721343,68.252335,0.060901493,0.074014306,0.04699846,0.72537345,-0.095436186,0.0007060431,0.29215202,0.32839948,0.35924163,0.3787821,0.18569559,0.21939637,0.15659256,0.18130916,215.2131,215.4783,215.07164,215.15062,0,0,0,0,0,0,0,0,0,0,0,0,0.2314294,0.24245422,0.008320311,0.015743311,0.29671943,0.32698444,0.15681346,0.18199138,0.0031708516,0.007617198,0.013818577,0.016141795,164,6,231,2,0,923.83545,275.3661,-2707.7349,68.25288,752259.94,771.315,135.33499,136.20715,134.65453,134.65453,-10.149455,1,160.5712,0,0,7.054952,7.0549507,0,6,255,0,0,0,1,68,206,0
True,37548953,15999.99,0,9389.59,7.732848,-2.5189693,5.1344795,-0.5537338,-0.2961793,68.78458,0.010698238,0.29864323,0.030723918,0.7459769,-0.09100384,0.003926644,0.31890064,0.29728594,0.33390123,0.33025387,0.108031765,0.23955575,0.14213993,0.22095975,216.18806,216.79947,217.09514,216.9841,0,0,0,0,0,0,0,0,0,0,0,0,0.13703421,0.15265457,0.117415264,0.1309251,0.1744971,0.2840605,0.18436404,0.25683573,0.006452009,0.003800612,0.010805797,0.010372147,164,6,231,2,0,928.6559,276.00616,-2702.3557,68.78744,752257.5,764.98663,135.56104,136.39688,134.81482,134.81482,-12.9429865,1,166.15831,0,0,7.160788,7.1607866,0,6,255,0,0,0,1,0,211,0
True,37549062,15999.99,0,9451.999,8.761296,-1.8741719,5.321991,-0.94742966,-0.3056941,69.32376,0.022903845,0.07850895,0.0192644,0.7649276,-0.08843218,0.0039117956,0.31376788,0.25335434,0.3259609,0.29285437,0.11264172,0.20647117,0.14721064,0.18333435,217.43544,218.66792,218.34198,218.49377,0,0,0,0,0,0,0,0,0,0,0,0,0.11817679,0.13139822,0.13925444,0.14920919,0.16326025,0.24473625,0.20263952,0.23637865,0.0058223903,-0.0015883185,0.009861749,0.0059256256,164,6,231,2,0,933.5356,276.62125,-2697.0583,69.3309,752271.1,760.1596,135.68117,136.50114,135.01947,135.01947,-14.7,1,171.71379,0,0,7.2654476,7.2654457,0,6,255,0,0,0,1,0,215,0
True,37549187,15999.99,0,9622.124,4.639067,-5.337799,4.73037,-0.3753128,-0.3002634,69.91464,0.115132116,-0.032434274,-0.0037607662,0.7653346,-0.07894279,0.005099699,0.24332784,0.21337485,0.31732607,0.27845815,0.2773186,0.34987918,0.25486037,0.27970827,221.8339,223.197,221.83266,222.28255,0,0,0,0,0,0,0,0,0,0,0,0,0.06601022,0.07016315,0.049182683,0.052308775,0.28506657,0.35684493,0.2595626,0.28455743,-0.0028182343,-0.0064924583,0.008835129,0.0042140186,164,6,231,2,0,939.4701,277.31445,-2690.774,69.91629,752261.56,746.94336,135.79033,136.60715,135.22873,135.22873,0,1,178.37984,0,0,7.3899794,7.3899775,0,6,255,0,0,0,1,0,218,0
True,37549281,15999.99,0,9623.668,1.5571039,-5.3358455,5.6778917,-0.030223846,-0.37762213,70.51439,0.038421784,-0.02619606,-0.01609974,0.7619148,-0.07084054,0.0047113393,0.21479401,0.20180124,0.27287436,0.24724633,0.19326426,0.19834569,0.1667786,0.16757692,222.38133,222.58267,222.0665,222.19475,0,0,0,0,0,0,0,0,0,0,0,0,0.010380316,0.012860365,0.0007130818,0.0013755421,0.19354282,0.19876218,0.16678011,0.16758257,-0.0063183755,-0.0079121515,0.0035501495,0.0005031675,164,6,231,2,0,944.6301,277.832,-2685.355,70.5154,752263.75,746.6063,135.89552,136.71687,135.39043,135.39043,-0.23996735,1,184.1592,0,0,7.4968147,7.496813,0,6,255,0,0,0,1,0,221,0
True,37549390,15999.99,0,9723.433,-0.12438989,-5.831953,5.3161893,0.086330414,-0.3653717,71.044014,0.059371956,-0.0130820265,-0.004653182,0.7599049,-0.06216315,0.002645471,0.22166619,0.21439879,0.29851875,0.287884,0.19357485,0.15788797,0.24517559,0.23166534,223.93146,223.40395,225.13327,224.94571,0,0,0,0,0,0,0,0,0,0,0,0,-0.010734399,-0.008487869,-0.014872111,-0.014203237,0.19387224,0.15811594,0.24562623,0.23210032,-0.0054753907,-0.0063668564,0.00659908,0.0053346865,164,6,231,2,0,949.71985,278.2848,-2680.015,71.045006,752265,738.63525,135.97433,136.79625,135.53073,135.53073,-1.7313471,1,189.83946,0,0,7.601245,7.6012435,0,6,255,0,0,0,1,0,226,0
True,37549515,15999.99,0,9874.722,-0.44669318,-5.7484117,4.4803514,0.054958344,-0.3547548,71.6196,0.12675938,0.0016479951,0.015474867,0.7593322,-0.05372521,0.003955285,0.17492813,0.18194152,0.2693329,0.26717865,0.2898166,0.31087658,0.31596604,0.3093736,227.41942,227.88371,228.29625,228.24068,0,0,0,0,0,0,0,0,0,0,0,0,-0.011013704,-0.00828186,-0.008968299,-0.008460462,0.2900258,0.31098688,0.3160933,0.30948925,-0.011208579,-0.010348272,0.0031290986,0.0028729774,164,6,231,2,0,955.6234,278.7462,-2673.8103,71.62048,752266.4,727.8654,136.06989,136.88751,135.69702,135.69702,-3.5643864,1,196.431,0,0,7.721429,7.721428,0,6,255,0,0,0,1,0,232,0
True,37549609,15999.99,0,9875.363,1.7161481,-6.246795,5.472755,-0.016498566,-0.38822126,72.19154,0.05812827,0.113327235,0.0051123835,0.76311845,-0.04475871,0.0036956137,0.18890914,0.19268385,0.230398,0.23929884,0.1602588,0.21365488,0.2021726,0.24202032,227.22101,227.64296,228.32692,228.49307,0,0,0,0,0,0,0,0,0,0,0,0,0.2757092,0.29236892,0.019104281,0.021521596,0.31890196,0.362116,0.20307323,0.24297534,-0.009493578,-0.009030551,-0.0014999732,-0.00044173002,164,6,231,2,0,960.6943,279.06592,-2668.4841,72.19259,752264.4,727.44434,136.17892,136.99509,135.84299,135.84299,0,1,202.08394,0,0,7.8237934,7.8237925,0,6,255,0,0,0,1,68,237,0
True,37549734,15999.99,0,9919.4375,5.149933,-2.2094672,5.1320357,-0.6095047,-0.3552401,72.807175,0.062275212,0.07967897,0.023048665,0.78107846,-0.041719556,0.004657062,0.33133894,0.31446782,0.37514636,0.33466697,0.14197886,0.18049599,0.1406356,0.16949755,228.82045,229.11992,229.10066,229.19238,0,0,0,0,0,0,0,0,0,0,0,0,0.06835877,0.0738444,0.087362476,0.0977558,0.15757829,0.19501743,0.1655614,0.1956671,0.007977769,0.005908251,0.015709538,0.0108968355,164,6,231,2,0,966.65784,279.39246,-2662.3132,72.810585,752260.2,724.4353,136.33586,137.13113,136.03561,136.03561,0,1,208.68495,0,0,7.942213,7.9422116,0,6,255,0,0,0,1,0,241,0
True,37549828,15999.99,0,9977.586,4.346427,-3.5497103,5.204912,-0.45612335,-0.2965817,73.32851,-0.038555782,0.022285098,0.04846466,0.7847329,-0.035409186,0.0086949915,0.2904303,0.30954373,0.32149178,0.3438288,0.09305212,0.10870063,0.15435937,0.17016204,229.53256,229.69427,230.83914,230.8964,0,0,0,0,0,0,0,0,0,0,0,0,0.052637994,0.055229597,0.058942318,0.064888775,0.10690863,0.12192676,0.16523018,0.18211444,0.0029596537,0.0053042285,0.009330403,0.011986107,164,6,231,2,0,971.8079,279.63803,-2657.063,73.330536,752261,719.6266,136.4291,137.21962,136.18272,136.18272,0,1,214.34166,0,0,8.042935,8.042935,0,6,255,0,0,0,1,0,243,0
True,37549953,15999.99,0,10214.93,1.9017012,-5.144209,3.9381905,-0.108982086,-0.23954129,73.82952,0.13000102,-0.023270195,0.007233683,0.78369963,-0.029148739,0.011377155,0.25508225,0.26143932,0.34660643,0.3368901,0.27130118,0.25733772,0.40023616,0.408787,233.83948,233.59633,236.97186,237.21568,0,0,0,0,0,0,0,0,0,0,0,0,0.019246487,0.0213692,0.008622212,0.015452307,0.271983,0.25822344,0.40032902,0.40907896,-0.0013763644,-0.00059656426,0.012316346,0.011161152,164,6,231,2,0,978.0008,279.9093,-2650.8176,73.829994,728017.25,680.80383,136.53116,137.31174,136.3718,136.3718,0,1,221.09665,0,0,8.162474,8.162473,0,6,255,0,0,0,1,0,241,0
True,37550046,15999.99,0,10128.036,0.26189756,-2.8484232,5.427152,0.00592041,-0.3392298,74.44877,0.042579126,-0.00952354,0.036093056,0.78222716,-0.026491888,0.013583605,0.25330713,0.28295958,0.28293997,0.30898347,0.13963321,0.13139983,0.14292724,0.14170486,233.64583,233.55331,234.05827,234.07306,0,0,0,0,0,0,0,0,0,0,0,0,-0.0014947477,0.00075278146,-0.0035075282,-0.0028287342,0.13964121,0.13140199,0.14297028,0.1417331,-0.0015941113,0.0020432472,0.0047468767,0.00784326,164,6,231,2,0,983.4386,280.08826,-2645.3474,74.44954,752263.8,709.44556,136.63428,137.4181,136.53996,136.53996,0,1,227.02762,0,0,8.266501,8.2665,0,6,255,0,0,0,1,0,238,0
True,37550156,15999.99,0,10272.441,-0.35196543,-4.1643376,4.6365614,0.012031555,-0.31643274,74.92244,0.12159048,-0.0033580242,0.05444915,0.78168863,-0.020519853,0.01820926,0.21090823,0.26053447,0.30618224,0.35729414,0.27005446,0.25578874,0.22731555,0.22373654,237.45865,237.30031,237.17989,237.1402,0,0,0,0,0,0,0,0,0,0,0,0,-0.0049779424,-0.0019872866,-0.0054507214,-0.0010518231,0.27010033,0.25579646,0.22738089,0.22373901,-0.00679503,-0.0007075593,0.0075102076,0.013587039,164,6,231,2,0,988.8987,280.24167,-2639.8516,74.9231,752265.94,699.71893,136.70631,137.48853,136.67838,136.67838,0,1,232.9746,0,0,8.370223,8.370221,0,6,255,0,0,0,1,0,235,0
True,37550281,15999.99,0,10277.296,-3.8826838,0.019409817,5.1487155,0.09591293,-0.35880888,75.56846,0.045140613,-0.15661606,0.015408354,0.77511555,-0.01956021,0.021985155,0.24677633,0.31627163,0.29850653,0.38030002,0.22650592,0.14267765,0.12158803,0.09513243,238.50967,237.61823,236.8701,237.05505,0,0,0,0,0,0,0,0,0,0,0,0,-0.3449519,-0.31747696,-0.033732608,-0.028964896,0.41267025,0.34806398,0.12618057,0.09944418,-0.00239522,0.006129518,0.006597627,0.016322266,164,6,231,2,0,995.281,280.36963,-2633.4026,75.56937,752264.4,699.3444,136.84732,137.6384,136.8546,136.8546,0,1,239.94904,0,0,8.49078,8.490778,0,6,255,0,0,0,1,-127,230,0
True,37550390,15999.99,0,10342.27,-7.5613914,-2.3707714,5.5915155,1.0447578,-0.3243648,76.08386,-0.03819869,-0.20636266,0.020739375,0.7516344,-0.013823439,0.023704728,0.2067177,0.32944238,0.2529475,0.30910537,0.11994253,0.07422916,0.16998109,0.11628571,238.06865,238.20367,239.22447,239.24675,0,0,0,0,0,0,0,0,0,0,0,0,-0.09963217,-0.08944432,-0.16689791,-0.15271507,0.15592556,0.11623362,0.2382194,0.1919486,-0.007309068,0.0077451244,0.0011809953,0.007857747,164,6,231,2,0,1000.8063,280.4607,-2627.721,76.09173,752267.2,694.5328,137.01404,137.8301,136.99693,136.99693,0,1,246.04173,0,0,8.595331,8.595329,0,6,255,0,0,0,1,0,227,0
True,37550500,15999.99,0,10445.541,-8.232842,-2.551782,4.8887672,0.7628021,-0.30995363,76.60041,0.027528316,-0.023091264,0.044738177,0.7422769,-0.010996156,0.028248692,0.18676358,0.29421437,0.239443,0.3397017,0.14114349,0.107990965,0.20880164,0.18262145,240.43712,239.94913,241.92892,241.66718,0,0,0,0,0,0,0,0,0,0,0,0,-0.10046418,-0.094939485,-0.11032316,-0.102619134,0.17324704,0.14378996,0.2361553,0.2094786,-0.009756766,0.0034238324,-0.00042458996,0.011495426,164,6,231,2,0,1006.484,280.53946,-2621.7207,76.604836,752267.06,687.7011,137.10683,137.95197,137.16782,137.16782,0,1,252.39285,0,0,8.703529,8.703527,0,6,255,0,0,0,1,0,227,0
True,37550609,15999.99,0,10481.056,-5.301263,1.0034885,4.909515,0.17819595,-0.32051837,77.15349,0.04454186,0.021456929,0.054909106,0.7422404,-0.013166106,0.033725053,0.23228824,0.33438313,0.29013214,0.39608192,0.12749633,0.125881,0.12053885,0.11926539,241.98097,241.87115,242.15842,242.09074,0,0,0,0,0,0,0,0,0,0,0,0,-0.032283254,-0.030096466,-0.021519229,-0.015879506,0.13152005,0.12942883,0.122444645,0.120317884,-0.004172422,0.008351188,0.005601976,0.01819862,164,6,231,2,0,1012.21106,280.60803,-2615.545,77.15436,752262,685.641,137.21721,138.08107,137.33751,137.33751,0,1,258.86768,0,0,8.813058,8.813054,0,6,255,0,0,0,1,0,230,0
True,37550718,15999.99,0,10540.199,-1.0385978,1.1948056,4.7526,-0.061115265,-0.33967346,77.74356,-0.02954825,0.0063929334,0.07206717,0.7440928,-0.013756772,0.040387794,0.2612081,0.34929025,0.28420082,0.372793,0.0855215,0.08334649,0.098754115,0.10225416,243.06996,242.99568,243.6206,243.64062,0,0,0,0,0,0,0,0,0,0,0,0,0.0032368302,0.0044073584,0.005639225,0.008720091,0.085582726,0.08346294,0.098914996,0.1026253,-0.0006249286,0.010179792,0.0048967823,0.015429735,164,6,231,2,0,1018.77,280.6866,-2608.417,77.744316,752265.94,681.6305,137.33505,138.19965,137.51476,137.51476,0,1,266.32266,0,0,8.93812,8.938116,0,6,255,0,0,0,1,0,236,0
True,37550828,15999.99,0,10607.454,-0.15980029,2.3719096,4.515723,-0.055229187,-0.2724614,78.204994,-0.028660499,-0.006334017,0.0641808,0.74392104,-0.016414342,0.047382712,0.299454,0.35723314,0.33574682,0.39030865,0.08195053,0.07057121,0.10921419,0.120338514,244.41385,244.23146,245.23477,245.41785,0,0,0,0,0,0,0,0,0,0,0,0,-0.0022281732,-0.0013450782,0.0016391386,0.008830188,0.08198082,0.07058402,0.10922649,0.12066205,0.0040665604,0.011154119,0.011025224,0.01751222,164,6,231,2,0,1024.259,280.77814,-2602.4473,78.20549,752253.2,677.3569,137.44398,138.3044,137.69135,137.69135,0,1,272.55472,0,0,9.042122,9.042117,0,6,255,0,0,0,1,0,242,0
True,37550937,15999.99,0,10709.792,-5.1448903,0.05142431,4.0551195,0.22866058,-0.2432133,78.61821,0.04299258,-0.22636017,-0.03731054,0.73253435,-0.016234051,0.04843904,0.30101922,0.33928633,0.34209475,0.39105627,0.16642939,0.09860342,0.20668526,0.14322788,246.64384,246.39786,247.85994,247.69829,0,0,0,0,0,0,0,0,0,0,0,0,-0.42463288,-0.3796774,-0.06635662,-0.05403599,0.45608312,0.39227232,0.21707602,0.15308204,0.004258558,0.008952647,0.011779945,0.017601106,164,6,231,2,0,1029.7391,280.89383,-2596.4482,78.61892,752254.4,670.896,137.58067,138.44513,137.84732,137.84732,-2.2166977,1,278.7983,0,0,9.145735,9.14573,0,6,255,0,0,0,1,-127,249,0
True,37551062,15999.99,0,10788.823,-16.484186,1.7465346,3.7946572,1.5152206,-0.2071169,79.01177,0.0701547,-0.43501404,-0.010652419,0.6885843,-0.016868547,0.04265922,0.28550482,0.38764206,0.32927883,0.4399053,0.3332887,0.13550064,0.22042495,0.10913099,250.39677,248.71443,249.02469,248.87555,0,0,0,0,0,0,0,0,0,0,0,0,-0.6942562,-0.61025935,-0.26505923,-0.22201735,0.77011234,0.62512153,0.34473693,0.24738891,0.0023554638,0.014884271,0.010256223,0.02340889,164,6,231,2,0,1036.0319,281.03043,-2589.2952,79.026566,752259.3,666.23047,137.93002,138.9381,138.05219,138.05219,-8.752394,1,286.11584,0,0,9.266583,9.266579,0,6,255,0,0,0,1,-12,5,0
True,37551171,15999.99,0,10803.136,-19.598776,0.03229405,4.95657,2.4047012,-0.216752,79.43569,-0.03422577,-0.22532967,-0.026751522,0.65156156,-0.014153602,0.040718976,0.24462761,0.38682795,0.27325657,0.38917947,0.14477038,0.067608654,0.18407302,0.10188473,248.9848,248.63628,250.03076,249.69397,0,0,0,0,0,0,0,0,0,0,0,0,-0.269601,-0.23191065,-0.33736554,-0.27637947,0.3060117,0.24156465,0.3843155,0.29456088,-0.0026587956,0.014784407,0.0035955906,0.017377965,164,6,231,2,0,1041.4479,281.13898,-2582.8125,79.472374,752251.9,664.9346,138.10658,139.19724,138.26411,138.26411,-12.494209,1,292.59677,0,0,9.373187,9.373182,0,6,255,0,0,0,1,0,19,0
True,37551265,15999.99,0,10860.076,-17.193245,0.06404412,4.7125416,1.3057098,-0.23711425,79.91895,-0.02621163,-0.013230456,0.024096739,0.6409631,-0.014646835,0.040793706,0.25055087,0.38488442,0.27723965,0.41822425,0.110108875,0.072575144,0.16054705,0.12472146,250.29689,249.67929,251.46922,251.03416,0,0,0,0,0,0,0,0,0,0,0,0,-0.16265774,-0.14799936,-0.17015326,-0.14553726,0.19642176,0.16483617,0.23393907,0.19166778,-0.0019322112,0.0145459995,0.004069153,0.020831175,164,6,231,2,0,1046.8148,281.2497,-2576.0107,79.92997,752265.2,661.4462,138.24667,139.42216,138.47067,138.47067,-14.0488825,1,299.28305,0,0,9.481911,9.481908,0,6,255,0,0,0,1,0,34,0
True,37551375,15999.99,0,10915.996,-8.890935,0.77202356,4.6373787,0.25844955,-0.24931312,80.39494,0.017087922,0.03764696,0.019785108,0.6433852,-0.016862607,0.043361433,0.2930561,0.3805486,0.33034185,0.4282574,0.10472457,0.08558575,0.1293417,0.13112023,251.73544,251.20029,252.48431,252.39839,0,0,0,0,0,0,0,0,0,0,0,0,-0.08837133,-0.08338094,-0.029495712,-0.01864517,0.1370282,0.119487666,0.13266225,0.13243927,0.0032817535,0.01401414,0.010382611,0.022024043,164,6,231,2,0,1051.8771,281.36447,-2569.36,80.39575,752373.75,658.24774,138.35905,139.56108,138.6321,138.6321,-0.122974396,1,305.69876,0,0,9.58617,9.586167,0,6,255,0,0,0,1,-11,48,0
True,37551484,15999.99,0,10967.919,-3.806283,2.5748467,4.4500756,0.11299896,-0.2586183,80.853935,0.01416822,-0.028586056,0.03931579,0.64092237,-0.020239813,0.04696282,0.33954597,0.4018555,0.36550808,0.42886257,0.10720031,0.103010915,0.105939865,0.10153284,253.14108,253.14687,253.35844,253.40654,0,0,0,0,0,0,0,0,0,0,0,0,-0.011832457,-0.009342482,-0.02106511,-0.00946945,0.10785135,0.1034337,0.10801386,0.10197347,0.008984495,0.016627781,0.014563613,0.022095993,164,6,231,2,0,1056.8665,281.49255,-2562.7156,80.85442,752264.4,655.1728,138.47295,139.68378,138.79015,138.79015,-1.2339067,1,312.20767,0,0,9.689228,9.689225,0,6,255,0,0,0,1,0,56,0
True,37551609,15999.99,0,11021.849,-4.144291,2.9145963,4.5332575,0.049678802,-0.2830587,81.39661,-0.100589916,-0.11073907,-0.0404441,0.6364589,-0.02196317,0.04908231,0.38908896,0.41186973,0.34536055,0.3841894,0.07431359,0.062047597,0.09043341,0.0740415,254.0517,254.30074,254.66792,254.8187,0,0,0,0,0,0,0,0,0,0,0,0,-0.17639707,-0.1672587,-0.019198546,-0.013958416,0.19141169,0.17839667,0.09244882,0.07534575,0.015061755,0.017856192,0.012168225,0.016784687,164,6,231,2,0,1062.7914,281.65106,-2554.7712,81.3971,752259.94,651.8416,138.60132,139.81235,138.95926,138.95926,-3.5812569,1,319.82883,0,0,9.811408,9.811405,0,6,255,0,0,0,1,-112,58,0
True,37551703,15999.99,0,11104.236,-7.40796,0.64607584,4.1436176,0.7838707,-0.2295388,81.736786,-0.0057110344,-0.22464618,-0.013557023,0.61826384,-0.02110387,0.045978583,0.33491623,0.34616518,0.37248036,0.37604174,0.11242822,0.08403563,0.16231813,0.11200222,255.54292,256.06348,256.77576,256.81442,0,0,0,0,0,0,0,0,0,0,0,0,-0.05537344,-0.051504556,-0.12837188,-0.11290322,0.12532488,0.09856321,0.20694567,0.15903343,0.008416582,0.009796452,0.015392568,0.015815988,164,6,231,2,0,1067.0575,281.79108,-2548.9487,81.74087,752252.6,646.8916,138.73181,139.97498,139.0973,139.0973,-5.4563713,1,325.3801,0,0,9.8999195,9.899918,0,6,255,0,0,0,1,0,55,0
True,37551812,15999.99,0,11148.35,-9.051182,0.86963964,4.2867365,0.7766304,-0.2502073,82.20767,-0.06586031,-0.046166487,-0.0031805076,0.6056921,-0.021544537,0.04511655,0.29892105,0.34929028,0.31067473,0.3829293,0.0704283,0.061636016,0.1288219,0.10535659,256.64246,256.69763,257.9499,257.8423,0,0,0,0,0,0,0,0,0,0,0,0,-0.08119165,-0.07883958,-0.099767804,-0.08819589,0.1074813,0.10007336,0.1629377,0.13739915,0.0040011853,0.010179795,0.008044336,0.016634867,164,6,231,2,0,1072.3082,281.9568,-2541.6174,82.21172,752265.06,644.3897,138.83646,140.10686,139.26425,139.26425,-7.601622,1,332.40375,0,0,10.009937,10.009934,0,6,255,0,0,0,1,0,49,0
True,37551937,15999.99,0,11219.363,-5.6727076,0.03334157,4.2853928,0.11985016,-0.31523708,82.73766,-0.029611532,-0.054296743,-0.053267144,0.6047079,-0.023662131,0.04071386,0.32216913,0.31676814,0.3192119,0.3289507,0.09468221,0.07786193,0.114823155,0.10009417,258.7038,258.60342,259.35904,259.34152,0,0,0,0,0,0,0,0,0,0,0,0,-0.18010546,-0.17056164,-0.020420149,-0.017018432,0.20347653,0.18749334,0.11662478,0.101530634,0.0068529435,0.006190423,0.0090593435,0.010217212,164,6,231,2,0,1078.336,282.1688,-2532.9968,82.73834,752259.2,640.2946,138.96255,140.25354,139.45303,139.45303,-10.055925,1,340.48752,0,0,10.1375065,10.137504,0,6,255,0,0,0,1,-67,38,0
True,37552046,15999.99,0,11284.613,-11.056473,-0.44767165,3.9837444,0.50785446,-0.3225947,83.13221,-0.038737457,-0.2954503,-0.12925872,0.58616406,-0.022062497,0.03038249,0.33256927,0.32797378,0.3513064,0.352872,0.16445167,0.08229377,0.13934252,0.08206422,260.583,260.29367,260.60663,260.8072,0,0,0,0,0,0,0,0,0,0,0,0,-0.5943065,-0.5081373,-0.095706135,-0.08057077,0.6166398,0.514758,0.16904438,0.11500515,0.008128691,0.007564977,0.012875143,0.013061278,164,6,231,2,0,1083.3604,282.335,-2525.665,83.13439,752257.94,636.5982,139.16531,140.49895,139.58955,139.58955,-12.207454,1,347.33463,0,0,10.244695,10.24469,0,6,255,0,0,0,1,-120,30,0
True,37552140,15999.99,0,11362.531,-14.031932,-0.3034532,4.022164,1.8986282,-0.26529503,83.48047,0.036254317,-0.26286,-0.10530469,0.5504785,-0.021157103,0.019057421,0.34141633,0.31380415,0.38214916,0.3690495,0.19722642,0.08604824,0.18495315,0.112233214,262.67435,261.59808,262.65384,262.4689,0,0,0,0,0,0,0,0,0,0,0,0,-0.19720137,-0.17091997,-0.26914755,-0.23536353,0.27890256,0.19135813,0.32657015,0.2607533,0.009213928,0.005826842,0.016542118,0.014984664,164,6,231,2,0,1088.1514,282.50165,-2518.3848,83.50248,752263.94,632.3843,139.36539,140.77383,139.76321,139.76321,0,1,354.0339,0,0,10.349316,10.349312,0,6,255,0,0,0,1,0,24,0
True,37552265,15999.99,0,11380.176,-16.38944,1.5188564,4.3718357,1.4251251,-0.29275596,83.960915,-0.049483933,-0.034391798,-0.09920594,0.53329444,-0.022075212,0.009582996,0.36925083,0.3811174,0.3457064,0.39236736,0.112540044,0.064665034,0.10380172,0.08011332,263.03107,262.1895,263.0156,262.85016,0,0,0,0,0,0,0,0,0,0,0,0,-0.17121187,-0.14966398,-0.1617935,-0.13896744,0.2048872,0.16303642,0.19222885,0.16040602,0.012628283,0.014083914,0.012209341,0.017756984,164,6,231,2,0,1093.447,282.67233,-2509.978,83.97351,752259.8,631.3341,139.5194,140.99506,139.96625,139.96625,0,1,361.67056,0,0,10.467988,10.467985,0,6,255,0,0,0,1,0,23,0
True,37552359,15999.99,0,11471.403,-9.066208,-1.9502747,4.0444183,0.5182419,-0.2380135,84.29408,-0.005662972,0.04537406,-0.047114775,0.5362901,-0.019010298,0.0038023868,0.3597379,0.32436493,0.3647718,0.36964267,0.0895595,0.08435615,0.18692775,0.1728875,263.72165,263.43195,265.86658,265.44644,0,0,0,0,0,0,0,0,0,0,0,0,-0.06643295,-0.06487043,-0.060953695,-0.050804984,0.111508936,0.106414914,0.1966147,0.18019778,0.01146137,0.007122293,0.014476076,0.015055191,164,6,231,2,0,1097.2749,282.80508,-2503.669,84.296005,752261.4,626.1467,139.59056,141.09024,140.08806,140.08806,0,1,367.34402,0,0,10.5557165,10.555713,0,6,255,0,0,0,1,0,25,0
True,37552484,15999.99,0,11599.952,-1.7428845,-3.9548094,3.2587073,-0.0635643,-0.19415426,84.745476,0.10250114,0.041484036,-0.009391405,0.54121387,-0.015020431,0.00029098894,0.3191684,0.29076618,0.36651546,0.36151415,0.18760993,0.2115521,0.23125133,0.23732866,267.03354,267.38837,268.2808,268.24997,0,0,0,0,0,0,0,0,0,0,0,0,0.14230351,0.14854623,0.010127234,0.01811682,0.23547351,0.25849617,0.23147297,0.23801915,0.0064848512,0.0030008554,0.014683384,0.014088765,164,6,231,2,0,1102.6255,282.97336,-2494.7568,84.74572,752252.3,619.4921,139.68109,141.17818,140.25084,140.25084,0,1,375.33478,0,0,10.678677,10.678674,0,6,255,0,0,0,1,7,31,0
True,37552578,15999.99,0,11595.034,3.9127738,-4.0253916,4.02493,-0.5606308,-0.29197758,85.18213,0.06601362,0.14414787,0.0039655045,0.55263203,-0.0109556215,0.0009138663,0.26266426,0.25337863,0.30423963,0.292968,0.113632925,0.20012762,0.13258623,0.16244008,267.12598,268.24014,267.86148,267.80853,0,0,0,0,0,0,0,0,0,0,0,0,0.04022584,0.04523464,0.08270274,0.08538459,0.12054277,0.2051761,0.15626532,0.18351378,-0.00044630468,-0.0015853383,0.007279247,0.0059391335,164,6,231,2,0,1107.0865,283.05753,-2487.3665,85.18447,752254.4,619.723,139.79646,141.26857,140.38303,140.38303,0,1,381.9668,0,0,10.780258,10.780255,0,6,255,0,0,0,1,0,35,0
True,37552703,15999.99,0,11621.754,6.631457,0.45199394,4.0318894,-0.57004166,-0.293062,85.66714,0.036752515,0.008308693,-0.043340404,0.5619824,-0.011123118,-0.0020764838,0.39420575,0.29640782,0.45318633,0.34416363,0.09553409,0.121222876,0.10286081,0.11144197,267.98618,268.47678,268.44626,268.53226,0,0,0,0,0,0,0,0,0,0,0,0,0.06729075,0.07234078,0.05409608,0.06958891,0.11685379,0.14116718,0.11621847,0.13138466,0.015689414,0.0036928952,0.024987906,0.012025915,164,6,231,2,0,1112.3829,283.12714,-2478.739,85.66953,752505,618.50793,139.93896,141.36566,140.5882,140.5882,0,1,389.749,0,0,10.898744,10.898741,0,6,255,0,0,0,1,0,38,0
True,37552812,15999.99,0,11707.273,3.1712432,-4.323854,3.871048,-0.20352173,-0.2914161,86.05015,0.042909667,-0.017728372,-0.04388038,0.5608204,-0.0050110673,-0.0068953424,0.3462874,0.27178115,0.35268778,0.29405326,0.11737592,0.12326216,0.15673624,0.16180253,269.57706,269.75012,270.68442,270.8314,0,0,0,0,0,0,0,0,0,0,0,0,0.02803963,0.030026061,0.02020643,0.023615403,0.12067861,0.12686656,0.15803337,0.1635168,0.009811442,0.0006720312,0.013039377,0.0060681626,164,6,231,2,0,1116.976,283.1684,-2471.3674,86.05088,752253.7,613.5643,140.00613,141.41678,140.70844,140.70844,0,1,396.42365,0,0,10.999909,10.999907,0,6,255,0,0,0,1,0,40,0
True,37552921,15999.99,0,11738.372,0.81972337,0.79469836,4.0925765,0.015094757,-0.2754349,86.54139,0.034167144,-0.0069384123,-0.0077759204,0.5593544,-0.006251293,-0.010459326,0.36202097,0.31327733,0.41072232,0.3621427,0.12716092,0.09017429,0.10077946,0.10773638,271.41815,270.58554,271.06818,271.21338,0,0,0,0,0,0,0,0,0,0,0,0,-0.0017350799,0.00066356914,-0.008924523,0.00092830294,0.12717275,0.09017673,0.10117384,0.10774038,0.011741422,0.0057622194,0.019939251,0.014163494,164,6,231,2,0,1122.5483,283.1903,-2462.4634,86.541824,752262.2,612.15656,140.12425,141.52681,140.89224,140.89224,-1.0094147,1,404.49878,0,0,11.121599,11.121596,0,6,255,0,0,0,1,0,41,0
True,37553031,15999.99,0,11788.115,0.11539233,-2.4277847,3.8642964,0.031726837,-0.26734447,86.95016,-0.019592397,-0.00049415923,-0.025042629,0.55903494,-0.0020701631,-0.012678375,0.29583332,0.26205346,0.32219908,0.2857817,0.07946475,0.08237845,0.109901555,0.107861094,271.66595,271.7226,272.54794,272.52496,0,0,0,0,0,0,0,0,0,0,0,0,-0.002946899,-0.0023887386,-0.0039313924,-0.0030070527,0.07951937,0.08241308,0.10997185,0.107903,0.0036224239,-0.00052123144,0.009414498,0.005084742,164,6,231,2,0,1127.3815,283.1945,-2454.7449,86.95057,752255.44,609.3668,140.19539,141.59436,141.01263,141.01263,0,1,411.49942,0,0,11.226592,11.226589,0,6,255,0,0,0,1,0,42,0
True,37553140,15999.99,0,11852.891,0.07014382,-0.77760726,3.5982306,0.017879486,-0.2872392,87.38459,0.007784123,0.0024045836,-0.022446832,0.55919594,-0.0024003114,-0.01689879,0.33024755,0.30011648,0.35843906,0.3284171,0.08970278,0.079947904,0.11804996,0.11858972,273.20477,273.00726,274.09073,274.06506,0,0,0,0,0,0,0,0,0,0,0,0,-0.0023056157,-0.0010782359,-0.0038121317,0.00067761476,0.0897324,0.079955176,0.11811149,0.11859166,0.007843893,0.004147824,0.013723161,0.010153774,164,6,231,2,0,1132.8275,283.19003,-2446.0452,87.38506,752263.3,606.079,140.298,141.6877,141.18082,141.18082,0,1,419.3899,0,0,11.34433,11.344326,0,6,255,0,0,0,1,0,43,0
True,37553250,15999.99,0,11910.701,-0.030985117,-0.75398856,3.7000167,0.000102996826,-0.26779026,87.74635,0.037931107,0.0025789442,0.01442517,0.55943847,-0.0018541237,-0.016493144,0.3289481,0.3192035,0.37598503,0.35591152,0.09660769,0.09641244,0.12737048,0.12823063,274.46683,274.44952,275.4149,275.39276,0,0,0,0,0,0,0,0,0,0,0,0,-0.0018256082,-0.00015551587,-0.003995681,0.0027245462,0.09662494,0.09641257,0.12743314,0.12825957,0.0076844953,0.0064891577,0.01580925,0.013422657,164,6,231,2,0,1137.4567,283.1851,-2438.6511,87.746765,752407.3,603.32245,140.3797,141.76782,141.31865,141.31865,0,1,426.0998,0,0,11.44394,11.443936,0,6,255,0,0,0,1,0,44,0
True,37553359,15999.99,0,11939.31,0.049584985,0.7627267,3.8973117,-0.00061035156,-0.2951622,88.187355,-0.052575313,0.0011209768,-0.021490045,0.5596668,-0.002620781,-0.017480329,0.3452078,0.32729012,0.34666786,0.33573416,0.06658185,0.0648451,0.08781687,0.08778987,275.28128,275.2405,275.98834,275.987,0,0,0,0,0,0,0,0,0,0,0,0,0.00031404724,0.000900964,-0.0011340778,0.002514068,0.06658259,0.06485136,0.087824196,0.08782586,0.009679016,0.007481117,0.012323648,0.011023715,164,6,231,2,0,1142.9124,283.16742,-2429.939,88.18785,752287.1,601.7418,140.49477,141.86833,141.4727,141.4727,0,1,434.00235,0,0,11.560785,11.560782,0,6,255,0,0,0,1,0,44,0
True,37553453,15999.99,0,12026.904,0.87674296,-2.3078177,3.360671,0.01839447,-0.26919678,88.51497,-0.0031437036,0.04701421,0.027285632,0.56050974,-0.0001207376,-0.017616728,0.28713372,0.29239833,0.33835387,0.33404937,0.079395734,0.087995894,0.14714599,0.1601078,276.68484,276.67136,278.31183,278.36465,0,0,0,0,0,0,0,0,0,0,0,0,0.111430444,0.11519648,0.00080512196,0.005075246,0.13682261,0.14496036,0.14714819,0.16018823,0.0025552772,0.0032010674,0.011335179,0.010823406,164,6,231,2,0,1147.622,283.1591,-2422.4243,88.51538,752260.8,597.1481,140.56888,141.93735,141.60956,141.60956,0,1,440.81778,0,0,11.661163,11.66116,0,6,255,0,0,0,1,43,45,0
True,37553578,15999.99,0,12047.342,9.172994,1.5935551,3.296743,-0.7967949,-0.30288732,88.89974,0.0006527165,0.27968726,-0.0141483275,0.58262086,-0.0032305892,-0.0137566915,0.35672286,0.28468958,0.41422093,0.34504345,0.06456786,0.09863211,0.07397095,0.12663653,278.1011,277.43845,278.5632,278.38693,0,0,0,0,0,0,0,0,0,0,0,0,0.039310534,0.042837057,0.10167189,0.12160707,0.07559316,0.10753282,0.12573335,0.17557077,0.011091523,0.002255462,0.02035521,0.012130521,164,6,231,2,0,1153.184,283.14478,-2413.6838,88.90383,752262.8,596.3283,140.83641,142.11934,141.8157,141.8157,0,1,448.78235,0,0,11.777931,11.777929,0,6,255,0,0,0,1,0,44,0
True,37553687,15999.99,0,12116.443,10.276116,-0.5681394,3.4254467,-1.0425262,-0.25372177,89.262146,0.021997781,0.0398475,-0.05835537,0.5990992,-0.0017058721,-0.017437834,0.4461675,0.29157707,0.43660602,0.3321343,0.07613109,0.09148564,0.11769306,0.1489446,278.89426,279.00607,280.11765,280.47372,0,0,0,0,0,0,0,0,0,0,0,0,0.10794194,0.11332962,0.10810581,0.13000993,0.13208863,0.14564762,0.15980777,0.19770452,0.022063375,0.0031003244,0.023016632,0.010595717,164,6,231,2,0,1158.8942,283.14423,-2404.9827,89.268585,752388,593.062,140.99294,142.20789,142.06068,142.06068,0,1,456.7834,0,0,11.894751,11.894749,0,6,255,0,0,0,1,0,39,0
True,37553796,15999.99,0,12176.975,6.136851,-4.349643,2.808373,-0.42657852,-0.28144586,89.57127,0.038728274,-0.023587234,-0.066168286,0.598634,0.002944964,-0.023541952,0.33217242,0.23838441,0.4345948,0.30356532,0.08697527,0.09421727,0.15659323,0.16750728,279.9119,280.19193,281.727,281.98053,0,0,0,0,0,0,0,0,0,0,0,0,0.051156454,0.05319895,0.037148785,0.04976481,0.100904316,0.10819899,0.16093934,0.17474331,0.008080009,-0.0034246258,0.022777513,0.0071990825,164,6,231,2,0,1163.9208,283.11783,-2397.4966,89.57272,752258.56,589.8633,141.08237,142.273,142.20876,142.20876,0,1,463.7123,0,0,11.995585,11.995583,0,6,255,0,0,0,1,0,32,0
True,37553906,15999.99,0,12223.917,2.2618566,-2.1731455,1.3702132,-0.10813522,-0.29025692,89.66604,0.13444334,-0.018846579,-0.08742231,0.5963756,0.003780705,-0.0316899,0.32847068,0.22332972,0.42612317,0.33644956,0.18577859,0.22714175,0.15597333,0.15329204,282.128,283.21613,282.10297,282.11124,0,0,0,0,0,0,0,0,0,0,0,0,0.094746634,0.10132663,0.0033534807,0.016047895,0.20854402,0.24871764,0.15600938,0.15412977,0.00762593,-0.0052713305,0.021770298,0.011108771,164,6,231,2,0,1169.1593,283.06818,-2389.7407,89.66657,752257.5,587.9099,141.19127,142.35733,142.38065,142.38065,0,1,470.9033,0,0,12.100051,12.100049,0,6,255,0,0,0,1,15,24,0
True,37554031,15999.99,0,11651.994,8.672428,3.851561,-12.184027,-0.12679291,0.037477612,88.48851,0.053617727,0.22920495,-0.02862192,0.60735434,0.0038408486,-0.036564372,0.50227493,0.35039276,0.4286298,0.30292326,-0.27039036,-0.35524854,-0.09487113,-0.09482515,266.41394,263.6395,271.72974,270.86746,0,0,0,0,0,0,0,0,0,0,0,0,0.30053705,0.32298574,0.030174304,0.040303357,0.40426904,0.48012635,0.099554114,0.103034794,0.02894587,0.010315035,0.022068314,0.007122744,164,6,231,2,0,1174.575,283.00327,-2381.8157,88.48861,752262.4,615.78186,141.44823,142.56148,142.54524,142.54524,0,1,478.2774,0,0,12.20739,12.207387,0,6,255,255,0,0,1,76,15,129
True,37554125,15999.99,0,11669.249,15.3886385,0.15813121,-15.414078,-2.75848,0.43173897,86.30108,-0.043277904,0.47345418,-0.01143879,0.64851576,0.010010918,-0.038038548,0.50484705,0.35886353,0.3803267,0.27258635,0.030401135,0.07165402,0.04365033,0.14374977,269.33163,267.8694,270.11377,269.8458,0,0,0,0,0,0,0,0,0,0,0,0,0.43239364,0.50908047,0.2515487,0.30255717,0.43346107,0.51409847,0.25530785,0.3349699,0.02926138,0.011354111,0.01632544,0.0035159104,164,6,231,2,0,1180.2727,282.96814,-2373.7222,86.34623,752262.8,615.929,141.87216,142.90121,142.74864,142.74864,0,1,485.87637,0,0,12.320987,12.320985,0,6,255,0,0,0,1,81,2,0
True,37554234,15999.99,0,11820.4795,8.246409,-0.60333526,-4.2956862,-5.914276,0.129251,85.86197,0.072259516,0.30953604,-0.010334305,0.69586515,0.007507423,-0.036209237,0.508423,0.33984697,0.57594705,0.3632611,0.1779409,0.4758784,0.1542062,0.28787622,271.4484,275.899,272.18164,273.05347,0,0,0,0,0,0,0,0,0,0,0,0,0.91000694,1.0790557,0.5706798,0.7245371,0.92724085,1.179331,0.5911472,0.77963245,0.029700026,0.00902142,0.03958325,0.014296465,164,6,231,2,0,1185.6781,282.94125,-2366.1653,86.065506,752257,607.97107,142.46504,143.24994,143.27817,143.27817,0,1,493.01175,0,0,12.428612,12.42861,0,6,255,0,0,0,1,67,245,0
True,37554359,15999.99,0,11619.28,6.161913,2.1318078,-11.418874,-8.581036,-0.07029307,84.169334,-0.012731055,0.21065605,-0.037679095,0.7339512,0.005625509,-0.039589357,0.5084596,0.29549417,0.5283942,0.31092283,0.13967864,0.45469803,0.17008027,0.3015482,265.87686,271.1093,267.76074,268.7587,0,0,0,0,0,0,0,0,0,0,0,0,0.910174,1.1838046,0.76231396,0.9969418,0.9208294,1.268126,0.78105694,1.041549,0.029704526,0.0035808198,0.03392957,0.008073833,164,6,231,2,0,1191.83,282.90503,-2357.6438,84.60565,746519.75,613.4569,143.42422,144.00488,144.12643,144.12643,0,1,501.12543,0,0,12.55188,12.551878,0,6,255,0,0,0,1,31,234,0
True,37554468,15999.99,0,11386.888,19.820919,6.6536255,-11.799925,-7.4255676,0.1451006,82.84954,-0.041280653,0.033544824,0.029321186,0.748825,-0.00052092323,-0.03907344,0.6656602,0.39779675,0.64775,0.3733541,0.10196177,0.34433576,0.13238838,0.22758625,260.8453,265.4618,262.331,263.4248,0,0,0,0,0,0,0,0,0,0,0,0,0.7094684,0.92444944,0.6054492,0.85033166,0.7167577,0.98649573,0.6197543,0.880261,0.048987746,0.016129911,0.04812009,0.015496451,164,6,231,2,0,1197.1559,282.91934,-2350.553,83.18176,752256.8,630.8855,144.40285,144.63417,145.09982,145.09982,0,1,507.94467,0,0,12.657667,12.657665,0,6,255,0,0,0,1,0,228,0
True,37554578,15999.99,0,11228.758,19.31624,2.6707492,-7.90121,-4.4678154,0.037024736,82.13134,-0.08534285,-0.19443618,-0.032739334,0.7378121,-0.0043647876,-0.042177252,0.5814188,0.30747035,0.53141445,0.29088333,0.08129577,0.19546781,0.13905382,0.19044973,257.1899,260.30176,259.02615,260.24326,0,0,0,0,0,0,0,0,0,0,0,0,0.4824421,0.6008137,0.37807396,0.50126696,0.4892437,0.6318107,0.40283483,0.5362272,0.038654163,0.0050498955,0.034288652,0.0056912825,164,6,231,2,0,1202.572,282.9755,-2343.7175,82.25278,752263.06,639.5104,145.01532,144.95004,145.78458,145.78458,-5.011755,1,514.6478,0,0,12.763278,12.763277,0,6,255,0,0,0,1,9,224,0
True,37554703,15999.99,0,11048.899,10.375069,3.680351,-7.474581,-1.2265015,-0.10999608,81.25027,0.0122771915,0.0119056925,-0.06000456,0.72009784,-0.015219956,-0.05013414,0.5380447,0.34497502,0.5372165,0.3332348,0.116708644,0.21439333,0.097385295,0.12329803,254.49901,256.36276,254.84035,255.21436,0,0,0,0,0,0,0,0,0,0,0,0,0.6312675,0.7329945,0.10197743,0.14002693,0.6419654,0.7637051,0.14100812,0.18657424,0.033333614,0.009650458,0.03497847,0.01072656,164,6,231,2,0,1209.9282,283.1132,-2334.889,81.2596,752265.4,650.2731,145.66669,145.33087,146.30252,146.30252,-12.963044,1,523.57513,0,0,12.904166,12.904165,0,6,255,0,0,0,1,115,227,0
True,37554812,15999.99,0,10998.405,11.829079,3.411753,-3.0867305,-1.1773758,-0.10930967,80.996826,-0.114724174,0.22930233,0.032938045,0.7325308,-0.017137576,-0.053296603,0.57680506,0.40283105,0.48315325,0.32732752,0.062400475,0.11539153,0.069573455,0.11625859,253.59494,253.56767,254.31956,254.14209,0,0,0,0,0,0,0,0,0,0,0,0,0.48951593,0.58370805,0.10359703,0.13303544,0.4934771,0.59500444,0.12479107,0.17667621,0.03808821,0.016747449,0.028550752,0.010024231,164,6,231,2,0,1215.2146,283.22946,-2328.743,81.00545,752149.8,653.0191,146.11337,145.6518,146.4942,146.4942,-14.7,1,529.80817,0,0,13.004094,13.004094,0,6,255,0,0,0,1,115,236,0
True,37554937,15999.99,0,10960.688,14.051752,2.3341198,-3.6598687,-3.0003624,-0.01599598,80.40136,-0.054771516,0.4716953,-0.018079562,0.7743681,-0.018040335,-0.05366062,0.6298424,0.35584533,0.5441832,0.35943952,0.06959414,0.19962187,0.08181971,0.19932123,252.3622,252.69864,253.47467,253.43947,0,0,0,0,0,0,0,0,0,0,0,0,0.619031,0.7934941,0.30160102,0.39984253,0.62293077,0.81821865,0.31250224,0.44676954,0.04459411,0.010983881,0.03580676,0.01384211,164,6,231,2,0,1221.6134,283.413,-2321.5286,80.45731,752264.9,655.37604,146.72913,146.02664,146.84047,146.84047,-14.7,1,537.2449,0,0,13.123643,13.123642,0,6,255,0,0,0,1,116,252,0
True,37555031,15999.99,0,10193.9,18.262066,3.9526267,-14.965498,-4.6620445,0.24374151,78.78586,0.0451414,0.46467906,-0.031987756,0.8165474,-0.017380038,-0.056778528,0.704654,0.43067205,0.67317426,0.40735054,-0.29343054,-0.7521864,-0.20026103,-0.2816295,236.1137,224.14203,239.75562,236.81848,0,0,0,0,0,0,0,0,0,0,0,0,0.8040202,1.0259567,0.46790776,0.64520496,0.85589135,1.2721524,0.50896186,0.70399195,0.053770974,0.020162605,0.05114284,0.019538376,164,6,231,2,0,1226.271,283.5625,-2316.4883,78.92404,533429.06,498.73666,147.34865,146.43666,147.26553,147.26553,-14.7,1,542.50653,0,0,13.209605,13.209602,0,6,0,255,0,0,1,116,11,129
True,37555140,15999.99,0,9468.357,20.17097,4.196065,-31.561842,-6.757942,0.7181587,74.33884,-0.0018767789,0.4589678,-0.08530541,0.8740472,-0.012988962,-0.068026,0.84946847,0.5379463,0.71944356,0.39426497,-0.52935946,-0.4481547,-0.24822052,-0.7331842,216.06546,219.60065,225.34406,212.8924,0,0,0,0,0,0,0,0,0,0,0,0,1.0876882,1.2971712,0.7070717,0.95571566,1.2096641,1.3724052,0.74937564,1.2045546,0.07153484,0.033321545,0.05664392,0.017982595,164,6,231,2,0,1232.7686,283.80435,-2309.7773,74.64884,16787.252,16.903114,149.51035,148.01045,147.98209,147.98209,-14.7,1,549.58795,0,0,13.3314,13.331398,0,6,0,255,0,0,1,116,34,129
True,37555250,15999.99,0,8837.567,14.914934,2.2236898,-28.776825,-8.733675,0.90501523,71.00235,-0.043633558,0.47235826,-0.017334813,0.9205476,-0.009117338,-0.073769264,0.83468616,0.55513585,0.63046074,0.3627386,-0.69649345,-0.49828607,-0.41581228,-1.043633,201.70863,207.7977,211.18684,196.30461,0,0,0,0,0,0,0,0,0,0,0,0,1.3259085,1.5718426,1.0243777,1.3151379,1.4977105,1.6489325,1.105554,1.6789156,0.06972155,0.035430126,0.04606452,0.014234345,164,6,231,2,0,1238.195,284.03033,-2304.4048,71.543205,-92801.28,-100,153.08603,150.77742,149.1305,149.1305,-14.7,1,555.4144,0,0,13.436073,13.4360695,0,6,0,255,0,0,1,114,57,129
True,37555375,15999.99,0,8383.051,18.668024,1.9957407,-22.751991,-10.180414,0.9193506,67.67778,-0.04481753,0.4615758,-0.042959977,0.97474605,-0.008432406,-0.0766329,0.82983905,0.5654151,0.5817015,0.3475908,-0.65930533,-0.83280027,-0.6581011,-0.73170364,191.89395,186.40808,196.0609,195.95915,0,0,0,0,0,0,0,0,0,0,0,0,1.540412,1.9221022,1.2877753,1.6128124,1.6755753,2.0947633,1.4461888,1.7710319,0.06912697,0.03669104,0.040267408,0.01243338,164,6,231,2,0,1244.3638,284.3015,-2298.5486,68.44536,-88021.39,-100,159.03128,155.46373,152.598,152.598,0,1,561.921,0,0,13.557808,13.557803,0,6,0,255,0,0,1,112,85,129
True,37555468,15999.99,0,7995.516,22.12551,1.6716919,-19.636765,-11.01182,0.85244346,65.10123,-0.043319914,0.49514875,0.005988967,1.0229537,-0.008474258,-0.078883104,0.7077729,0.49927932,0.50949275,0.3623077,-0.44739887,-1.3550922,-0.89891416,-0.66419625,187.2941,175.27287,184.49712,188.4523,0,0,0,0,0,0,0,0,0,0,0,0,1.7445291,2.1879,1.5374053,1.8383404,1.8009852,2.5735543,1.7809159,1.9546489,0.05415356,0.028578408,0.031682327,0.0141831115,164,6,231,2,0,1249.5134,284.5363,-2293.9424,66.03148,84001.35,100.234344,165.02612,160.37112,156.92067,156.92067,0,1,566.926,0,0,13.660768,13.660763,0,6,86,255,0,0,1,112,109,129
True,37555578,15999.99,0,8427.485,22.108816,-0.31063116,-12.158311,-11.812819,0.8773217,63.279472,0.08580835,0.43335322,0.10556123,1.0711281,-0.0045683747,-0.07492133,0.3303637,0.3836912,0.177499,0.24134468,-0.2203297,-0.073266625,-0.14694811,0.060389675,192.38228,192.60208,194.39845,197.16994,0,0,0,0,0,0,0,0,0.120000005,0,0.120000005,0,2.6515257,2.4152057,2.0809374,2.1803296,2.660664,2.4163167,2.0861194,2.1811657,0.0078581385,0.014399633,-0.007789273,-0.00019849464,164,6,231,2,0,1254.6749,284.7648,-2289.6191,64.3786,514159.03,584.32556,167.02267,165.41641,159.03076,159.03076,-11.76,1,572.05786,0,0,13.7643385,13.764334,0,6,242,0,0,0,1,114,127,0
True,37555687,15999.99,0,8868.024,21.36944,-1.5183932,-0.48671293,-12.754833,0.48948646,62.738167,-0.049015127,0.47086605,-0.00018495461,1.1226218,-0.0074572335,-0.064189754,0.35570192,0.27580267,0.20356697,0.20462854,0.5898969,1.0553936,0.24044926,0.66094995,203.78122,208.7382,203.37254,204.65697,0,0,0,0,0,0,0,0,0.120000005,0.120000005,0.120000005,0.120000005,2.863094,2.6726115,1.2551425,1.9321363,2.923232,2.8734488,1.2779665,2.0420592,0.01096629,0.0011653379,-0.004689984,-0.004563771,164,6,231,2,0,1259.9642,284.96136,-2285.463,64.02346,357429.56,384.17264,168.271,170.14008,159.76935,159.76935,-11.76,1,577.2043,0,0,13.869225,13.86922,0,6,255,0,0,0,1,117,127,0
True,37555796,15999.99,0,8947.191,21.31596,-1.4050986,1.6230531,-13.112976,0.40311694,62.15196,0.015888793,0.43901315,0.04612128,1.1680727,-0.0033687914,-0.07008847,0.33230668,0.13471398,0.34081766,0.10067973,0.53027576,0.8464175,1.0686387,0.6631494,202.55223,204.57268,210.07622,206.50504,0,0,0,0,0,0,0,0,0.59999996,0.120000005,0.59999996,0.120000005,2.3406503,2.7075777,2.5410402,1.8657341,2.3999658,2.836794,2.7566056,1.9800836,0.008096479,-0.016141506,0.011628106,-0.016922515,164,6,231,2,0,1265.4331,285.1394,-2281.492,63.521477,282247.56,300.81647,169.20827,170.22829,160.46426,160.46426,-11.76,1,581.9146,0,0,13.975136,13.97513,0,6,255,0,0,0,1,120,127,0
True,37555906,15999.99,0,8790.407,19.672436,-4.121003,-18.591698,-13.837679,0.47942424,59.763626,-0.01881004,0.477743,0.10423413,1.2079154,0.005990698,-0.070659935,0.28625017,0.07643459,0.14797163,0.06123493,0.982561,0,0.22083975,0,199.75299,202.84215,204.31999,203.55287,0,0,0,0,0,0,0,0,0.59999996,0,0.59999996,0,3.162373,0,0.7958334,0,3.3114996,0,0.82590616,0,0.0024468936,-0.023290427,-0.011299858,-0.02161221,164,6,231,2,0,1270.2219,285.2656,-2278.2385,61.346573,625153,681.41046,170.58774,170.09859,161.40486,161.40486,-11.76,1,586.3319,0,0,14.068278,14.068273,0,6,255,0,0,0,1,121,127,0
True,37556015,15999.99,0,8531.418,19.348127,-0.17062604,-0.29592943,-15.274769,0.2000382,59.08972,-0.14185447,0.5718278,0.061465032,1.2685443,0.004758823,-0.0740608,0.2370428,0.042159557,0.114806704,0.15427636,0.56173044,0.7037131,0.8422711,1.0356462,191.39537,194.09976,199.7973,198.89166,0,0,0,0,0,0,0,0,0.120000005,0.120000005,0.120000005,0.120000005,3.3105373,2.2334092,2.4681318,2.8659391,3.3578563,2.341651,2.6078908,3.0473218,-0.003589198,-0.027494822,-0.015242923,-0.010550274,164,6,231,2,0,1276.2681,285.3976,-2274.3486,61.0324,338442.28,378.5468,171.38228,170.71533,162.95142,162.95142,-11.76,1,591.833,0,0,14.1858,14.185794,0,6,255,0,0,0,1,121,127,0
True,37556125,15999.99,0,9059.797,18.672232,2.45213,2.0948696,-16.482635,-0.0070209503,58.34182,-0.09252326,0.5141815,0.1507904,1.3308563,-0.0047034584,-0.066576704,0.15015467,0.076800525,0.19993855,0.24699989,0.40533757,0.4783719,0.33011127,0.487035,207.1326,208.08923,207.8014,212.41487,0,0,0,0,0,0,0,0,0.59999996,0.59999996,0.59999996,0.59999996,1.0333934,1.0280789,0.8719337,0.974887,1.1100452,1.133925,0.9323314,1.0897741,-0.014247453,-0.02324554,-0.0051213764,0.0004738681,164,6,231,2,0,1282.1759,285.53802,-2270.865,60.625446,653284.56,688.2924,171.31648,170.42398,162.85614,162.85614,-11.76,1,596.4467,0,0,14.298653,14.298647,0,6,255,0,0,0,1,121,127,0
True,37556234,15999.99,0,9766.243,11.517092,-1.9680488,2.0513887,-18.203096,-0.48042738,57.622257,0.111149445,0.4474645,-0.108135,1.3869579,-0.0054573365,-0.0697344,0.07378045,0.045094576,0.27047136,0.122751355,0,0,0.6248344,0,224.8338,226.69864,224.537,226.31879,0,0,0,0,0,0,0,0,0.59999996,0,0.59999996,0.59999996,0,0,1.063279,0,0,0,1.2332803,0,-0.023616001,-0.027134795,0.0032644533,-0.014298363,164,6,231,2,0,1288.155,285.69473,-2267.6155,60.43101,752266.94,738.1968,170.12392,169.08093,162.07733,162.07733,-6.6249237,1,601.64355,0,0,14.411155,14.411149,0,6,255,0,0,0,1,119,127,0
True,37556343,15999.99,0,10463.959,9.852504,-5.212949,0.8854892,-19.556387,-0.46940732,56.85703,0.24684541,0.38132802,-0.16213566,1.4267538,0.010184628,-0.076938786,0,0,0.05720192,0.04652499,0.96976435,0,0.7905425,0,239.3509,245.93027,233.99861,248.26091,0,0,0,0,0,0,0,0,0.59999996,0,0.59999996,0,1.1748102,0,1.0434141,0,1.5233588,0,1.3090724,0,-0.03266638,-0.03266638,-0.022091705,-0.023361113,164,6,231,2,0,1293.3346,285.76666,-2264.9092,60.12815,751336.8,684.9453,168.90237,167.86368,161.62157,161.62157,-8.591952,1,606.11426,0,0,14.508221,14.508215,0,6,255,0,0,0,1,121,127,0
True,37556468,15999.99,0,10013.413,16.38397,1.70332,3.52991,-20.385195,0.16165113,56.02337,-0.10992566,0.4426259,0.37141615,1.4795336,0.02498086,-0.07814937,0.16265813,0.28256494,0.07511747,0.13675886,0.80150414,0.95451266,0.8780637,0.9528643,223.23477,229.45102,231.65451,236.16849,0,0,0,0,0,0,0,0,0.59999996,0.59999996,0.59999996,0.59999996,1.2361383,1.3591951,1.1876585,1.2185712,1.4732437,1.660875,1.4769999,1.5468892,-0.012713699,0.0019948408,-0.01996168,-0.0126329735,164,6,231,2,0,1300.3491,285.80682,-2261.4478,59.61712,361732.53,344.79584,168.41263,167.41011,161.76535,161.76535,-11.76,1,611.28107,0,0,14.639115,14.639109,0,6,255,0,0,0,1,121,127,0
True,37556578,15999.99,0,9347.929,22.462423,6.928755,5.623723,-20.809313,-0.17778909,55.270073,-0.21176963,0.52785414,-0.095560424,1.5357541,0.008005306,-0.07147945,0.15398547,0.1277463,0.538895,0.15692581,0.68973255,0.77813333,0.6567122,0.6828328,214.8385,216.42638,215.79134,216.25458,0,0,0,0,0,0,0,0,0.59999996,0.59999996,0.59999996,0.59999996,1.3747455,1.395543,1.2243901,1.2299969,1.538069,1.5978209,1.389389,1.4068238,-0.013777541,-0.016996207,0.035178035,-0.010235272,164,6,231,2,0,1306.2378,285.86795,-2258.8289,59.057934,506432.03,517.5318,168.54016,167.37448,161.8817,161.8817,-11.76,1,616.1939,0,0,14.747551,14.747545,0,5,255,0,0,0,1,121,127,0
True,37556687,15999.99,0,10000.126,14.178205,-2.1052554,1.4300872,-22.527452,-0.8614502,54.1929,0.11126882,0.46982512,0.17092688,1.5902056,0.00925562,-0.07659511,0.037505046,0.034195192,0.14657024,0.10506477,0,0,0.9242451,1.0544889,230.12584,232.57263,230.00629,231.45587,0,0,0,0,0,0,0,0,0,0,0.59999996,0,0,0,1.362244,1.3818855,0,0,1.6461889,1.7382619,-0.028065775,-0.028471783,-0.011466473,-0.016401166,164,6,231,2,0,1312.1306,285.94077,-2256.452,58.69496,662438.1,634.5098,167.45032,166.21774,161.51468,161.51468,-11.76,1,621.05743,0,0,14.855508,14.855502,0,5,255,0,0,0,1,120,127,0
True,37556796,15999.99,0,10616.885,8.618026,-3.9682543,2.9408727,-24.292484,0.53950995,53.358536,0.27608898,0.42078704,0.1492312,1.634755,0.035500616,-0.044961177,0.09082146,0,0.17675665,0.022335054,1.1268779,1.5542859,1.2682301,1.3217214,231.69337,253.20694,245.8866,247.46251,0,0,0,0,0,0,0,0,0.59999996,0.59999996,0.59999996,0.59999996,1.5995607,1.6266105,1.3627573,1.4933642,1.9566422,2.2498147,1.8615894,1.9942628,-0.021525642,-0.03266638,-0.007877532,-0.026237117,164,6,231,2,0,1317.9814,285.93378,-2254.1814,58.63062,305742.12,274.46487,166.26347,165.03224,160.89392,160.89392,-11.76,1,624.8809,0,0,14.9625225,14.962517,0,5,255,0,0,0,1,119,127,0
True,37556906,15999.99,0,10199.02,13.329826,-0.0634076,4.972146,-25.368711,0.81499517,52.64721,-0.21490175,0.5581357,-0.0725683,1.686601,0.04323668,-0.048697397,0.25108567,0.23517413,0.06767848,0.037460502,1.0294405,1.3387713,0,1.2489499,223.6481,238.06554,238.24959,237.90034,0,0,0,0,0,0,0,0,0.59999996,0.59999996,0.59999996,0.59999996,1.6721656,1.6310139,0,1.5450792,1.9636409,2.1100984,0,1.9867424,-0.0018666089,-0.0038184188,-0.02084612,-0.024438813,164,6,231,2,0,1323.998,285.91467,-2252.0205,58.44625,413705.4,387.16846,166.83313,165.97498,161.60927,161.60927,-11.76,1,629.74194,0,0,15.071745,15.071738,0,5,255,0,0,0,1,124,127,0
True,37557015,15999.99,0,9749.325,14.416281,0.39536047,5.1412325,-27.10697,-0.46194428,51.45297,-0.124478,0.51295924,0.17869343,1.7555759,0.025417745,-0.05402398,0.12656651,0.1292169,0.12729242,0.04112494,1.0277634,1.0981326,1.1306515,0.9454852,226.9899,227.86028,228.99864,218.85886,0,0,0,0,0,0,0,0,0.59999996,0.59999996,0.59999996,0.59999996,1.4776859,1.5020059,1.6647291,1.5247258,1.7999592,1.8606228,2.0123856,1.7940822,-0.017140925,-0.016815811,-0.013758464,-0.024003139,164,6,231,2,0,1330.9634,285.88,-2249.7434,58.158478,321399.2,314.2956,167.25076,166.63907,162.46318,162.46318,-11.76,1,635.3361,0,0,15.197411,15.197404,0,5,255,0,0,0,1,-34,127,0
True,37557125,15999.99,0,9679.932,11.853295,-1.9621043,3.3078096,-28.237719,-0.18474782,50.47042,0.1839809,0.43453774,-0.100275315,1.8041908,0.038084023,-0.059431337,0.08114723,0.03298552,0.11169102,0.100630276,0.54296225,0,1.114835,1.0886421,214.42075,230.43933,224.86894,223.45273,0,0,0,0,0,0,0,0,0.59999996,0.59999996,0.120000005,0.59999996,0.28734303,0,1.6426184,1.6472199,0.61430776,0,1.9852084,1.9744557,-0.022712344,-0.028620169,-0.015613355,-0.016928395,164,6,231,2,0,1336.747,285.85016,-2248.045,57.833084,517943.12,508.8779,166.54764,165.79088,163.45912,163.45912,-11.76,1,639.3632,0,0,15.301464,15.301458,0,5,255,0,0,0,1,-127,127,0
True,37557250,15999.99,0,9692.094,4.2558804,-0.2037529,1.0167732,-29.556858,0.3300643,49.455025,-0.07907429,0.2694899,0.12960784,1.8411943,0.050869282,-0.054094933,0.21278861,0.26288357,0.023120202,0.0567179,0.573501,0.511994,0,0,213.10114,213.095,230.05634,229.225,0,0,0,0,0,0,0,0,0.59999996,0.59999996,0,0,-0.77154285,-0.03598654,0,0,0.9613437,0.51325715,0,0,-0.0065643713,-0.00041940436,-0.026143769,-0.022149252,164,6,231,2,0,1342.6045,285.79724,-2246.436,57.61524,752268.06,743.1774,165.42622,164.6331,163.6217,163.6217,-7.711342,1,643.33875,0,0,15.406892,15.406886,0,5,255,0,0,0,1,-127,127,0
True,37557359,15999.99,0,9479.057,3.716647,0.31919482,4.211492,-30.2448,-0.53463084,49.250107,-0.14878312,0.072499834,0.075887635,1.8626659,0.03180537,-0.045278836,0.21023634,0.1990589,0.15957385,0.2610053,0.7484321,0.5577219,1.0074043,1.1556295,223.74792,217.77296,214.93701,220.89447,0,0,0,0,0,0,0,0,0.120000005,0.120000005,0.120000005,0.120000005,-0.6806238,0.018510092,1.6816704,1.8184235,1.011632,0.558029,1.9603262,2.1545634,-0.0068774484,-0.008248545,-0.009920441,0.0021390095,164,6,231,2,0,1348.7231,285.70343,-2244.7676,57.79798,463891.9,465.348,164.49323,163.6489,163.64362,163.64362,-11.76,1,648.1479,0,0,15.516822,15.516817,0,5,255,0,0,0,1,-127,127,0
True,37557468,15999.99,0,9164.884,129.04951,21.21906,-31.852272,-11.47632,-0.19693334,47.481014,0.22909854,-0.9544786,-0.1837627,1.7934568,0.041569043,-0.15190877,0.1262875,0.21651179,0.3308381,0.3492474,0,0.83816177,0,0.9947129,230.07816,196.17586,214.69199,207.03679,0,0,0,0,0,0,0,0,0,0.120000005,0,0.120000005,0,-0.9525387,0,0.7043403,0,1.2687967,0,1.218831,-0.017175151,-0.006107662,0.010441609,0.012630336,164,6,231,2,0,1354.4575,285.66776,-2244.3398,48.84866,683194.06,712.63916,163.6548,163.3307,166.20892,166.20892,-11.76,1,652.5685,0,0,15.627975,15.62797,0,5,255,0,0,0,1,-127,127,0
True,37557562,15999.99,0,9956.806,25.51463,-3.41398,-8.280417,-6.9301867,-0.077816285,48.40729,0.2105472,-1.0533273,0.15480843,1.6973764,0.045163035,-0.14987485,0.047158804,0.07701789,0.09461061,0.090606205,0,1.0862421,0,1.3555583,248.2349,212.22032,227.98952,231.60286,0,0,0,0,0,0,0,0,0,0.120000005,0,0.120000005,0,-0.7975338,0,0.39763466,0,1.3475838,0,1.4126754,-0.026881583,-0.023218876,-0.017644089,-0.018120183,164,6,231,2,0,1358.9574,285.5953,-2244.2776,48.900917,513944.2,494.04932,162.86314,162.97043,165.28883,165.28883,-10.232964,1,655.08136,0,0,15.720035,15.72003,0,5,255,0,0,0,1,0,127,0
True,37557687,15999.99,0,10758.962,3.731287,-8.541819,-0.5917759,-0.6905308,-0.392519,49.071198,-0.006166041,-1.172157,0.501914,1.5688363,0.040165275,-0.12226361,0.022890598,0.39589342,0.02813244,0.021518964,0,0.8406819,0,1.6766255,283.98364,205.53714,249.47522,251.48663,0,0,0,0,0,0,0,0,0,0.59999996,0,0.120000005,0,0.0061344784,0,-0.047096528,0,0.8407043,0,1.6772869,-0.029858476,0.015896436,-0.02554785,-0.026334144,164,6,231,2,0,1364.5531,285.3919,-2244.1882,49.077625,490934.3,436.263,161.93367,162.35179,164.20874,164.20874,-9.299567,1,659.3863,0,0,15.834403,15.834397,0,5,255,0,0,0,1,0,127,0
True,37557796,15999.99,0,8871.873,-2.2245169,2.2122676,11.409052,5.607566,-0.2949649,50.101315,0.026408479,-1.0869458,-0.14730076,1.4341518,0.025772193,-0.07078502,0.24241868,0.36937952,0.24485537,0.20801356,1.4024509,0.4025207,0.4310476,1.1811697,233.33646,183.0084,178.46088,227.77359,0,0,0,0,0,0,0,0,0.59999996,0.120000005,0.120000005,0.59999996,-0.27659577,-0.26277912,-0.4447687,-0.42456204,1.4294662,0.4807034,0.61937165,1.2551553,-0.0029297583,0.012644071,0.00021890178,-0.004161317,164,6,231,2,0,1370.295,285.13385,-2244.078,50.415012,138324.95,148.04451,161.80193,161.42055,163.52077,163.52077,-11.76,1,663.8055,0,0,15.950091,15.950087,0,5,255,0,0,0,1,0,127,0
True,37557906,15999.99,0,8286.848,-2.468215,0.16042003,7.6857953,10.847128,-0.04815194,50.132668,-0.22361735,-0.9770354,-0.17679301,1.3184506,0.015813006,-0.08025745,0.26056838,0.23039566,0.256858,0.31406668,0.38686204,0.4264678,0.7364549,0.63560456,180.22379,187.50034,196.943,193.95116,0,0,0,0,0,0,0,0,0.59999996,0.59999996,0.59999996,0.59999996,-0.03233827,0.07387338,-0.8057217,-0.76582277,0.38821128,0.43281877,1.091583,0.99522746,-0.00070339814,-0.0044045784,0.0016459227,0.008447614,164,6,231,2,0,1376.0629,284.94147,-2243.8694,51.292755,600187.8,692.7794,161.2158,160.49518,162.6767,162.6767,-9.319084,1,668.2453,0,0,16.06338,16.063377,0,5,255,0,0,0,1,127,127,0
True,37558031,15999.99,0,9310.143,-1.4582996,-8.45528,1.575192,15.7083235,-0.09711,48.966415,0.12074559,-0.8977499,-0.024225276,1.2115662,0.018597536,-0.08859355,0.05569592,0.052610114,0.09601332,0.09439607,0,0.8446305,0,0,214.34724,211.04851,215.99261,216.53824,0,0,0,0,0,0,0,0,0,0.59999996,0,0,0,-0.16344582,0,0,0,0.86029947,0,0,-0.025834365,-0.02621289,-0.017477317,-0.017669596,164,6,231,2,0,1382.0796,284.72998,-2243.5774,51.424416,753463.75,774.05164,160.25737,159.45923,161.79477,161.79477,-3.5145493,1,672.6201,0,0,16.180618,16.180616,0,5,255,0,0,0,1,127,127,0
True,37558140,15999.99,0,9171.457,-1.782264,-0.26127762,7.4072275,20.435316,-0.04408656,47.85078,-0.12793857,-0.7814087,0.03910482,1.1110898,0.014754402,-0.09075823,0.055176046,0.0930091,0.029418388,0.07123791,0.677229,0.6671897,0,0,199.15666,199.87498,218.55038,218.36885,0,0,0,0,0,0,0,0,0.59999996,0.59999996,0,0,0.029957492,0.40674016,0,0,0.67789125,0.781396,0,0,-0.025898136,-0.021257292,-0.025394961,-0.02042293,164,6,231,2,0,1388.0205,284.41843,-2243.2634,52.031734,752265.2,782.6794,159.6309,158.66862,161.5647,161.5647,-8.9313545,1,677.19635,0,0,16.29602,16.296019,0,5,255,0,0,0,1,127,127,0
True,37558250,15999.99,0,6569.21,-3.9219675,3.1567802,3.1062064,23.413792,-0.18272397,46.594486,-0.016251177,-0.5722152,0.13257003,1.036792,-0.0058540963,-0.089824565,0.13895068,0.21038315,0.13224572,0.18021594,-0.54123974,-0.3654335,0.32271636,0.3766191,133.00952,134.41174,157.75992,165.13776,0,0,0,0,0,0,0,0,0.59999996,0.59999996,0.59999996,0.59999996,0.0071947263,0.48472917,-1.4345107,-1.6048149,0.54128754,0.60704535,1.4703628,1.6484152,-0.015621806,-0.0068594404,-0.013169553,-0.007466249,164,6,231,2,0,1393.8702,284.15695,-2242.8901,52.14677,752271.4,1085.9998,158.86514,158.02002,161.78938,161.78938,-11.76,1,681.70154,0,0,16.408314,16.40831,0,5,255,255,0,0,1,127,127,129
True,37558359,15999.99,0,6506.2275,-6.241583,-5.1399884,-3.778698,25.327843,-0.08918691,44.01286,0.16757166,-0.4322158,0.050180696,0.9762584,-0.0036022668,-0.10077623,0.029952109,0.037993226,0.08560498,0.16694753,0,0,0,0.19859602,115.715576,183.57529,151.32079,149.85835,0,0,0,0,0,0,0,0,0.59999996,0.120000005,0,0.59999996,0,0,0,-1.7768698,0,0,0,1.7879336,-0.028992265,-0.02800589,-0.018714791,-0.009043764,164,6,231,2,0,1400.2266,283.90256,-2242.411,50.780308,470609.88,693.6605,158.04054,157.2068,161.85439,161.85439,-9.384804,1,686.6403,0,0,16.532373,16.532368,0,5,0,255,0,0,1,127,127,129
True,37558468,15999.99,0,4823.197,-9.927146,5.505827,-12.006778,25.708452,0.37276518,41.53898,0.059004895,-0.2462271,-0.1686129,0.9415437,-0.0056964476,-0.09295866,0.44221142,0.5325581,0.22051795,0.18773359,-0.18501408,-0.8070586,-0.46945563,-0.45252848,141.35956,104.1974,104.340416,106.119225,0,0,0,0,0,0,0,0,0.59999996,0.59999996,0.120000005,0.120000005,-0.0016357416,0.71687657,-1.8559201,-1.7926446,0.18502131,1.07947,1.9143741,1.8488798,0.021578096,0.03266059,-0.0026746392,-0.006572455,164,6,231,2,0,1405.3799,283.66693,-2242.0254,48.85233,74469.92,146.17923,153.95297,152.13583,158.78233,158.78233,-11.76,1,690.6095,0,0,16.635714,16.635706,0,5,0,255,0,0,1,127,127,129
True,37558578,15999.99,0,3836.6853,-14.896552,8.367451,-20.598639,25.028467,1.093133,38.876144,0.0073517486,-0.09433782,-0.24704185,0.9255173,-0.008858279,-0.09232465,0.56547314,0.6518448,0.39555836,0.4173896,-0.12777504,-0.2161076,-0.86974186,-1.5101186,137.60083,124.66257,77.437874,53.776817,0,0,0,0,0,0,0,0,0.59999996,0.59999996,0.59999996,0.59999996,-0.06031912,0.6219881,-1.951592,-1.9451355,0.14129706,0.65846163,2.136624,2.462521,0.036698163,0.04729306,0.01813637,0.02073194,164,6,231,2,0,1410.2853,283.5241,-2241.6702,46.249043,-19298.955,-47.40736,153.31834,151.64075,157.74857,157.74857,-11.76,1,694.38605,0,0,16.73949,16.739483,0,5,0,255,0,0,1,127,127,129
True,37558687,15999.99,0,3313.0508,-11.547957,0.3309615,-13.078531,23.365547,1.1647792,37.20061,0.04962243,0.078380704,0.065445885,0.92777765,-0.002306303,-0.081820354,0.2728008,0.41157073,0.16803671,0.47250408,-0.73883706,-0.564151,-1.2467732,-1.2040441,105.015816,106.798996,59.661266,61.57077,0,0,0,0,0,0,0,0,0.59999996,0.59999996,0.59999996,0.59999996,-0.03905267,0.6348242,-1.9121988,-1.8902377,0.73986846,0.84927505,2.28275,2.2411427,0.0007971078,0.017819513,-0.0089142695,0.027284645,164,6,231,2,0,1415.7703,283.44144,-2241.2378,43.94532,-13554.417,-39.730064,152.62723,150.03574,158.8415,158.8415,-11.76,1,698.6079,0,0,16.862137,16.862127,0,5,0,255,0,0,1,127,127,129
True,37558796,15999.99,0,3279.1934,-10.306967,2.615315,-12.901458,22.10616,0.6304468,36.154793,-0.056942087,0.20205484,0.006262772,0.94203055,-0.019382397,-0.076326326,0.21243046,0.24711859,0.18555215,0.32995182,0,-0.31926715,-1.2021852,-0.94556546,80.744415,115.19708,58.909462,68.49778,0,0,0,0,0,0,0,0,0,0.59999996,0.59999996,0.59999996,0,0.66662675,-1.7920274,-1.8581197,0,0.73913646,2.1579182,2.0848749,-0.0066083036,-0.002353236,-0.0068318136,0.010336235,164,6,231,2,0,1420.278,283.38507,-2240.8848,42.382175,-14121.785,-40.553062,152.12497,149.58838,159.75603,159.75603,-11.76,1,702.062,0,0,16.96677,16.96676,0,5,0,255,0,0,1,127,127,129
True,37558921,15999.99,0,3205.5713,-5.548111,-4.913033,-6.2335143,20.159369,0.37738502,36.26541,0.27681553,0.37045708,0.23013337,0.9770969,0.0035843977,-0.06218362,0.062047414,0.081000686,0.081437945,0.07258162,0,-0.53531176,0,0,44.405342,100.46285,73.10775,76.68192,0,0,0,0,0,0,0,0,0,0.59999996,0,0.59999996,0,0.78874576,0,0,0,0.95324636,0,0,-0.02505525,-0.02273032,-0.019210221,-0.020263173,164,6,231,2,0,1425.3826,283.30402,-2240.4548,41.493645,-13088.194,-39.040802,151.60062,149.0364,160.00598,160.00598,-5.879999,1,705.99097,0,0,17.089018,17.08901,0,5,0,255,0,0,1,127,127,129
True,37559015,15999.99,0,3029.2576,-7.3960323,1.0300255,-14.778605,18.20686,0.5707984,35.757397,-0.15654427,0.4267701,-0.04859954,1.0164927,0.023095056,-0.043936398,0.5228918,0.45569065,0.038939934,0.02514881,-0.3730441,-0.5663029,-1.2958615,-1.3989804,102.33433,89.94734,58.10768,53.491096,0,0,0,0,0,0,0,0,0.59999996,0.59999996,0.59999996,0.59999996,0.22477768,0.9051511,-1.5553983,-1.5359964,0.4355306,1.0677067,2.0244806,2.0776021,0.031474866,0.023231544,-0.02426292,-0.025902582,164,6,231,2,0,1429.6129,283.17426,-2240.089,40.129875,-12020.006,-37.41375,151.34541,148.66748,159.25014,159.25014,-11.76,1,709.2473,0,0,17.192575,17.192568,0,5,0,255,0,0,1,127,127,129
True,37559125,15999.99,0,3595.449,-7.44462,7.6041026,-21.084848,15.322385,0.6868822,34.465446,-0.18642715,0.5994537,0.13105744,1.0704701,0.014388206,-0.029002178,0.41027993,0.66511077,0.15749332,0.38072821,-0.26117018,-0.54243845,-0.8151845,-0.80080885,104.28459,90.7707,77.957016,72.43726,0,0,0,0,0,0,0,0,0.59999996,0.59999996,0.59999996,0.59999996,0.3623897,0.9899367,-1.3370113,-1.394205,0.44669473,1.128811,1.5659263,1.6078253,0.017661177,0.04892035,-0.0101678,0.016373176,164,6,231,2,0,1433.5608,283.1045,-2239.762,37.724182,120234.875,319.14368,150.94994,148.49252,159.27063,159.27063,-11.76,1,712.2859,0,0,17.293959,17.293953,0,5,127,117,0,0,1,123,127,198
True,37559250,15999.99,0,5532.465,-5.9444275,2.3442469,-7.6665974,11.394579,0.69994634,34.562634,0.10900177,0.87028074,0.08280966,1.1608349,0.013598063,-0.018872995,0.14781332,0.1835726,0.23115586,0.2697895,0,0.45795536,0.43116742,0.57291985,127.48328,123.31065,128.30399,129.80162,0,0,0,0,0,0,0,0,0,0.59999996,0.59999996,0.59999996,0,1.2644761,-0.9781121,-1.0135067,0,1.3448505,1.0689287,1.1642306,-0.014534656,-0.010148194,-0.0014098696,0.0031833798,164,6,231,2,0,1438.0275,283.0986,-2239.3748,36.399204,621638.56,1081.2883,150.45206,148.33417,158.75941,158.75941,-11.76,1,715.7236,0,0,17.415272,17.415264,0,5,255,0,0,0,1,124,127,0
True,37559343,15999.99,0,7083.0103,-0.2199167,-6.054746,-4.894887,8.149441,0.1373836,35.006588,0.042955637,0.958487,0.21758913,1.2549087,0.027931707,0.0071119,0.037664935,0.04653615,0.08110194,0.07212397,0.85693014,1.6224927,0,0,147.91954,163.47125,167.10503,168.57945,0,0,0,0,0,0,0,0,0.59999996,0.120000005,0,0,0.8045257,1.4299257,0,0,1.1754109,2.1626766,0,0,-0.028046161,-0.02695796,-0.01925017,-0.020317584,164,6,231,2,0,1441.7677,283.05545,-2239.0364,35.942913,511996.6,691.56366,150.09712,147.52881,157.88792,157.88792,-11.76,1,718.1133,0,0,17.519712,17.519705,0,5,255,0,0,0,1,124,127,0
True,37559468,15999.99,0,6390.175,6.4610534,-0.07673846,1.4416707,4.3536315,-0.4876271,35.995995,-0.27914867,1.1676148,0.2910397,1.3797952,0.01763846,0.03195123,0.21190125,0.5648992,0.153526,0.03897421,0.67621964,0.7803405,0.47517148,1.6291826,138.3361,128.58388,136.53288,173.89404,0,0,0,0,0,0,0,0,0.59999996,0.59999996,0.59999996,0.120000005,1.036974,1.6259788,-0.28031948,-0.28658158,1.2379774,1.803535,0.55169463,1.6541961,-0.0066732205,0.036627762,-0.010639487,-0.024258845,164,6,231,2,0,1446.0963,282.92868,-2238.6833,36.2616,116623.63,173.64537,150.4253,145.72859,157.04756,157.04756,-11.76,1,721.4369,0,0,17.64011,17.640104,0,5,255,0,0,0,1,124,127,0
True,37559562,15999.99,0,5697.9116,5.1074023,3.8736207,5.3115788,0.041784048,-0.30806622,36.791264,0.10147919,1.3274415,0.06049932,1.5126626,0.00076221186,0.043292128,0.28131884,0.19166711,0.5154308,0.44442067,0.5346413,1.0870829,0.31316614,0.37059528,132.05383,136.78181,131.75983,128.36298,0,0,0,0,0,0,0,0,0.120000005,0.59999996,0.59999996,0.120000005,1.2499043,1.6422389,0.13073385,0.14115752,1.3594491,1.9694409,0.33935878,0.39656815,0.0018419847,-0.00915527,0.032388315,0.023945734,164,6,231,2,0,1449.8875,282.86972,-2238.4417,36.792576,432645.22,724.76263,147.9409,143.89453,156.32172,156.32172,-11.76,1,724.3486,0,0,17.7438,17.743793,0,5,255,0,0,0,1,0,127,0
True,37559687,15999.99,0,5952.424,8.960206,0.0545246,1.7346416,-4.075855,0.0019268654,36.375534,0.16133931,1.3763717,0.2393657,1.6562481,0.0028088044,0.05387805,0.060576066,0.08693539,0.1525934,0.21955901,0.46540928,0.81285226,0.38415086,0.7598436,134.8732,141.10577,134.15932,140.21364,0,0,0,0,0,0,0,0,0.59999996,0.59999996,0.120000005,0.59999996,0.53235435,0.58317405,0.4834451,0.5471488,0.7071117,1.0004103,0.6174877,0.9363408,-0.025235735,-0.022002332,-0.0107503645,-0.002788648,164,6,231,2,0,1453.6898,282.84192,-2238.2954,36.60317,452447.8,727.11017,145.33853,144.29164,151.563,151.563,-11.34182,1,727.26984,0,0,17.84808,17.848076,0,5,255,0,0,0,1,0,127,0
True,37559781,15999.99,0,6375.0303,7.4305863,-1.5486639,5.738188,-8.611632,0.30506974,36.019608,-0.1534143,1.4358681,0.010886859,1.8033879,0.007341502,0.06498728,0.355669,0.221996,0.18241973,0.07087867,0.31553224,0.6309341,0.91388255,0,129.80579,134.53458,155.07393,155.67026,0,0,0,0,0,0,0,0,0.59999996,0.59999996,0.59999996,0.59999996,0.5678045,0.6125866,0.9213567,0,0.64958644,0.87939763,1.2977209,0,0.010962248,-0.005434934,-0.0072042346,-0.02046564,164,6,231,2,0,1457.6222,282.79117,-2238.2368,37.036003,626625.1,941.36035,145.0655,143.92319,150.17566,150.17566,-10.439339,1,730.29236,0,0,17.95493,17.954926,0,5,255,0,0,0,1,0,127,0
True,37559906,15999.99,0,6136.0693,13.772254,1.810257,5.5167484,-12.990168,0.20329055,34.477066,-0.1274195,1.4118187,-0.23181644,1.9764148,-0.015551197,0.06615741,0.26747608,0.117098756,0.4068905,0.30514252,0.20711556,0.9716086,0.8274187,1.0754845,122.53091,145.90988,145.3378,146.18205,0,0,0,0,0,0,0,0,0.59999996,0.59999996,0.59999996,0.59999996,0.6261958,0.7586361,1.3337108,1.4133568,0.65955895,1.2327011,1.5695242,1.7760192,0.00014394522,-0.018302301,0.019483678,0.0073865987,164,6,231,2,0,1462.1711,282.7473,-2238.33,36.843636,396326.72,617.15753,144.91333,143.83856,150.19865,150.19865,-11.76,1,732.85254,0,0,18.07815,18.078148,0,5,255,0,0,0,1,-53,127,0
True,37560015,15999.99,0,6493.873,11.273051,0.8218869,4.9633303,-16.600952,0.40720725,32.841713,0.26861143,1.2882867,0.17739232,2.1196277,-0.021017224,0.061445612,0.08704364,0.058071103,0.15151705,0.15025002,0,0,1.1722721,1.3495017,148.44633,150.43567,152.89328,147.62766,0,0,0,0,0,0,0,0,0.59999996,0,0.59999996,0.59999996,0,0,1.669077,1.7698585,0,0,2.0396175,2.2256582,-0.021989053,-0.02554301,-0.010878334,-0.011028975,164,6,231,2,0,1466.0487,282.76028,-2238.5894,36.801296,578548.3,855.96924,144.6609,143.5574,150.7458,150.7458,-11.76,1,735.8399,0,0,18.18367,18.183666,0,5,255,0,0,0,1,-127,127,0
True,37560125,15999.99,0,7243.0146,1.6288333,-6.122776,1.425387,-20.83709,0.09761132,30.394466,0.078013085,1.2288319,-0.07265437,2.254646,-0.010263068,0.0518264,0.039575905,0.005670955,0.045740876,0.05406861,1.2580068,1.1450484,0,0,165.75874,155.122,171.45195,170.48749,0,0,0,0,0,0,0,0,0.59999996,0.59999996,0,0,-0.6551756,0.12023118,0,0,1.4183922,1.1513432,0,0,-0.027811749,-0.031970747,-0.023454338,-0.022464233,164,6,231,2,0,1469.9183,282.7299,-2238.9092,36.85129,603759.94,797.78827,144.43503,143.43237,151.77829,151.77829,-11.76,1,738.8248,0,0,18.289112,18.28911,0,7,255,0,0,0,1,-127,127,0
True,37560218,15999.99,0,7018.702,0.21991706,-1.5313108,4.3271203,-24.328976,-0.7811229,28.2953,-0.34266204,1.0018034,0.009798646,2.3706155,-0.03938201,0.040971193,0.29923978,0.23412795,0.11903158,0.08696966,0.8140061,1.2206228,2.4200401,2.0993178,152.2157,160.6091,172.45221,157.8799,0,0,0,0,0,0,0,0,0.59999996,0.59999996,0.59999996,0.59999996,-0.3029684,0.4783616,2.44324,2.252207,0.8685596,1.311011,3.4388974,3.0788913,0.004040282,-0.0039467514,-0.014740616,-0.018552542,164,6,231,2,0,1473.8059,282.65555,-2239.2424,37.3247,318880.28,431.0615,144.66891,143.28125,152.17879,152.17879,-11.76,1,741.825,0,0,18.394249,18.394247,0,7,255,0,0,0,1,-127,127,0
True,37560343,15999.99,0,6364.6694,7.8704424,1.9917529,7.8826766,-25.863409,-0.057145864,26.712547,0.014044924,0.7356064,0.104625374,2.4739895,-0.045501895,0.049672037,0.2104949,0.2023632,0.43292594,0.29401338,0.7901363,0.6191817,1.9564158,2.3178434,149.19977,135.13899,149.25822,149.93286,0,0,0,0,0,0,0,0,0.59999996,0.59999996,0.59999996,0.59999996,-0.05451658,0.697825,2.5600886,2.7165194,0.7920148,0.9329232,3.2220516,3.570977,-0.0068457313,-0.007843219,0.022579096,0.006063424,164,6,231,2,0,1478.3049,282.62527,-2239.7717,37.18171,361397.84,542.3697,144.43399,143.46878,156.00876,156.00876,-11.76,1,745.30365,0,0,18.516014,18.516012,0,7,255,0,0,0,1,-127,127,0
True,37560453,15999.99,0,6407.5728,4.454136,-1.3316855,3.5940046,-26.981771,-0.2970329,25.33264,-0.071142286,0.59044975,-0.23888248,2.5388107,-0.044247337,0.037470464,0.36432725,0.1634289,0.24771538,0.22662029,0.39956743,1.1789345,2.3419158,2.489713,132.52208,156.03902,150.80537,149.15549,0,0,0,0,0,0,0,0,0.59999996,0.59999996,0.59999996,0.59999996,0.12769572,0.8863757,2.796926,2.8461573,0.41947624,1.474974,3.647926,3.781439,0.012024328,-0.012619151,0.0005589351,-0.0019491166,164,6,231,2,0,1481.9985,282.62067,-2240.3188,37.01144,386858.06,577.5897,144.24135,143.29959,158.27576,158.27576,-11.76,1,747.25696,0,0,18.616879,18.616875,0,7,255,0,0,0,1,-127,127,0
True,37560562,15999.99,0,6258.8174,8.265741,1.2232698,7.2872396,-27.29624,0.13423777,24.802227,0.056440428,0.3669476,0.23047253,2.5877638,-0.043808255,0.044174537,0.20613305,0.1940695,0.21779509,0.42614654,0.3645674,0.9950702,2.3409708,2.543991,127.89687,148.50905,147.71463,148.23329,0,0,0,0,0,0,0,0,0.120000005,0.59999996,0.120000005,0.59999996,0.18978561,0.9371261,2.7776027,2.8881314,0.41100848,1.3668833,3.6325226,3.8487911,-0.0073807836,-0.008860577,-0.002998367,0.021773078,164,6,231,2,0,1485.7756,282.60587,-2240.9578,36.881607,411124.12,626.94354,144.0617,143.62491,160.43517,160.43517,-11.76,1,750.19745,0,0,18.720572,18.720568,0,8,255,0,0,0,1,-127,127,0
True,37560687,15999.99,0,6233.4917,9.596621,0.23917437,6.8854246,-27.25238,-0.2520072,24.435522,0.0884421,0.22722773,-0.11851655,2.6282647,-0.052032292,0.03646148,0.18348049,0.1749154,0.5459928,0.30916113,0.7953391,1.0542897,2.121056,2.299226,145.70236,150.16318,141.62894,141.99222,0,0,0,0,0,0,0,0,0.120000005,0.120000005,0.120000005,0.120000005,0.24758308,1.0213919,2.6464005,2.7754538,0.8329836,1.4679128,3.3915062,3.6041064,-0.0101594925,-0.01121014,0.03602191,0.007864378,164,6,231,2,0,1490.2723,282.5996,-2241.8618,36.60397,424235.7,648.0572,143.94688,143.96674,163.38138,163.38138,-11.76,1,753.71124,0,0,18.845266,18.845263,0,8,255,0,0,0,1,-127,127,0
True,37560781,15999.99,0,6502.528,6.332705,-2.3448122,5.6169815,-26.82381,-0.11587888,24.655006,0.16585535,0.09570485,-0.0011373982,2.6442847,-0.032773945,0.031573776,0.25948212,0.20171183,0.27358174,0.29632434,0.6787345,0,2.6032305,2.5429525,141.88455,157.22879,150.62206,150.38976,0,0,0,0,0,0,0,0,0.59999996,0,0.120000005,0.120000005,0.24902414,0,2.8219097,2.7957644,0.72297543,0,3.8392684,3.7792733,-0.00083664805,-0.007923119,0.0036342517,0.006338179,164,6,231,2,0,1494.0586,282.6059,-2242.7778,36.433495,433552.88,638.75165,143.8569,144.12314,165.69702,165.69702,-11.76,1,756.6837,0,0,18.952126,18.952124,0,8,255,0,0,0,1,-127,127,0
True,37560890,15999.99,0,6820.402,5.629473,-3.5481548,3.1999207,-26.484453,-0.16955638,24.803598,0.16965945,-0.015828956,-0.08747801,2.6504836,-0.021871235,0.03591153,0.055574793,0.057451494,0.17068678,0.1494687,0.91516393,1.3567576,2.8641021,2.6449826,149.89772,163.52647,159.8584,156.03664,0,0,0,0,0,0,0,0,0.59999996,0,0.59999996,0.59999996,0.19552673,0.9437083,2.7738423,2.6682146,0.9358182,1.6526877,3.9871397,3.7570336,-0.025849223,-0.025619015,-0.008599196,-0.011121867,164,6,231,2,0,1497.8689,282.55725,-2243.7593,36.285995,440603.97,616.50256,143.6945,144.22484,167.44138,167.44138,-11.76,1,759.6823,0,0,19.060333,19.06033,0,9,255,0,0,0,1,-127,127,0
True,37561000,15999.99,0,7587.4004,2.2956038,-8.089123,1.2903059,-26.19841,-0.5677637,25.133862,0.13678922,-0.07111323,0.022737935,2.6458535,-0.007908048,0.03630571,0.019820498,0.00189067,0.07693844,0.06972324,1.2170248,0,3.37211,3.1617033,164.67271,180.01933,178.29121,175.28004,0,0,0,0,0,0,0,0,0.120000005,0,0.120000005,0.59999996,0.16844252,0,2.6605418,2.5629847,1.2286261,0,4.2953005,4.070044,-0.030235074,-0.03243446,-0.019745179,-0.020603012,164,6,231,2,0,1501.1395,282.47144,-2244.6548,36.309643,592556.56,744.50494,143.6285,144.05077,166.94069,166.94069,-11.76,1,762.2623,0,0,19.15381,19.153809,0,9,255,0,0,0,1,-127,127,0
True,37561109,15999.99,0,7048.294,13.13386,-0.18883769,0.79624844,-24.378746,-0.35959834,26.083143,-0.064571396,-0.2516019,0.24059387,2.625823,-0.00050805265,0.036608502,0.2882358,0.31008428,0.22235577,0.2426258,0.94482255,0.9721094,3.1380105,2.6497493,149.77043,150.70552,173.69102,165.42572,0,0,0,0,0,0,0,0,0.59999996,0.120000005,0.120000005,0.120000005,0.009914547,0.6949609,2.535726,2.4259353,0.9448746,1.1949759,4.034478,3.5925386,0.0026904643,0.0053705387,-0.002456136,-4.61787E-05,164,6,231,2,0,1505.0406,282.324,-2245.8123,35.7041,400130.3,540.1177,143.91814,144.45915,168.96898,168.96898,-11.76,1,764.52527,0,0,19.266369,19.266365,0,11,255,0,0,0,1,-127,127,0
True,37561218,15999.99,0,6821.23,7.6467915,-0.8918936,-0.9010365,-22.331167,-0.09283745,26.760483,0.07916661,-0.42253822,0.03717963,2.5891092,0.007110867,0.05126334,0.15413338,0.12591434,0.15443254,0.41898164,0.6774522,1.4374505,2.5934892,2.4047213,137.64763,167.76204,160.53902,159.7495,0,0,0,0,0,0,0,0,0.120000005,0.120000005,0.120000005,0.120000005,-0.14502263,0.52852964,2.3494246,2.313836,0.6928009,1.5315377,3.499426,3.337143,-0.013759397,-0.017220926,-0.010531705,0.020921223,164,6,231,2,0,1508.8136,282.17392,-2247.0505,34.854168,376889.12,528.766,144.04419,144.77203,170.72334,170.72334,-11.76,1,767.5483,0,0,19.37975,19.379747,0,11,255,0,0,0,1,-127,127,0
True,37561328,15999.99,0,6677.8975,87.11641,7.0013266,-110.559814,-0.24907324,0.1560911,0.012495175,-0.6532361,0.030513823,0.35518825,2.561499,-0.051791754,0.048720326,0.071310654,0,0.08591233,0.12538655,0,0,0,20.229301,140.18799,179.42903,160.26807,142.13573,0,0,0,0,0,0,0,0,0,0,0,0.120000005,0,0,0,0.2673796,0,0,0,20.23107,-0.023918962,-0.03266638,-0.01867825,-0.013985056,164,6,231,2,0,1510.5461,282.2042,-2247.4968,0.29420745,0,0,144.0329,144.86568,170.9685,170.9685,-11.76,1,768.9155,0,0,19.492807,19.492807,0,11,255,0,0,0,1,-127,127,0
True,37561453,15999.99,0,4832.487,12.955127,-1.1115102,-7.661956,-0.26620576,-0.25950083,0.988317,-0.18434376,0.0788567,0.0017584637,2.5652251,-0.10215136,0.06674533,0,0,0.36261052,0.31533077,0,0,6.3950634,13.065196,166.70898,205.15514,47.24055,95.569305,0,0,0,0,0,0,0,0,0,0,0.120000005,0.120000005,0,0,1.0144379,1.1390651,0,0,6.475023,13.114756,-0.03266638,-0.03266638,0.014219113,0.008597903,164,6,231,2,0,1510.5947,282.19223,-2247.5188,1.0559247,0,0,143.91496,144.54507,172.39178,172.39178,-11.76,1,768.95575,0,0,19.60233,19.602331,0,12,255,0,0,0,1,-127,127,0
True,37561562,15999.99,0,3790.7837,2.849403,-3.2104943,5.511163,-0.10775983,-0.5788413,1.9328845,0.3337223,-0.04624161,-0.039195135,2.5668142,-0.09009335,0.06447967,0,0,0.39350232,0.34975585,0,0,2.5046883,1.7720978,192.92056,223.45845,23.191082,21.406126,0,0,0,0,0,0,0,0,0,0,0.120000005,0.120000005,0,0,0.1060993,0.115008704,0,0,2.5069344,1.775826,-0.03266638,-0.03266638,0.017891921,0.01269079,164,6,231,2,0,1510.7008,282.16678,-2247.6553,2.020572,606955,1546.6406,143.80182,144.24739,172.34276,172.34276,-11.76,1,769.0552,0,0,19.71136,19.711367,0,12,255,0,0,0,1,-127,127,0
True,37561671,15999.99,0,4157.6055,0.3415749,-4.4479017,6.836854,-0.008382559,0.09505155,1.3811964,0.13627943,-0.12726137,-0.37705326,2.5611951,-0.041936334,0.052175965,0,0,0.33898813,0.34416702,0,0,2.7284045,2.6447835,220.05646,231.93805,26.319336,25.122435,0,0,0,0,0,0,0,0,0,0,0.120000005,0.120000005,0,0,-0.019747324,-0.013504635,0,0,2.728476,2.6448178,-0.03266638,-0.03266638,0.01141059,0.012026317,164,6,231,2,0,1510.8362,282.1152,-2247.8525,1.3844885,0,0,143.69075,143.96613,172.20058,172.20058,-11.76,1,769.1861,0,0,19.821198,19.821201,0,12,255,0,0,0,1,0,127,0
True,37561781,15999.99,0,3859.4587,0.4387164,1.6469103,-10.509266,0.10746545,0.015602211,0.05823476,0.008162277,-0.048563257,0.0044112373,2.5501928,-0.03913777,0.037184667,0,0,0.15511274,0.35959506,0,0,3.8995447,0.17695972,225.4535,230.87619,26.824303,1.0539033,0,0,0,0,0,0,0,0,0,0,0.120000005,0.120000005,0,0,-0.22747387,-0.22729291,0,0,3.9061737,0.28805697,-0.03266638,-0.03266638,-0.010450833,0.013860598,164,6,231,2,0,1510.8362,282.12967,-2247.8835,0.1232215,0,0,143.589,143.70769,172.7743,172.7743,-11.76,1,769.1895,0,0,19.932354,19.93236,0,12,2,0,0,0,1,0,127,0
True,37561875,15999.99,0,1608.89,-0.20113873,-2.5086033,-5.7645006,0.028455839,-0.3343484,-0.36986572,0.28062505,0.08583218,0.102119446,2.5548031,-0.029583093,0.04078724,0,0,0.13549085,0.34376863,0,0,-12.422308,-7.9770775,156.54251,158.79605,-93.105225,-61.951996,0,0,0,0,0,0,0,0,0,0,0.120000005,0.120000005,0,0,0.075661816,0.07480892,0,0,12.422539,7.9774284,-0.03266638,-0.03266638,-0.01278373,0.011978958,164,6,231,2,0,1510.8245,282.11874,-2247.8777,0.4993989,0,0,143.4936,143.47328,173.07211,173.07211,-11.76,1,769.1805,0,0,20.04175,20.041758,0,12,0,255,0,0,0,7,127,129
True,37562000,15999.99,0,806.24194,0.05378318,1.0433751,2.0420458,0.008199528,-0.4563336,-0.33107132,0.30336583,0.18889828,-0.058464862,2.5722332,0.027329203,0.046379276,0.3973102,0.21358101,0.16625826,0.2998247,-0.009947769,8.795974,-11.172991,-1.2938094,-1.000409,57.21592,-79.25802,-8.52499,0,0,0,0,0,0,0,0,0.120000005,0.120000005,0.120000005,0.120000005,-0.4424676,-0.5424023,0.34967756,0.34849164,0.44257942,8.812681,11.178461,1.3399214,0.016070224,-0.006467171,-0.009125713,0.00675435,164,6,231,2,0,1510.7808,282.04492,-2247.8196,0.56384027,33306.145,396.90814,144.93854,143.97177,174.78947,174.78947,-11.76,1,769.1431,0,0,20.167307,20.167313,0,12,0,255,0,0,0,67,127,129
True,37562109,15999.99,0,532.76514,-0.06926996,3.8634455,-0.27853194,-0.043612413,0.08422089,-0.3175788,-0.057262357,-0.039343175,-0.0013175178,2.574247,0.033554073,0.044298366,0.5795284,0.42358452,0.17566635,0.33733836,0.0009799501,-0.041117094,-5.0221615,-0.03839634,-1.2300427,-1.1781147,-35.531017,-1.0832208,0,0,0,0,0,0,0,0,0.120000005,0.120000005,0.120000005,0.120000005,0.042750165,0.05327638,-0.009157189,-0.008976885,0.042761393,0.06729776,5.0221696,0.039431754,0.03842227,0.0192932,-0.008007161,0.011214446,164,6,231,2,0,1510.7708,282.03534,-2247.7957,0.3314385,0,0,144.92365,144.95708,175.73637,175.73637,-11.76,1,769.1328,0,0,20.272585,20.272587,0,12,0,255,0,0,0,29,127,129
True,37562218,15999.99,0,489.24088,0.600502,0.35403845,-3.7910995,0.023296267,0.06224352,-0.74572515,-0.036952406,0.018829841,0.0023126183,2.5721037,0.028033862,0.044809815,0.46091378,0.34439868,0.16424115,0.317443,-0.03152392,-0.103384234,-3.9276166,-0.06290955,-2.4449964,-2.9539704,-29.13268,-2.7664309,0,0,0,0,0,0,0,0,0.120000005,0.120000005,0.120000005,0.120000005,0.14478138,0.15660189,0.0011698888,0.0014157569,0.14817357,0.18764982,3.9276168,0.06292548,0.023872249,0.009579759,-0.009365533,0.008849032,164,6,231,2,0,1510.7435,282.04562,-2247.748,0.7486808,3486.8347,66.72143,144.78206,144.70439,176.39526,176.39526,-11.76,1,769.1056,0,0,20.37865,20.378653,0,12,0,255,0,0,0,-114,127,129
