IsRaceOn,TimestampMS,EngineMaxRpm,EngineIdleRpm,CurrentEngineRpm,AccelerationX,AccelerationY,AccelerationZ,VelocityX,VelocityY,VelocityZ,AngularVelocityX,AngularVelocityY,AngularVelocityZ,Yaw,Pitch,Roll,NormalizedSuspensionTravelFrontLeft,NormalizedSuspensionTravelFrontRight,NormalizedSuspensionTravelRearLeft,NormalizedSuspensionTravelRearRight,TireSlipRatioFrontLeft,TireSlipRatioFrontRight,TireSlipRatioRearLeft,TireSlipRatioRearRight,WheelRotationSpeedFrontLeft,WheelRotationSpeedFrontRight,WheelRotationSpeedRearLeft,WheelRotationSpeedRearRight,WheelOnRumbleStripFrontLeft,WheelOnRumbleStripFrontRight,WheelOnRumbleStripRearLeft,WheelOnRumbleStripRearRight,WheelInPuddleDepthFrontLeft,WheelInPuddleDepthFrontRight,WheelInPuddleDepthRearLeft,WheelInPuddleDepthRearRight,SurfaceRumbleFrontLeft,SurfaceRumbleFrontRight,SurfaceRumbleRearLeft,SurfaceRumbleRearRight,TireSlipAngleFrontLeft,TireSlipAngleFrontRight,TireSlipAngleRearLeft,TireSlipAngleRearRight,TireCombinedSlipFrontLeft,TireCombinedSlipFrontRight,TireCombinedSlipRearLeft,TireCombinedSlipRearRight,SuspensionTravelMetersFrontLeft,SuspensionTravelMetersFrontRight,SuspensionTravelMetersRearLeft,SuspensionTravelMetersRearRight,CarOrdinal,CarClass,CarPerformanceIndex,DrivetrainType,NumCylinders,PositionX,PositionY,PositionZ,Speed,Power,Torque,TireTempFl,TireTempFr,TireTempRl,TireTempRr,Boost,Fuel,Distance,BestLapTime,LastLapTime,CurrentLapTime,CurrentRaceTime,Lap,RacePosition,Accelerator,Brake,Clutch,Handbrake,Gear,Steer,NormalDrivingLine,NormalAiBrakeDifference
True,34229468,15999.99,0,0,-0.008561939,-1.5947899E-07,0.00090095564,-0.008495664,2.2982776E-05,-9.614858E-05,-0.00026569105,6.221414E-05,-0.0003502278,-1.3144963,-0.0017792417,0.00016859922,0.2756867,0.2562159,0.24422656,0.2426599,0.00039852277,0.0005661195,-0.033088755,0.01761413,-0.0002980427,-0.0002980427,-0.0002980427,-0.0002980427,0,0,0,0,0,0,0,0,0,0,0,0,0.023391867,0.016702091,-0.0032070868,-0.003233551,0.023395263,0.016711684,0.033243813,0.017908473,0.001151111,-0.001237303,0.00014413893,-4.2125583E-05,164,6,231,2,0,-969.61487,620.3982,-3621.9028,0.008496239,0,0,98.74992,98.839005,100.24174,100.24174,-14.7,1,0,0,0,0,198.0392,0,0,0,0,0,255,1,-127,0,0
True,34256765,15999.99,0,101.02122,0.045275807,-0.04898866,4.470849,0.0024267733,-0.0037959365,0.4893065,-0.02412066,-0.0009072306,-0.010085945,-1.053118,-0.001423927,-0.0005348092,0.25869662,0.26150808,0.24931072,0.25292525,1.0729673,0.9864074,0.08149701,-0.03473651,1.3388462,1.404199,2.470109,3.2359977,0,0,0,0,0,0,0,0,0,0,0,0,0.0038289812,0.0038702148,-0.0031582373,-0.003120729,1.0729741,0.98641497,0.08155818,0.03487641,-0.0009330027,-0.0005881302,0.00074860826,0.0011783503,164,6,231,2,0,-906.0746,320.07083,-3661.7517,0.48932722,6700.18,708.05725,107.65611,108.30207,109.99832,109.99832,0,1,-63.462326,0,0,0.09164437,0.09164437,0,7,255,0,0,0,1,0,53,0
True,34256890,15999.99,0,325.0642,-0.12275505,0.021612762,12.113625,0.0031684637,-0.0050956206,1.934999,-0.03510654,-0.0033369332,-0.016389702,-1.0532162,-0.0048460434,-0.0022206234,0.23042342,0.2514111,0.28527907,0.3130198,2.004103,0.37809148,0.7975485,0.48787156,9.485756,6.7157125,7.39958,6.9728155,0,0,0,0,0,0,0,0,0,0,0,0,0.03008768,0.03128522,-0.014178602,-0.012688746,2.0043287,0.37938362,0.7976745,0.48803654,-0.0044011734,-0.0018266886,0.005024977,0.008323152,164,6,231,2,0,-906.1894,320.07068,-3661.6858,1.9350083,51433.168,1546.6406,107.86041,108.487976,110.23404,110.23404,0,1,-63.357132,0,0,0.20587221,0.20587221,0,7,255,0,0,0,1,0,53,0
True,34256984,15999.99,0,523.8185,-0.13777304,0.064199984,13.715417,-0.00046288967,0.0023824011,3.370245,-0.006824723,-0.009090901,-0.005481718,-1.0536764,-0.0067491154,-0.0031845956,0.20081902,0.23846483,0.3106806,0.3583398,1.8734655,0.48108485,0.7739568,1.0009197,13.970765,11.256346,11.484882,12.151407,0,0,0,0,0,0,0,0,0,0,0,0,0.03953177,0.041012093,-0.02849129,-0.02261079,1.8738827,0.4828298,0.774481,1.001175,-0.008032639,-0.0034147613,0.008045036,0.013711359,164,6,231,2,0,-906.4209,320.0726,-3661.554,3.3702457,84391.03,1546.6406,110.707596,108.580185,110.50368,110.50368,0,1,-63.145412,0,0,0.30526003,0.30526003,0,7,255,0,0,0,1,0,53,0
True,34257109,15999.99,0,735.09467,0.21943235,-0.22648424,13.770905,0.017242908,-0.029603729,5.0020576,-7.583294E-06,0.003977551,0.004984252,-1.0543244,-0.006774191,-0.0029733146,0.17553844,0.21125624,0.2957977,0.3435205,1.3893431,0.6017306,0.8816275,0.6551679,17.90304,16.568237,17.009853,16.663324,0,0,0,0,0,0,0,0,0,0,0,0,0.2994955,0.30316922,-0.026048984,-0.02183654,1.4212571,0.6737888,0.88201225,0.65553164,-0.011133717,-0.006752342,0.006275568,0.0119494535,164,6,231,2,0,-906.8507,320.07434,-3661.3098,5.002175,118215.234,1546.6406,112.39345,108.7016,111.37387,111.37387,0,1,-62.75263,0,0,0.42303005,0.42303,0,7,255,0,0,0,1,14,53,0
True,34257203,15999.99,0,987.1202,0.23891449,-0.2094989,15.259748,0.08229065,-0.054567207,6.7301326,-0.004412815,0.065949716,-0.010234541,-1.0443859,-0.0069906935,-0.0025606267,0.16991447,0.19490851,0.29412282,0.33718622,2.6710448,0.46874475,0.7541955,0.543476,26.22296,21.575817,22.56813,21.83365,0,0,0,0,0,0,0,0,0,0,0,0,-0.29535988,-0.283408,0.0061215553,0.009107067,2.6873255,0.54776067,0.75422037,0.5435523,-0.011823587,-0.008757658,0.0060764328,0.011196356,164,6,231,2,0,-907.42725,320.07397,-3660.9639,6.730857,158440.3,1546.6406,112.98569,109.64195,111.68969,111.68969,0,1,-62.218502,0,0,0.53764164,0.53764164,0,7,255,0,0,0,1,0,53,0
True,34257328,15999.99,0,1201.1512,-0.4238572,-0.1830336,15.547853,0.0011491776,-0.07442772,8.423013,-0.005689004,-0.0034354301,0.004160309,-1.0426867,-0.0072802543,-0.0026758092,0.16542874,0.18866006,0.29625574,0.33857322,0.97563154,0.5823981,0.68047094,0.5335431,28.330467,27.48901,27.806849,27.48957,0,0,0,0,0,0,0,0,0,0,0,0,0.0007175922,0.0036336635,-0.008557487,-0.004869331,0.97563183,0.58240944,0.68052477,0.53356534,-0.012373835,-0.009524133,0.0063300207,0.011361256,164,6,231,2,0,-908.1552,320.0728,-3660.5366,8.423342,193621.23,1546.6406,114.62108,109.76404,111.994125,111.994125,0,1,-61.547817,0,0,0.649318,0.649318,0,7,255,0,0,0,1,0,52,0
True,34257437,15999.99,0,1445.1722,-0.23900652,-0.17107004,15.824043,-0.0024065971,-0.098101005,10.203493,-0.0068711108,-0.0028740393,0.0077220914,-1.0431414,-0.007951583,-0.0019528965,0.16535428,0.17743511,0.30602473,0.33676302,0.5756371,0.681549,0.58063847,0.5405335,33.25273,33.569714,33.404346,33.30818,0,0,0,0,0,0,0,0,0,0,0,0,0.0029618382,0.005828166,-0.004608099,-0.00038710944,0.57564473,0.6815739,0.58065677,0.5405336,-0.012382971,-0.010901058,0.007491488,0.0111460425,164,6,231,2,0,-909.0584,320.07108,-3660.0103,10.203966,233117.4,1546.6406,114.57527,109.933784,112.246056,112.246056,0,1,-60.717182,0,0,0.76129234,0.7612923,0,7,255,0,0,0,1,0,52,0
True,34257546,15999.99,0,1705.0525,1.0478997,-0.08755842,15.676974,0.08827019,-0.118981324,11.957338,-0.013105119,0.092848845,-0.0022693756,-1.037217,-0.009010843,-0.0006512368,0.17378357,0.16919805,0.31840307,0.32914504,0.60084414,1.0306312,0.5456565,0.62982357,39.397263,40.072994,39.29295,39.07479,0,0,0,0,0,0,0,0,0,0,0,0,-0.19926591,-0.19939208,0.0210727,0.02601199,0.63302493,1.0497419,0.54606324,0.6303605,-0.011348978,-0.011911469,0.008963179,0.01024032,164,6,231,2,0,-910.1237,320.0694,-3659.379,11.958256,275338.94,1546.6406,114.49089,110.65438,112.46942,112.46942,0,1,-59.73333,0,0,0.8728709,0.87287086,0,7,255,0,0,0,1,0,52,0
True,34257656,15999.99,0,1941.5969,-0.09595299,-0.05254339,15.781055,0.006995678,-0.14239135,13.752732,-0.014362344,0.012655494,-0.0019359728,-1.0326461,-0.0106107425,-0.0010625266,0.17241836,0.16929466,0.32433772,0.32755086,0.5805851,0.5741961,0.52240825,0.5317111,44.890125,44.80224,44.848877,44.82518,0,0,0,0,0,0,0,0,0,0,0,0,-0.020595632,-0.017748788,0.0046672015,0.009699158,0.5809503,0.57447034,0.5224291,0.53179955,-0.011516446,-0.011899617,0.009668764,0.010050785,164,6,231,2,0,-911.37054,320.0689,-3658.633,13.75347,313498.5,1546.6406,114.447586,110.84424,112.689835,112.689835,0,1,-58.5791,0,0,0.9856692,0.98566914,0,7,255,0,0,0,1,0,51,0
True,34257765,15999.99,0,2191.0566,-0.043352604,-0.04243946,15.734203,0.000934124,-0.16267025,15.524935,-0.008914914,0.0018958272,5.2387826E-05,-1.0320413,-0.011991607,-0.0011823769,0.17115098,0.17111637,0.32901362,0.32779214,0.59997356,0.57130206,0.51551765,0.5218203,50.717045,50.588917,50.564777,50.582207,0,0,0,0,0,0,0,0,0,0,0,0,-0.004097899,-0.0009362605,-0.0016492226,0.0035111832,0.59998757,0.57130283,0.5155203,0.5218321,-0.01167191,-0.011676157,0.010224696,0.0100794695,164,6,231,2,0,-912.78326,320.07047,-3657.7886,15.525785,353908.72,1546.6406,114.41234,110.990555,112.90895,112.90895,0,1,-57.271545,0,0,1.0979266,1.0979265,0,7,255,0,0,0,1,0,50,0
True,34257859,15999.99,0,2407.7007,-0.11358261,-0.09721204,15.636824,2.9563904E-05,-0.17753735,17.037079,0.002997146,0.0006091877,0.0018781499,-1.0319357,-0.012307501,-0.0010825327,0.16793664,0.1706746,0.33026946,0.32819563,0.65406084,0.5937546,0.52198404,0.52996975,55.890095,55.60858,55.51061,55.542286,0,0,0,0,0,0,0,0,0,0,0,0,-0.002693244,0.0008238762,-0.0024418246,0.0026070194,0.6540664,0.5937552,0.52198976,0.5299761,-0.012066202,-0.011730343,0.010374006,0.010127444,164,6,231,2,0,-914.1281,320.07327,-3656.9846,17.038004,388962.12,1546.6406,114.40993,111.12361,113.09979,113.09979,0,1,-56.0268,0,0,1.1940305,1.1940305,0,7,255,0,0,0,1,0,50,0
True,34257984,15999.99,0,2663.5435,-0.08670139,-0.27060443,15.670818,-0.00054836273,-0.19020829,18.813566,0.016431985,0.00028872964,0.003042764,-1.0318955,-0.011095992,-0.00078113703,0.1631184,0.16781628,0.3275625,0.3264153,0.6594048,0.6363511,0.5495491,0.5517131,61.719254,61.612885,61.427002,61.434185,0,0,0,0,0,0,0,0,0,0,0,0,-0.0022617967,0.0014049129,-0.0023176305,0.0022824756,0.6594087,0.63635266,0.549554,0.5517178,-0.012657238,-0.012080966,0.010052171,0.009915773,164,6,231,2,0,-915.8698,320.0764,-3655.9434,18.814526,430430.12,1546.6406,114.44748,111.2973,113.334984,113.334984,0,1,-54.414696,0,0,1.3071002,1.3071003,0,7,255,0,0,0,1,0,49,0
True,34258093,15999.99,0,2912.4724,0.13814735,-0.40436733,15.780115,-0.0005121231,-0.2034004,20.58218,0.013975226,0.00014690089,0.0009425874,-1.0318631,-0.009226002,-0.0005274055,0.163788,0.16489567,0.32132584,0.3230058,0.580809,0.6440147,0.56447536,0.5566585,67.099266,67.44436,67.27863,67.23518,0,0,0,0,0,0,0,0,0,0,0,0,-0.0016505361,0.001738057,-0.0018202971,0.0023025225,0.5808113,0.64401704,0.5644783,0.5566633,-0.012575097,-0.012439225,0.00931067,0.009510409,164,6,231,2,0,-917.772,320.07666,-3654.806,20.583185,470788,1546.6406,114.49129,111.49039,113.58235,113.58235,0,1,-52.653984,0,0,1.4194875,1.4194875,0,7,255,0,0,0,1,0,48,0
True,34258203,15999.99,0,3155.0269,0.01164484,-0.32923162,15.737413,0.0009994507,-0.2222116,22.369484,0.00063902326,-0.0003956944,-0.0033651663,-1.0318822,-0.008404508,-0.0006844219,0.17126678,0.166184,0.3184482,0.32091913,0.5340677,0.5710181,0.53225887,0.5262168,72.66557,72.88216,72.9277,72.89725,0,0,0,0,0,0,0,0,0,0,0,0,-0.0012681137,0.0018250854,-0.0021414366,0.0018277786,0.5340692,0.571021,0.53226316,0.52621996,-0.0116577055,-0.012281191,0.00896854,0.009262316,164,6,231,2,0,-919.86346,320.0737,-3653.5552,22.370588,510036.2,1546.6406,114.52994,111.67743,113.831955,113.831955,0,1,-50.71795,0,0,1.5328401,1.53284,0,7,255,0,0,0,1,0,47,0
True,34258328,15999.99,0,3390.2156,-0.018016815,-0.14616439,15.461464,0.0018825531,-0.2426007,24.166782,0.00029306643,-0.0002149879,-0.0026899176,-1.0319254,-0.008554244,-0.0011014058,0.17439558,0.1709873,0.32452777,0.32279587,0.5049717,0.48119345,0.4668778,0.46944383,78.29223,78.13865,78.32939,78.34787,0,0,0,0,0,0,0,0,0,0,0,0,-0.0019468915,0.0012179079,-0.0027679165,0.0015768971,0.50497544,0.481195,0.46688598,0.46944648,-0.0112739075,-0.0116919875,0.009691358,0.00948545,164,6,231,2,0,-922.17725,320.06952,-3652.1716,24.168001,530353.2,1496.253,114.57626,111.84546,114.06979,114.06979,0,1,-48.576244,0,0,1.6485664,1.6485662,0,7,255,0,0,0,1,0,45,0
True,34258421,15999.99,0,3580.2456,0.036397457,-0.06096549,15.065664,0.00074768066,-0.24813233,25.630293,-0.0045277555,0.0003526577,0.0008192016,-1.0319155,-0.008632336,-0.0011710684,0.1783085,0.17980626,0.32639486,0.3236821,0.42269704,0.41616637,0.432711,0.43364486,82.47731,82.43677,82.80518,82.80844,0,0,0,0,0,0,0,0,0,0,0,0,-0.0020643699,0.0008300946,-0.0025560658,0.0019756744,0.42270207,0.41616717,0.43271855,0.43364936,-0.0107939225,-0.010610199,0.00991334,0.009590812,164,6,231,2,0,-924.2631,320.0664,-3650.9243,25.631496,542320.6,1448.59,114.609375,111.95987,114.25,114.25,0,1,-46.645447,0,0,1.7460738,1.7460738,0,7,255,0,0,0,1,0,44,0
True,34258531,15999.99,0,3802.853,0.0047683716,0.17621155,14.443675,0.00069236755,-0.25507963,27.319176,-0.012256753,-0.00011195829,-0.0020080442,-1.0318925,-0.009692284,-0.0011669624,0.19187951,0.18904114,0.3259857,0.3277939,0.36275166,0.38450482,0.39561266,0.3906105,87.492455,87.646385,87.97976,87.94685,0,0,0,0,0,0,0,0,0,0,0,0,-0.0013190825,0.001411848,-0.0023707678,0.0022696424,0.36275408,0.38450742,0.39561975,0.39061707,-0.009129215,-0.009477388,0.009864699,0.010079678,164,6,231,2,0,-926.93115,320.06512,-3649.329,27.320366,560746.3,1410.1387,114.63461,112.081024,114.44513,114.44513,0,1,-44.175896,0,0,1.8633798,1.8633797,0,7,255,0,0,0,1,0,43,0
True,34258640,15999.99,0,4029.7285,-0.05196905,0.04313992,14.055323,0.0014209747,-0.26715785,28.933329,0.0077785524,8.701395E-05,0.0012635316,-1.0319145,-0.01046789,-0.0013878429,0.19202673,0.19076474,0.33150035,0.32914028,0.44853145,0.38938332,0.37917796,0.39032534,93.27036,92.82299,93.03382,93.114876,0,0,0,0,0,0,0,0,0,0,0,0,-0.0024254308,0.0009116868,-0.0029746143,0.0017947872,0.448538,0.3893844,0.37918964,0.39032945,-0.009111155,-0.009265959,0.010520346,0.010239754,164,6,231,2,0,-929.7093,320.06836,-3647.6677,28.934565,580269.44,1376.8647,114.6705,112.19702,114.62909,114.62909,0,1,-41.604313,0,0,1.9783636,1.9783635,0,7,255,0,0,0,1,0,41,0
True,34258765,15999.99,0,4247.169,0.04929781,-0.48518425,13.738563,0.004896164,-0.2629287,30.47749,0.016836563,0.0069129365,0.018450623,-1.0317869,-0.008339529,-0.00038498963,0.1751366,0.19143462,0.32500023,0.32098204,0.393096,0.38212788,0.40811053,0.42361876,97.78621,97.72885,98.21432,98.31394,0,0,0,0,0,0,0,0,0,0,0,0,0.0470732,0.05025243,-0.002621176,0.0013863409,0.39590448,0.385418,0.40811893,0.42362103,-0.01118301,-0.009183787,0.009747531,0.0092698,164,6,231,2,0,-932.58887,320.0702,-3645.946,30.47862,608254.4,1369.1752,114.735306,112.31076,114.81124,114.81124,0,1,-38.938953,0,0,2.0912333,2.091233,0,7,255,0,0,0,1,2,40,0
True,34258875,15999.99,0,4463.5195,1.6473799,-0.076995,13.916075,0.029970169,-0.2842487,32.070747,-0.017775947,0.09701762,0.019658862,-1.0263044,-0.008728509,0.002131472,0.19310123,0.19825335,0.315021,0.3183154,0.30963004,0.45919287,0.3594191,0.40875667,102.511154,103.293045,103.21063,103.15048,0,0,0,0,0,0,0,0,0,0,0,0,0.118732,0.12672248,0.023141978,0.02701329,0.33161432,0.47635773,0.36016336,0.4096483,-0.00897935,-0.008347359,0.008561078,0.008952752,164,6,231,2,0,-935.6522,320.06854,-3644.1023,32.072018,655226.3,1403.5096,114.792725,112.44122,115.000175,115.000175,0,1,-36.09871,0,0,2.2054949,2.2054949,0,7,255,0,0,0,1,22,38,0
True,34258984,15999.99,0,4653.1323,1.6341515,-0.14112884,13.58679,-0.08091259,-0.2954916,33.4123,0.023171011,0.065073185,-0.00474838,-1.0166429,-0.00875473,0.0026866207,0.19854699,0.1849265,0.32853347,0.32680896,0.36809057,0.48636127,0.36398116,0.40100613,107.15321,107.819595,107.45398,107.44311,0,0,0,0,0,0,0,0,0,0,0,0,-0.0047304304,-0.0013706782,0.045886658,0.05083235,0.36812097,0.4863632,0.3668622,0.40421507,-0.008311339,-0.0099821165,0.010167606,0.009962574,164,6,231,2,0,-938.3914,320.06888,-3642.4265,33.413704,660739.2,1357.4744,114.84073,112.58241,115.1528,115.1528,0,1,-33.548332,0,0,2.3035023,2.3035026,0,7,255,0,0,0,1,0,36,0
True,34259093,15999.99,0,4863.7983,1.3172941,-0.26999658,13.753162,-0.05500412,-0.29733232,35.015213,-0.016373679,0.01094067,-0.011772083,-1.0129988,-0.0074201385,0.0015434902,0.2068119,0.18549436,0.32295442,0.3119228,0.30279174,0.33834738,0.3798348,0.39065263,111.60827,111.87042,112.624535,112.66533,0,0,0,0,0,0,0,0,0,0,0,0,0.01199622,0.014338779,0.01854387,0.022202108,0.3030293,0.33865106,0.3802872,0.391283,-0.007297512,-0.009912457,0.009504296,0.008192718,164,6,231,2,0,-941.7989,320.06528,-3640.3171,35.016518,711103.7,1397.3223,114.90712,112.719604,115.34578,115.34578,0,1,-30.36603,0,0,2.4205873,2.4205875,0,7,255,0,0,0,1,0,33,0
True,34259203,15999.99,0,5052.017,0.70425034,0.5408275,13.904554,-0.013011932,-0.3295165,36.434875,-0.018038122,-1.8396517E-05,-0.010787419,-1.0126016,-0.010349005,0.00030211726,0.22227779,0.20557177,0.34091875,0.32611838,0.36157712,0.35992423,0.32760462,0.3312126,116.68379,116.67376,116.65849,116.684006,0,0,0,0,0,0,0,0,0,0,0,0,0.0033074506,0.006367066,0.0015898886,0.00645446,0.36159226,0.35998055,0.32760847,0.3312755,-0.005400367,-0.0074496344,0.011640128,0.009880468,164,6,231,2,0,-944.88477,320.06577,-3638.3943,36.436367,725523.06,1372.6611,114.96312,112.8182,115.51227,115.51227,0,1,-27.479116,0,0,2.5222983,2.5222988,0,7,255,0,0,0,1,0,30,0
True,34259312,15999.99,0,5271.451,0.059030056,-0.6126433,12.804615,0.001958847,-0.30989233,37.952473,0.030578706,-0.0009552336,-0.008682738,-1.0127063,-0.00780815,-0.00086441723,0.20064706,0.18774284,0.33686167,0.32762757,0.34635788,0.33874723,0.38504398,0.3874378,121.28857,121.21112,121.99378,122.02135,0,0,0,0,0,0,0,0,0,0,0,0,-0.0009945391,0.0020783003,-0.0028349557,0.0020882157,0.3463593,0.3387536,0.3850544,0.38744342,-0.008053731,-0.009636644,0.011157766,0.010059901,164,6,231,2,0,-948.6152,320.06976,-3636.0657,37.953735,702404.75,1273.4435,115.04686,112.9429,115.6921,115.6921,0,1,-23.987638,0,0,2.640451,2.640451,0,7,255,0,0,0,1,0,26,0
True,34259421,15999.99,0,5430.655,-2.4546423,-0.29076886,12.70722,-0.071985245,-0.31685925,39.206337,-0.015849551,-0.13781944,-0.02441056,-1.0176505,-0.007119813,-0.002396736,0.2016276,0.20798385,0.31700537,0.31528166,0.39821202,0.24632464,0.3770541,0.300495,125.57069,124.68395,125.63371,125.517746,0,0,0,0,0,0,0,0,0,0,0,0,-0.32550836,-0.2997682,-0.023858972,-0.019771062,0.51432335,0.38799074,0.3778082,0.30114472,-0.007933453,-0.007153753,0.008796997,0.008592065,164,6,231,2,0,-951.86194,320.0658,-3634.049,39.207687,729342,1283.6055,115.1297,113.04625,115.84706,115.84706,0,1,-20.95277,0,0,2.7394702,2.7394705,0,7,255,0,0,0,1,-127,23,0
True,34259546,15999.99,0,5616.6196,-3.6807034,0.7628698,12.746895,0.22543144,-0.33390424,40.65412,-0.011551727,-0.10483509,7.9307705E-05,-1.0387505,-0.010353697,-0.0036028198,0.21577257,0.24214156,0.32684636,0.34867543,0.36232656,0.26736304,0.32089353,0.26449314,129.89815,129.40623,129.77794,129.71411,0,0,0,0,0,0,0,0,0,0,0,0,-0.0220198,-0.01840313,-0.08831219,-0.08037769,0.36299506,0.26799566,0.33282384,0.2764366,-0.006198339,-0.0029637516,0.009967025,0.012562335,164,6,231,2,0,-955.8176,320.06885,-3631.6611,40.65612,752978.1,1281.437,115.259964,113.18768,116.0318,116.0318,0,1,-17.282381,0,0,2.8551404,2.855141,0,7,255,0,0,0,1,0,20,0
True,34259640,15999.99,0,5798.1343,-2.898856,-0.6794057,11.858307,0.14981079,-0.31828368,41.84259,0.041617543,-0.01617754,0.005753422,-1.0436039,-0.007898587,-0.0031337494,0.193717,0.21997538,0.32138148,0.34693268,0.35683432,0.32271656,0.3648879,0.33532676,133.75238,133.49443,134.15561,133.95929,0,0,0,0,0,0,0,0,0,0,0,0,-0.03514816,-0.031637665,-0.043919843,-0.03815871,0.3585612,0.32426366,0.3675216,0.33749092,-0.008903816,-0.0056827962,0.009317286,0.012355138,164,6,231,2,0,-959.3761,320.0756,-3629.559,41.844074,720694.5,1187.8031,115.3423,113.27121,116.17909,116.17909,0,1,-13.998678,0,0,2.9552798,2.9552803,0,7,255,0,0,0,1,0,19,0
True,34259765,15999.99,0,5963.2866,-1.327518,-0.8894157,11.785347,0.045410156,-0.32230955,43.213615,-0.004124395,0.0013421107,0.0057068807,-1.0441294,-0.0049612587,-0.0027241264,0.19624114,0.2106442,0.29829958,0.31687075,0.26823598,0.24036199,0.31495064,0.3144738,137.2477,136.93562,138.06393,138.05328,0,0,0,0,0,0,0,0,0,0,0,0,-0.013117551,-0.010863246,-0.011233555,-0.008973838,0.26855654,0.24060735,0.31515092,0.31460184,-0.008594189,-0.0068274178,0.0065730214,0.0087809935,164,6,231,2,0,-963.6492,320.0679,-3627.0618,43.21484,752300.7,1205.2723,115.424515,113.373436,116.34712,116.34712,0,1,-10.066132,0,0,3.071625,3.0716255,0,7,255,0,0,0,1,0,18,0
True,34259875,15999.99,0,6104.7017,-0.48293066,0.5795406,11.618428,0.0016479492,-0.336144,44.41389,-0.024851367,0.002461069,0.020560479,-1.0438709,-0.007197427,-0.0011399111,0.22113235,0.24481411,0.31886372,0.33118352,0.22594085,0.22758137,0.2532838,0.25209495,140.60136,140.62506,141.19768,141.17485,0,0,0,0,0,0,0,0,0,0,0,0,-0.003742593,-0.0015238223,-0.0026228628,0.0010644571,0.22597185,0.22758646,0.25329736,0.2520972,-0.005540874,-0.0026359186,0.009017948,0.01048268,164,6,231,2,0,-967.5562,320.06055,-3624.787,44.41516,752251.7,1177.447,115.48498,113.451416,116.48414,116.48414,0,1,-6.473861,0,0,3.174761,3.1747618,0,7,255,0,0,0,1,0,17,0
True,34259984,15999.99,0,6284.924,0.08486605,-0.15038952,11.208113,-0.003211975,-0.31336215,45.59621,0.021460842,2.7074584E-05,-0.002327009,-1.0437316,-0.0063963006,-0.00024708078,0.22051841,0.22534916,0.32683435,0.3421672,0.2443138,0.24648213,0.30233365,0.3052054,144.4818,144.48297,145.4856,145.52814,0,0,0,0,0,0,0,0,0,0,0,0,-0.0003098471,0.0021617305,-0.001136575,0.003688762,0.244314,0.24649161,0.3023358,0.3052277,-0.0056161843,-0.0050236136,0.009965595,0.011788558,164,6,231,2,0,-971.71765,320.06052,-3622.3657,45.597282,752279.6,1143.7319,115.54445,113.533325,116.61748,116.61748,0,1,-2.6482368,0,0,3.2816992,3.2816997,0,7,255,0,0,0,1,0,16,0
True,34260078,15999.99,0,6413.732,0.059928417,1.0302798,11.011813,-0.0021648407,-0.33386233,46.779533,-0.04351049,0.00025394786,0.00909383,-1.0437025,-0.009057702,-6.169592E-05,0.2513711,0.2603092,0.33036032,0.33167213,0.20193262,0.19628228,0.22116014,0.22166476,147.8141,147.75253,148.30574,148.3047,0,0,0,0,0,0,0,0,0,0,0,0,-0.001228178,0.00083456904,-0.001994482,0.0020105676,0.20193636,0.19628406,0.22116914,0.22167388,-0.0018315986,-0.0007351935,0.010384809,0.0105407685,164,6,231,2,0,-976.0218,320.0613,-3619.861,46.780727,752266.44,1120.651,115.606735,113.61401,116.75481,116.75481,0,1,1.3086814,0,0,3.3894706,3.389471,0,7,255,0,0,0,1,0,15,0
True,34260203,15999.99,0,6602.356,0.09319973,-0.46896383,10.425618,-0.0019454956,-0.3051792,47.884117,0.03753845,-0.0004414661,-0.0028280057,-1.0436918,-0.0075030345,0.0005099927,0.23079972,0.23268797,0.3373209,0.3447148,0.25011542,0.26723602,0.3086757,0.30633923,151.78677,151.97372,152.80536,152.79784,0,0,0,0,0,0,0,0,0,0,0,0,-0.0006210512,0.0021720207,-0.0020701664,0.003350669,0.2501162,0.26724485,0.30868265,0.30635756,-0.0043550134,-0.0041233897,0.011212368,0.012091447,164,6,231,2,0,-980.41943,320.07294,-3617.3018,47.88509,752252.9,1088.6887,115.665146,113.69011,116.88321,116.88321,0,1,5.3516617,0,0,3.4969332,3.496934,0,7,255,0,0,0,1,0,14,0
True,34260296,15999.99,0,6739.6533,0.0643816,-0.9250568,10.269004,-0.00018310547,-0.32399318,49.020847,0.024885463,0.00011882504,0.0058468985,-1.0437185,-0.0054615573,0.0003896782,0.21764441,0.22096126,0.31436315,0.31334832,0.25403175,0.24262322,0.25847274,0.25899106,155.41502,155.29199,155.81183,155.80585,0,0,0,0,0,0,0,0,0,0,0,0,-0.0016934591,0.0009295208,-0.0015489702,0.00097271806,0.2540374,0.242625,0.2584774,0.25899288,-0.005968727,-0.005561862,0.008482862,0.008362204,164,6,231,2,0,-985.0453,320.07196,-3614.6096,49.02192,752287.94,1066.5045,115.73074,113.77188,117.018906,117.018906,0,1,9.604459,0,0,3.6073546,3.6073554,0,7,255,0,0,0,1,0,13,0
True,34260421,15999.99,0,6882.3936,0.03637314,0.39128995,10.122419,1.3258858,-0.30428743,43.557373,-0.0048665274,0.023198009,0.047179133,-1.0432671,-0.0055326093,0.0018361178,0.24658133,0.24586268,0.31287193,0.31588495,0.17871909,0.17864929,0.21204342,0.21284717,158.50131,158.49396,159.18251,159.19305,0,0,0,0,0,0,0,0,0,0,0,0,-0.0005906944,0.0011903893,-0.0009314371,0.0014551297,0.17872007,0.17865326,0.21204546,0.21285214,-0.0024191402,-0.0025072955,0.008305568,0.008663792,164,6,231,2,0,-990.2417,320.0622,-3611.5557,43.57861,752276.1,1044.2227,115.80321,113.85997,117.16339,117.16339,0,1,14.393481,0,0,3.7313237,3.7313242,0,7,255,0,0,0,1,0,11,0
True,34260531,15999.99,0,5882.3823,4.8657827,0.4197369,-35.235287,0.7677345,-0.2730303,42.443733,0.016367178,0.13858923,-0.018634139,-1.0338712,-0.006184294,-0.000956683,0.25414488,0.27247673,0.35199767,0.36250547,0.432058,0.21336791,0.31101635,0.28382042,137.22214,134.33096,136.25787,135.52394,0,0,0,0,0,0,0,0,0,0,0,0,-0.2262381,-0.20928308,-0.12994267,-0.11542012,0.48770666,0.29887334,0.33707014,0.30639163,-0.0014913455,0.00075735524,0.012957331,0.014206629,164,6,231,2,0,-993.9615,320.06024,-3609.2412,42.45155,698291.9,1133.739,116.04819,114.24293,117.52234,117.52234,0,1,17.872095,0,0,3.8332,3.8332005,0,7,255,0,0,0,1,0,8,0
True,34260640,15999.99,0,5811.48,1.3280575,0.22151358,-9.572123,0.2051239,-0.23012927,41.687813,-0.010852045,0.09223257,-0.0011674557,-1.0195746,-0.005896699,-0.0015979211,0.24087355,0.265791,0.32496,0.35964376,0.3260577,0.27971378,0.3204267,0.32968575,134.30597,133.37064,134.54439,134.28787,0,0,0,0,0,0,0,0,0,0,0,0,-0.07882642,-0.075600326,-0.0173891,-0.011850906,0.3354508,0.28975025,0.3208982,0.3298987,-0.0031192936,-6.2759966E-05,0.009742744,0.013866387,164,6,231,2,0,-998.1563,320.06033,-3606.6326,41.688953,721796.1,1186.3064,116.17438,114.357834,117.6767,117.6767,0,1,21.7944,0,0,3.9507787,3.950779,0,7,255,0,0,0,1,0,3,0
True,34260750,15999.99,0,5732.551,1.4507456,0.13150533,-5.0422106,0.059228897,-0.30264425,41.330338,-0.017307656,0.044825383,0.011424195,-1.0129523,-0.0075260093,-0.0011968297,0.22104523,0.23523825,0.31609043,0.33274505,0.30348858,0.27671906,0.3082994,0.3208734,132.23701,131.76561,132.6276,132.57434,0,0,0,0,0,0,0,0,0,0,0,0,-0.02690667,-0.024415908,0.0023112188,0.006114986,0.30467898,0.27779412,0.30830806,0.32093167,-0.0055515617,-0.0038105547,0.008688223,0.01066833,164,6,231,2,0,-1001.7386,320.0625,-3604.3997,41.331486,743725,1239.4535,116.26793,114.44792,117.816734,117.816734,0,1,25.145979,0,0,4.0529094,4.0529094,0,7,255,0,0,0,1,0,0,0
True,34260859,15999.99,0,5799.847,0.91267276,0.0336199,4.775384,0.0054683685,-0.33175895,42.07219,0.020552553,0.017836003,0.0071026785,-1.0100175,-0.008294331,3.8649883E-05,0.23771025,0.24651325,0.35003868,0.35915062,0.280771,0.29724306,0.26557827,0.26790673,133.87794,133.95938,133.97778,133.93967,0,0,0,0,0,0,0,0,0,0,0,0,-0.009412381,-0.0060646115,0.000817605,0.0071554966,0.28092873,0.2973049,0.26557952,0.26800227,-0.0035073236,-0.0024274923,0.0127244145,0.013807762,164,6,231,2,0,-1005.3075,320.06174,-3602.1614,42.073498,752261,1239.6329,116.33887,114.5221,117.94801,117.94801,0,1,28.49048,0,0,4.1540823,4.154083,0,7,255,0,0,0,1,0,252,0
True,34260968,15999.99,0,5989.0215,0.3728075,-0.2022426,11.009276,-0.021121979,-0.29368222,43.494747,-0.03959811,0.004832765,0.004055053,-1.0088086,-0.006455274,0.0005174093,0.23503551,0.23874332,0.32734075,0.3311267,0.21341653,0.21568517,0.29175597,0.29575223,137.57347,137.5773,138.70851,138.71701,0,0,0,0,0,0,0,0,0,0,0,0,0.0024424668,0.0038192272,0.003798679,0.008200073,0.21343051,0.215719,0.2917807,0.2958659,-0.0038354248,-0.0033806004,0.010025803,0.010475919,164,6,231,2,0,-1009.6404,320.0605,-3599.4377,43.495743,752273.75,1199.8595,116.4234,114.61428,118.101524,118.101524,0,1,32.553314,0,0,4.27367,4.27367,0,7,255,0,0,0,1,0,247,0
True,34261078,15999.99,0,6148.2354,0.034753323,0.98820794,11.1773615,-0.007789612,-0.33129925,44.649456,0.010084508,-0.00013506433,-0.0032418105,-1.0086312,-0.010501418,0.0006633904,0.25265357,0.25121602,0.35050404,0.35247025,0.29370698,0.31442297,0.24712902,0.24581069,142.10442,142.36453,141.86461,141.85254,0,0,0,0,0,0,0,0,0,0,0,0,0.00045821775,0.003993966,-0.0010751404,0.0048615052,0.29370734,0.31444833,0.24713136,0.24585876,-0.0016742796,-0.0018506199,0.0127797425,0.013013512,164,6,231,2,0,-1013.425,320.0684,-3597.0557,44.650684,752298.75,1169.4214,116.48357,114.67972,118.22574,118.22574,-0.9176569,1,36.103256,0,0,4.375082,4.375082,0,7,255,0,0,0,1,0,243,0
True,34261187,15999.99,0,6323.191,0.18109989,-1.2690777,10.969238,0.0024929047,-0.30257034,45.763218,0.022159174,-0.0010762393,-0.017127573,-1.0086948,-0.0060222866,-0.0005288471,0.221833,0.2072672,0.32809946,0.3275241,0.25771052,0.25523627,0.34372604,0.34720638,145.18333,145.14288,146.47734,146.52353,0,0,0,0,0,0,0,0,0,0,0,0,-0.00020450063,0.0021080982,-0.0018689946,0.002446862,0.2577106,0.25524497,0.34373114,0.347215,-0.0054549277,-0.0072416626,0.010116007,0.0100476,164,6,231,2,0,-1017.34534,320.07477,-3594.5862,45.76422,752280.4,1136.5775,116.555435,114.76523,118.34892,118.34892,-3.7332115,1,39.78133,0,0,4.4775476,4.477547,0,7,255,0,0,0,1,0,239,0
True,34261312,15999.99,0,6474.1943,-0.5605874,-0.1545485,10.780601,-0.016929626,-0.3227328,47.11103,0.0030094187,-0.024607675,0.008240525,-1.0093391,-0.006110248,-0.0011205276,0.22005428,0.22960897,0.3228169,0.31573436,0.24048416,0.20437402,0.2642401,0.2550982,149.17104,148.86952,149.79445,149.78111,0,0,0,0,0,0,0,0,0,0,0,0,-0.07451503,-0.07050388,-0.0049204417,-0.0017677011,0.25176403,0.21619327,0.2642859,0.25510433,-0.005673118,-0.0045010783,0.009487949,0.008645885,164,6,231,2,0,-1022.20984,320.0696,-3591.5232,47.112137,752287.44,1110.2341,116.63597,114.8506,118.49901,118.49901,-7.0905113,1,44.344707,0,0,4.6012783,4.601278,0,7,255,0,0,0,1,-37,233,0
True,34261421,15999.99,0,6665.742,-5.7536736,0.43588254,10.111503,0.11993599,-0.3279957,48.342354,0.011229111,-0.27812415,-0.027132044,-1.0270666,-0.0075343642,-0.0022471817,0.22563078,0.25513542,0.31454295,0.34690547,0.4649749,0.23333165,0.30512404,0.20306271,155.23595,153.70209,153.62688,153.68735,0,0,0,0,0,0,0,0,0,0,0,0,-0.52847683,-0.4727945,-0.092481926,-0.08240404,0.7039101,0.52723646,0.3188316,0.21914582,-0.004989069,-0.0013698414,0.008504234,0.012351904,164,6,231,2,0,-1027.162,320.0697,-3588.4534,48.343613,752290.6,1078.6035,116.76862,114.99296,118.63868,118.63868,-9.988398,1,48.971302,0,0,4.723287,4.7232866,0,7,255,0,0,0,1,-127,229,0
True,34261531,15999.99,0,6791.1694,-7.3155107,-0.62272424,10.121042,0.7336216,-0.30361614,49.333454,-0.0039783414,-0.2060262,-0.017177545,-1.0564781,-0.005364374,-0.0040366002,0.2074824,0.24831511,0.29845193,0.336678,0.26043865,0.16890062,0.35443747,0.2399156,156.0181,155.9123,157.48149,157.14093,0,0,0,0,0,0,0,0,0,0,0,0,-0.094683826,-0.08742205,-0.20540036,-0.18656352,0.27711606,0.19018422,0.4096526,0.30391684,-0.007215265,-0.0022064634,0.0065911375,0.011135932,164,6,231,2,0,-1031.4144,320.069,-3585.9204,49.33984,752266,1058.1122,116.923935,115.135216,118.7831,118.7831,-11.317994,1,52.903625,0,0,4.8246284,4.8246284,0,7,255,0,0,0,1,0,227,0
True,34261656,15999.99,0,6934.3955,-6.823873,0.19392845,9.936602,0.36052704,-0.32059884,50.496643,0.02339353,-0.004503049,-0.008913485,-1.0667583,-0.006876395,-0.0062521044,0.21849605,0.25585774,0.3056547,0.35130897,0.28571105,0.20707332,0.2491295,0.2256471,160.49806,159.5305,160.31792,160.11813,0,0,0,0,0,0,0,0,0,0,0,0,-0.077662446,-0.07203111,-0.0736593,-0.06761061,0.29607812,0.21924378,0.2597907,0.23555851,-0.005864259,-0.0012812354,0.0074474923,0.012875445,164,6,231,2,0,-1036.5435,320.0695,-3582.9922,50.498943,752282.8,1036.5767,117.00489,115.22142,118.93692,118.93692,0,1,57.596798,0,0,4.9428935,4.9428945,0,7,255,0,0,0,1,0,227,0
True,34261765,15999.99,0,7062.719,-2.7274542,-0.5725093,9.701191,0.0763073,-0.32221967,51.524666,-0.006965053,0.012964064,0.023983076,-1.0657071,-0.005091942,-0.005450131,0.21057682,0.24882622,0.29321447,0.3280507,0.20310721,0.17674501,0.2355884,0.23456834,162.74664,162.3518,163.44753,163.37929,0,0,0,0,0,0,0,0,0,0,0,0,-0.021846259,-0.019595485,-0.01355501,-0.011265399,0.20427872,0.17782795,0.23597804,0.23483871,-0.006835684,-0.0021437667,0.0059684366,0.010110207,164,6,231,2,0,-1041.2869,320.0662,-3580.3499,51.525734,752286.2,1017.5106,117.07224,115.290535,119.04812,119.04812,0,1,61.91114,0,0,5.0493107,5.049311,0,7,255,0,0,0,1,0,228,0
True,34261890,15999.99,0,7216.2153,-0.48729753,0.68729097,9.353807,-0.015375137,-0.32351553,52.73719,-0.011370594,0.0041539073,0.02388273,-1.0645616,-0.0070694145,-0.0014098772,0.23992737,0.27030137,0.3157254,0.3451631,0.1707579,0.18676756,0.20695299,0.20646499,166.13521,166.33777,166.89047,166.8722,0,0,0,0,0,0,0,0,0,0,0,0,-0.00052899617,0.0015438974,0.001195887,0.005077036,0.17075872,0.18677396,0.20695645,0.2065274,-0.0032353587,0.0004905127,0.008644823,0.012144744,164,6,231,2,0,-1047.194,320.06497,-3577.0767,52.738186,752265.9,995.9578,117.141235,115.366356,119.18335,119.18335,0,1,67.27714,0,0,5.1788106,5.1788116,0,7,255,0,0,0,1,0,229,0
True,34262000,15999.99,0,7370.0215,-0.09500003,-0.7831229,8.925316,-0.008243561,-0.30898184,53.66436,0.04416284,-0.00031625532,-0.0034248568,-1.0644125,-0.0051216255,-0.0007393589,0.2339952,0.23972452,0.3186456,0.33575347,0.23870179,0.22861344,0.25007814,0.2566204,169.90446,169.73997,170.37698,170.45346,0,0,0,0,0,0,0,0,0,0,0,0,0.0006010183,0.0032995301,0.00026437297,0.004039188,0.23870255,0.22863723,0.2500783,0.2566522,-0.0039630346,-0.00326024,0.008992009,0.011026014,164,6,231,2,0,-1052.0416,320.0686,-3574.39,53.66525,752280.94,975.19763,117.191536,115.424614,119.288284,119.288284,0,1,71.68097,0,0,5.282962,5.282963,0,7,255,0,0,0,1,0,231,0
True,34262125,15999.99,0,7475.63,-0.10982323,0.51602614,8.946314,-0.0020160675,-0.32891762,54.763157,-0.041167658,-0.00034776685,0.0038149953,-1.0644346,-0.005820285,-0.00036334406,0.26078922,0.26523367,0.3135609,0.31910938,0.14406939,0.14768462,0.17976336,0.17929995,172.14355,172.19104,172.90456,172.90538,0,0,0,0,0,0,0,0,0,0,0,0,-0.0004618241,0.0010128911,-0.000925335,0.0013664766,0.14407013,0.14768809,0.17976575,0.17930515,-0.00067631155,-0.0001311265,0.00838748,0.009047151,164,6,231,2,0,-1057.7944,320.05954,-3571.2,54.76415,752276.5,961.27625,117.260544,115.50104,119.41246,119.41246,0,1,76.90763,0,0,5.4042635,5.4042654,0,7,255,0,0,0,1,0,232,0
True,34262218,15999.99,0,7628.514,-0.03156185,-0.036990546,8.521042,-0.00022315979,-0.30345598,55.65753,0.038871206,-5.4375647E-05,-0.00065518916,-1.0644603,-0.005820023,-0.00014512007,0.2545196,0.2569265,0.33978167,0.34227234,0.1990811,0.21557027,0.23277618,0.22852995,175.62848,175.87842,176.43178,176.37988,0,0,0,0,0,0,0,0,0,0,0,0,-0.001185497,0.0014275281,-0.0024140368,0.002562328,0.19908462,0.215575,0.2327887,0.22854431,-0.0014453791,-0.001150135,0.011504933,0.01180106,164,6,231,2,0,-1062.9191,320.06458,-3568.358,55.658356,752273.8,942.15955,117.308685,115.55587,119.51988,119.51988,0,1,81.563805,0,0,5.5103726,5.510375,0,7,255,0,0,0,1,0,234,0
True,34262343,15999.99,0,7737.1914,0.042146683,0.2774797,8.643536,0.0031089783,-0.3162639,56.696507,-0.038016014,0.000110692774,0.0020392444,-1.0644966,-0.0057605864,-0.0009935456,0.26570484,0.2644249,0.3221358,0.31588137,0.14320609,0.13030377,0.18020234,0.1831778,178.19403,178.01292,178.99052,179.01372,0,0,0,0,0,0,0,0,0,0,0,0,-0.0013788758,-8.6918255E-05,-0.002020626,0.0006382783,0.14321274,0.1303038,0.18021366,0.18317892,-7.3328614E-05,-0.0002303347,0.009406969,0.008663364,164,6,231,2,0,-1068.8743,320.0611,-3565.0554,56.69738,752278.44,928.72565,117.37291,115.6301,119.63806,119.63806,0,1,86.97452,0,0,5.631564,5.6315665,0,7,255,0,0,0,1,0,235,0
True,34262453,15999.99,0,7884.904,0.077833176,-0.49109805,8.104909,-0.0038833618,-0.2983259,57.499302,0.054022916,0.00045848612,0.00873749,-1.06445,-0.0049951086,0.00030994252,0.2484993,0.25862762,0.33557737,0.3423711,0.1999491,0.2251971,0.24169162,0.23940548,181.43726,181.78903,182.36714,182.35336,0,0,0,0,0,0,0,0,0,0,0,0,-0.0012217545,0.0014621218,-0.0020013426,0.00284427,0.19995284,0.22520186,0.2416999,0.23942238,-0.0021838695,-0.00094146654,0.0110050775,0.011812799,164,6,231,2,0,-1073.9066,320.0659,-3562.265,57.500076,752268.75,911.52,117.41728,115.681946,119.73707,119.73707,0,1,91.54667,0,0,5.732315,5.732317,0,7,255,0,0,0,1,0,237,0
True,34262562,15999.99,0,7976.261,0.13130021,0.07752243,8.215997,-0.0013389587,-0.32121953,58.47585,-0.017219331,-9.012145E-05,0.0044122324,-1.0644463,-0.0046819337,0.00042620042,0.260054,0.26363966,0.31745547,0.31798607,0.14657326,0.14002441,0.17173687,0.17273933,183.78798,183.69743,184.45653,184.46248,0,0,0,0,0,0,0,0,0,0,0,0,-0.00081897806,0.0008570213,-0.0011669795,0.0012308941,0.14657556,0.14002703,0.17174083,0.17274371,-0.0007664971,-0.0003266558,0.008850519,0.008913603,164,6,231,2,0,-1079.9165,320.05685,-3558.9321,58.47673,752273,900.9119,117.47927,115.75367,119.85121,119.85121,0,1,97.00704,0,0,5.850797,5.850799,0,7,255,0,0,0,1,0,238,0
True,34262671,15999.99,0,8075.882,-0.037261724,1.5732296,7.848527,-0.00075531006,-0.31526083,59.26602,-0.036130086,-0.00026174652,-0.006609563,-1.0644627,-0.007561644,0.0007826709,0.29476157,0.29244494,0.3389756,0.34455404,0.13051161,0.14003748,0.15633021,0.15533133,186.07858,186.22955,186.70407,186.69655,0,0,0,0,0,0,0,0,0,0,0,0,-0.00035145052,0.0014440865,-0.0017344543,0.0026618324,0.13051209,0.14004493,0.15633984,0.15535414,0.0034909546,0.003206782,0.0114091,0.012072332,164,6,231,2,0,-1085.0846,320.06012,-3556.0664,59.266865,752272.7,889.8077,117.53129,115.81108,119.94917,119.94917,0,1,101.70249,0,0,5.9511566,5.951158,0,7,255,0,0,0,1,0,240,0
True,34262796,15999.99,0,8230.227,0.031888723,-1.599391,7.560596,0.004886627,-0.2910077,60.181454,0.0024690866,-0.00026125164,-0.013810683,-1.064508,-0.003920984,-0.00080741936,0.2575618,0.24557377,0.3261797,0.3213499,0.15483122,0.15040593,0.22237727,0.22425021,189.26659,189.19302,190.51825,190.54007,0,0,0,0,0,0,0,0,0,0,0,0,-0.00082627474,0.00065034453,-0.001981891,0.00141915,0.15483342,0.15040733,0.22238609,0.22425471,-0.0010722056,-0.0025427341,0.009887762,0.009313535,164,6,231,2,0,-1091.4316,320.06885,-3552.5464,60.182163,752273.1,872.89355,117.585754,115.87373,120.06038,120.06038,0,1,107.46927,0,0,6.0726748,6.0726767,0,6,255,0,0,0,1,0,241,0
True,34262906,15999.99,0,8329.478,-0.18377924,0.14423786,7.533923,-0.0012054443,-0.30884743,61.10826,-0.022447366,0.00044675218,0.013987847,-1.0644838,-0.0049041123,-0.00038283676,0.26318246,0.27322978,0.32255226,0.32202086,0.12306198,0.1287028,0.17228869,0.17019625,191.70087,191.78575,192.71155,192.69167,0,0,0,0,0,0,0,0,0,0,0,0,-0.00037336804,0.0008585524,-0.001907117,0.0010107381,0.12306254,0.12870567,0.17229924,0.17019925,-0.00038274005,0.00084972754,0.0094564855,0.009393308,164,6,231,2,0,-1097.8859,320.06366,-3548.9673,61.10904,752271.56,862.6194,117.644745,115.94334,120.1768,120.1768,0,1,113.33333,0,0,6.1943398,6.1943417,0,6,255,0,0,0,1,0,243,0
True,34263015,15999.99,0,8447.87,0.07268572,0.06061743,7.3413925,-0.0072135925,-0.29938126,61.83555,0.039792117,0.001293134,0.015903004,-1.064338,-0.00526453,0.00091349136,0.26413697,0.27694383,0.3382922,0.3427141,0.17221382,0.17818964,0.19294862,0.19008991,194.67743,194.80017,195.32033,195.26872,0,0,0,0,0,0,0,0,0,0,0,0,-0.0011546962,0.001391632,-0.0016442591,0.0030765012,0.1722177,0.17819507,0.19295564,0.19011481,-0.00026565418,0.0013053194,0.011327848,0.011853579,164,6,231,2,0,-1103.3215,320.0681,-3545.953,61.836273,752275.75,850.7587,117.68953,115.99514,120.27431,120.27431,0,1,118.27203,0,0,6.2954254,6.2954273,0,6,255,0,0,0,1,0,245,0
True,34263125,15999.99,0,8530.876,0.06776667,-0.77529925,7.24485,-0.004213333,-0.30896574,62.600986,-0.024140611,-7.0357244E-05,-0.00071962643,-1.0643024,-0.0033408967,0.0012610675,0.2596762,0.26040384,0.30848753,0.31401667,0.12558177,0.11905933,0.1691578,0.1714849,196.41315,196.31224,197.35585,197.3842,0,0,0,0,0,0,0,0,0,0,0,0,0.00018071178,0.0012596489,-8.6981934E-05,0.0018269032,0.1255819,0.11906599,0.16915783,0.17149463,-0.0008128397,-0.00072358176,0.007784296,0.008441664,164,6,231,2,0,-1109.0027,320.06055,-3542.802,62.601746,752271.25,842.21136,117.74025,116.05272,120.36412,120.36412,0,1,123.43391,0,0,6.3998303,6.3998322,0,6,255,0,0,0,1,0,246,0
True,34263234,15999.99,0,8635.407,-0.10728407,0.9806752,6.9516835,-0.0016441345,-0.30568683,63.359756,0.017988076,-0.00038374722,-0.0043864874,-1.0643268,-0.0057626744,0.0015313523,0.28689235,0.28717613,0.34399405,0.34894997,0.14887029,0.15551801,0.1575375,0.15799798,199.13599,199.23114,199.55473,199.57353,0,0,0,0,0,0,0,0,0,0,0,0,-0.00059511355,0.0017602028,-0.0019785494,0.0029405174,0.14887148,0.15552796,0.15754993,0.15802534,0.0025256686,0.0025604777,0.012005754,0.012594979,164,6,231,2,0,-1114.9688,320.06073,-3539.4927,63.36049,752271.7,832.2421,117.79366,116.112976,120.471245,120.471245,0,1,128.8548,0,0,6.508128,6.50813,0,6,255,0,0,0,1,0,248,0
True,34263343,15999.99,0,8728.821,-0.09992242,0.23303282,7.055067,-0.0003604889,-0.30656978,64.12178,-0.021657027,-8.658997E-05,0.0018469607,-1.0643517,-0.0054483996,0.0013567117,0.2823801,0.2842338,0.32937986,0.3292695,0.122191355,0.12574206,0.14995314,0.14856687,201.1289,201.19781,201.82628,201.80873,0,0,0,0,0,0,0,0,0,0,0,0,-0.0007800716,0.00078490545,-0.0017248269,0.0015541327,0.12219384,0.12574452,0.14996307,0.14857501,0.001972165,0.002199553,0.010268237,0.010255113,164,6,231,2,0,-1121.0688,320.06308,-3536.109,64.12252,752269.3,823.17883,117.84533,116.17389,120.568405,120.568405,0,1,134.3975,0,0,6.6175547,6.6175566,0,6,255,0,0,0,1,0,249,0
True,34263468,15999.99,0,8852.702,-0.09835553,-0.5819206,6.798485,0.0015964508,-0.3032738,64.95019,0.0067398464,-0.00022492418,-0.0066904,-1.0643727,-0.004456831,0.00074202195,0.27108172,0.26563194,0.3262259,0.32495484,0.14361359,0.13878275,0.16600993,0.16788763,204.06126,203.97227,204.66988,204.69525,0,0,0,0,0,0,0,0,0,0,0,0,-0.00084062753,0.0010462557,-0.0015691783,0.0015945005,0.14361605,0.1387867,0.16601735,0.1678952,0.00058623403,-8.226931E-05,0.009893253,0.009742133,164,6,231,2,0,-1128.0223,320.06714,-3532.2517,64.9509,752274,811.6647,117.89862,116.234924,120.67837,120.67837,0,1,140.71562,0,0,6.740752,6.7407537,0,6,255,0,0,0,1,0,251,0
True,34263562,15999.99,0,8934.296,-0.07958794,-0.3381546,6.714999,-0.0020713806,-0.30646175,65.65737,-0.044804342,6.31248E-05,0.013795029,-1.0643746,-0.003808751,0.0013504536,0.26883584,0.2802436,0.31314084,0.31236258,0.10226379,0.10488768,0.15464185,0.15266095,205.62637,205.67834,206.71837,206.68456,0,0,0,0,0,0,0,0,0,0,0,0,-0.0005917387,1.9266772E-05,-0.0013235183,0.00062252214,0.10226551,0.10488768,0.15464751,0.15266222,0.00031074136,0.0017100908,0.008337539,0.008245006,164,6,231,2,0,-1133.9906,320.0605,-3528.9412,65.65808,752270.9,804.1163,117.94724,116.29331,120.768616,120.768616,0,1,146.13853,0,0,6.845255,6.845257,0,6,255,0,0,0,1,0,253,0
True,34263687,15999.99,0,9062.501,-0.121793985,-0.39556515,6.4396143,0.0029582977,-0.28351676,66.429214,0.021621235,-0.00026224373,-0.016304545,-1.0643975,-0.004232439,0.00031842256,0.28580964,0.27351052,0.34575844,0.34370956,0.13814647,0.13167042,0.1904928,0.1915136,208.56151,208.46283,209.71117,209.72269,0,0,0,0,0,0,0,0,0,0,0,0,-0.0005258508,0.0012128527,-0.0023706448,0.0028258355,0.13814747,0.131676,0.19050755,0.19153444,0.0023928545,0.0008841641,0.012215529,0.011971932,164,6,231,2,0,-1140.9211,320.0653,-3525.0972,66.42982,752271.75,792.81866,118.00261,116.3536,120.88129,120.88129,0,1,152.43568,0,0,6.9652324,6.965234,0,6,255,0,0,0,1,0,255,0
True,34263781,15999.99,0,9133.438,-0.0040562153,0.13091154,6.515293,0.0031337738,-0.30442488,67.08405,0.015142791,0.00016840127,-0.01093056,-1.0643922,-0.004743463,-0.0006935847,0.2859769,0.27688277,0.33579883,0.32997492,0.1369946,0.14329351,0.1484371,0.14715928,210.60696,210.70432,211.09067,211.07332,0,0,0,0,0,0,0,0,0,0,0,0,-0.0010558796,0.001027753,-0.0019242996,0.0016751522,0.13699867,0.1432972,0.14844957,0.14716882,0.0024133697,0.0012978278,0.011031408,0.010338988,164,6,231,2,0,-1146.7561,320.06528,-3521.8606,67.08474,752542.1,787.0638,118.0509,116.40937,120.970566,120.970566,0,1,157.7374,0,0,7.065163,7.065164,0,6,255,0,0,0,1,0,0,0
True,34263906,15999.99,0,9221.504,0.0011041164,0.46710563,6.6541886,-0.00051116943,-0.31051764,67.84363,-0.043786194,0.0004646288,0.0140140755,-1.0643529,-0.0048247213,-0.00093392975,0.28754437,0.2947264,0.32519773,0.32030573,0.10563382,0.10042358,0.13298379,0.13365012,212.51901,212.4319,213.228,213.23506,0,0,0,0,0,0,0,0,0,0,0,0,-0.0011590142,-0.0001445615,-0.0018255907,0.0007778719,0.10564017,0.10042368,0.13299632,0.13365239,0.0026056468,0.0034866408,0.0097710155,0.00918939,164,6,231,2,0,-1153.7001,320.0616,-3518.0085,67.84434,752380.56,779.29266,118.107544,116.47804,121.07176,121.07176,0,1,164.04694,0,0,7.1828575,7.1828585,0,6,255,0,0,0,1,0,2,0
True,34264015,15999.99,0,9350.989,-0.11901784,-1.1248968,6.1711183,-0.005701065,-0.2888665,68.56265,0.02671896,-0.00023502132,-0.0025940044,-1.064308,-0.0033884398,0.0009098053,0.26737356,0.2758758,0.32710162,0.33967915,0.13014786,0.1526639,0.186576,0.1818478,215.13623,215.49165,216.3344,216.27383,0,0,0,0,0,0,0,0,0,0,0,0,0.00013814008,0.0020097594,-0.0008704692,0.0031489653,0.13014793,0.15267713,0.18657802,0.18187505,0.00013136864,0.0011743084,0.009997368,0.011492744,164,6,231,2,0,-1160.715,320.06628,-3514.118,68.56326,752441.25,768.52094,118.15549,116.53284,121.17465,121.17465,0,1,170.42062,0,0,7.300459,7.3004603,0,6,255,0,0,0,1,0,4,0
True,34264125,15999.99,0,9406.896,-0.07073331,-0.003533457,6.3065634,0.0007095337,-0.3088659,69.20356,-0.032644268,-0.0002559745,1.1329539E-05,-1.0643438,-0.0036440813,0.00019060385,0.281496,0.28123057,0.31820542,0.31692532,0.101181306,0.10168641,0.13795902,0.13696837,216.67973,216.69312,217.5581,217.54443,0,0,0,0,0,0,0,0,0,0,0,0,-0.00051563105,0.00043714498,-0.0012747445,0.00093434536,0.10118262,0.10168735,0.1379649,0.13697156,0.0018637143,0.0018311553,0.008939676,0.008787487,164,6,231,2,0,-1166.7614,320.05716,-3510.764,69.20425,752365.94,763.90283,118.20508,116.59149,121.260345,121.260345,0,1,175.91455,0,0,7.400821,7.400822,0,6,255,0,0,0,1,0,6,0
True,34264250,15999.99,0,9514.009,-0.03956294,0.87299746,6.0294075,0.0011005402,-0.290173,69.92646,0.007081556,9.049261E-05,0.0068191243,-1.0643598,-0.005732808,-2.145674E-05,0.29888424,0.29889458,0.3511778,0.34736156,0.12975383,0.11946574,0.14449573,0.14600833,219.41312,219.23833,219.92978,219.94115,0,0,0,0,0,0,0,0,0,0,0,0,-0.0014552411,0.00045294838,-0.0030308196,0.0021267387,0.129762,0.119466595,0.14452751,0.14602381,0.0039966702,0.003997937,0.012859855,0.012406126,164,6,231,2,0,-1174.0414,320.06467,-3506.7256,69.92706,752258.44,755.24976,118.26344,116.65994,121.37338,121.37338,-0.18964863,1,182.52943,0,0,7.520475,7.5204763,0,6,255,0,0,0,1,0,8,0
True,34264343,15999.99,0,9600.877,2.7099028,-0.7373701,6.024724,0.0055446625,-0.296699,70.5567,-0.027545467,0.12709665,0.031743124,-1.0604441,-0.0041024406,0.0022285287,0.2817727,0.27762944,0.32106632,0.32110012,0.09624811,0.14353643,0.13449249,0.16567624,221.10655,221.3474,222.02122,221.97557,0,0,0,0,0,0,0,0,0,0,0,0,0.23192404,0.25443253,0.01626652,0.01962553,0.25110248,0.29212776,0.13547261,0.16683458,0.0018976592,0.0013894178,0.009279817,0.009283833,164,6,231,2,0,-1180.4968,320.0682,-3503.136,70.55733,752250.3,748.2405,118.32706,116.72332,121.45766,121.45766,0,1,188.39845,0,0,7.6256247,7.625626,0,6,255,0,0,0,1,127,9,0
True,34264468,15999.99,0,9712.496,8.171024,-1.8582273,6.0198927,-1.0577221,-0.28277728,71.218025,-0.029797358,0.29947236,0.018967573,-1.0306354,-0.001431726,0.0043644635,0.28390786,0.23996474,0.3257544,0.28774837,0.09290698,0.129182,0.15287939,0.24160525,223.59132,222.77232,224.89635,224.9298,0,0,0,0,0,0,0,0,0,0,0,0,0.07968695,0.08477849,0.18092749,0.1991099,0.12239982,0.15451661,0.23686887,0.31307802,0.0021595694,-0.003230773,0.009837195,0.0053185597,164,6,231,2,0,-1187.8429,320.05954,-3498.9531,71.22643,752260.4,739.38104,118.54358,116.90634,121.58202,121.58202,0,1,195.1157,0,0,7.7448845,7.744886,0,6,255,0,0,0,1,0,9,0
True,34264562,15999.99,0,9778.871,12.234816,2.036936,5.981614,-0.98950386,-0.27281123,71.78316,0.045645576,0.056140315,0.0222981,-1.0131809,-0.0059542805,0.008565466,0.35745764,0.29972956,0.4154401,0.34553602,0.11508398,0.21891208,0.12782823,0.16391724,225.07974,226.5962,225.70822,225.96872,0,0,0,0,0,0,0,0,0,0,0,0,0.12641464,0.1397455,0.12873729,0.14883757,0.17095315,0.2597139,0.18142034,0.22140795,0.011181656,0.00410036,0.020500164,0.0121890865,164,6,231,2,0,-1194.0182,320.06186,-3495.291,71.7905,752683.6,735.33,118.65234,116.98164,121.783966,121.783966,0,1,200.81978,0,0,7.8452554,7.8452573,0,6,255,0,0,0,1,0,7,0
True,34264687,15999.99,0,9860.479,-0.90699387,-0.9834575,5.513988,-0.578928,-0.29428968,72.43372,0.0007269699,-0.20569584,-0.06801322,-1.0212427,-0.0029886765,0.0040245308,0.3044663,0.26249996,0.34554654,0.3104914,0.17972383,0.113841556,0.16646565,0.12577267,227.6086,227.404,227.75165,227.92873,0,0,0,0,0,0,0,0,0,0,0,0,-0.38443837,-0.34620023,0.04685086,0.048239984,0.42437425,0.36443722,0.17293298,0.13470657,0.004681401,-0.0004664585,0.012190338,0.008022543,164,6,231,2,0,-1201.2064,320.06104,-3490.9363,72.43663,752400.75,728.77484,118.77347,117.11699,121.9006,121.9006,0,1,207.49567,0,0,7.96179,7.9617925,0,6,255,0,0,0,1,-96,2,0
True,34264781,15999.99,0,9916.675,-3.6709206,0.7560274,5.620741,0.55903625,-0.3066704,72.995514,-0.011630708,-0.12960297,-0.020202674,-1.0428135,-0.004334926,0.0007252659,0.29987097,0.30394065,0.34072104,0.3310476,0.12545179,0.09587191,0.13885604,0.10748047,228.64417,228.73767,229.17537,229.22307,0,0,0,0,0,0,0,0,0,0,0,0,-0.051829554,-0.0478764,-0.09391888,-0.0858185,0.13573672,0.10716143,0.16763578,0.1375386,0.0041177087,0.00461692,0.011616621,0.01046652,164,6,231,2,0,-1207.4932,320.05582,-3487.18,72.99829,752442.6,724.74786,118.86195,117.2327,121.99771,121.99771,0,1,213.31374,0,0,8.062489,8.062491,0,6,255,0,0,0,1,0,255,0
True,34264890,15999.99,0,9988.517,-5.0570297,-0.15346433,5.5361977,0.44963837,-0.28841347,73.53012,-0.030546682,-0.023051847,-0.022089383,-1.0488805,-0.0036126676,-0.0012933206,0.28585556,0.3013002,0.32070124,0.33930734,0.096742585,0.08533456,0.1417405,0.12592523,230.06119,229.97559,231.09993,230.97552,0,0,0,0,0,0,0,0,0,0,0,0,-0.055390768,-0.053146668,-0.06396945,-0.057985768,0.11147764,0.10053137,0.1555071,0.13863446,0.0023984872,0.0042930245,0.009236414,0.0114485435,164,6,231,2,0,-1213.75,320.054,-3483.5007,73.53205,752269.44,719.24457,118.907425,117.29884,122.08409,122.08409,0,1,219.0808,0,0,8.161557,8.16156,0,6,255,0,0,0,1,0,252,0
True,34265000,15999.99,0,10135.569,-2.5380712,-1.491941,4.71497,0.10203171,-0.26113316,74.107315,0.09601937,0.017758192,0.007944591,-1.048503,-0.002906319,-0.0027264215,0.27400377,0.28880712,0.34696832,0.3636252,0.20823756,0.18597893,0.21400541,0.21340849,233.82005,233.34648,234.37819,234.30698,0,0,0,0,0,0,0,0,0,0,0,0,-0.020361383,-0.017572755,-0.0149498535,-0.008258052,0.20923066,0.18680729,0.21452695,0.21356821,0.0009446703,0.0027605444,0.012359373,0.014339756,164,6,231,2,0,-1221.3082,320.06522,-3479.122,74.10785,752265.9,708.9976,118.95575,117.36746,122.19218,122.19218,0,1,226.0216,0,0,8.279853,8.279854,0,6,255,0,0,0,1,0,251,0
True,34265125,15999.99,0,10141.753,-0.54212475,2.130271,5.3057523,-0.015399933,-0.33187824,74.74544,-0.012113595,0.0050928583,0.0055226674,-1.0472047,-0.005936023,-0.0018357699,0.34067538,0.34245765,0.3616136,0.3651837,0.11929069,0.11084365,0.09491366,0.096938,234.3481,234.15575,234.19328,234.2087,0,0,0,0,0,0,0,0,0,0,0,0,-0.0003709292,0.001995387,-5.9960978E-05,0.00502188,0.11929127,0.11086161,0.094913684,0.09706799,0.0091230385,0.009341661,0.014100593,0.014525052,164,6,231,2,0,-1228.8037,320.05624,-3474.7966,74.74617,752511.8,708.7596,119.0377,117.45665,122.29921,122.29921,0,1,232.8981,0,0,8.396095,8.396096,0,6,255,0,0,0,1,0,250,0
True,34265218,15999.99,0,10225.229,0.22187161,-1.3117996,5.056982,-0.018218994,-0.28532988,75.23264,-0.0029187636,0.0007000949,0.0013154112,-1.0469685,-0.002625179,-0.00070949056,0.29119265,0.29666224,0.33871207,0.34701383,0.09978664,0.103198305,0.14073373,0.14342675,235.48825,235.53479,236.4758,236.50462,0,0,0,0,0,0,0,0,0,0,0,0,0.0016191674,0.0028447397,0.00025309063,0.0049193427,0.099799775,0.1032375,0.14073396,0.14351109,0.0030531697,0.0037241057,0.01137777,0.012364782,164,6,231,2,0,-1235.1694,320.0576,-3471.1223,75.23318,752280.5,702.57666,119.07416,117.49982,122.38158,122.38158,0,1,238.73851,0,0,8.494113,8.494114,0,6,255,0,0,0,1,0,249,0
True,34265343,15999.99,0,10303.472,0.07476497,0.40518898,4.8452497,-0.0046310425,-0.28564572,75.81961,0.04121564,-0.00058586436,-0.0072264615,-1.0469754,-0.0038794407,-0.00041165104,0.3060272,0.3068058,0.34673414,0.3535122,0.124609396,0.13305993,0.1245515,0.12548171,237.71893,237.84592,238.03197,238.06065,0,0,0,0,0,0,0,0,0,0,0,0,-6.264141E-05,0.0021741835,-0.0015546117,0.0033916961,0.12460941,0.1330777,0.1245612,0.12552755,0.0048728697,0.004968375,0.01233153,0.013137393,164,6,231,2,0,-1242.9246,320.05524,-3466.644,75.820145,752250.25,697.3939,119.134964,117.56794,122.49471,122.49471,0,1,245.85446,0,0,8.612663,8.612664,0,6,255,0,0,0,1,0,248,0
True,34265453,15999.99,0,10354.732,-0.018100262,2.0077374,4.846528,-0.0021018982,-0.30281186,76.34536,-0.023597851,-6.0224087E-05,0.013422092,-1.0470036,-0.006055432,-6.7260116E-06,0.33126262,0.34434503,0.3511661,0.35647464,0.098750666,0.101809345,0.09796124,0.09673725,238.97284,239.05132,239.21619,239.19461,0,0,0,0,0,0,0,0,0,0,0,0,-0.0011577533,0.00073529547,-0.0023810735,0.0020759995,0.09875745,0.101812,0.09799018,0.09675953,0.007968407,0.00957318,0.012858458,0.013489604,164,6,231,2,0,-1249.882,320.05692,-3462.6255,76.34596,752267.5,693.9338,119.19853,117.6445,122.59068,122.59068,0,1,252.23874,0,0,8.718254,8.718256,0,6,255,0,0,0,1,0,247,0
True,34265562,15999.99,0,10450.241,0.112605095,-1.5239521,4.795476,-0.0010643005,-0.28291547,76.862366,0.035909224,-3.2032967E-05,0.008099911,-1.0470078,-0.00292291,0.00025907182,0.28773358,0.29270473,0.3352834,0.3381053,0.13162489,0.12406089,0.1362399,0.1358689,241.1122,240.99171,241.51077,241.49084,0,0,0,0,0,0,0,0,0,0,0,0,-0.0011661957,0.0008286072,-0.0020438556,0.0018946044,0.13163006,0.124063656,0.13625523,0.13588211,0.0026288591,0.003238652,0.010970123,0.011305623,164,6,231,2,0,-1257.1772,320.0649,-3458.4119,76.86289,752267.06,687.549,119.235306,117.68961,122.682,122.682,0,1,258.93317,0,0,8.828229,8.828231,0,6,255,0,0,0,1,0,246,0
True,34265703,15999.99,0,10516.709,-0.04314947,0.91932696,4.6553693,0.0002861023,-0.29787993,77.47829,0.019980697,-0.00031084844,0.006027684,-1.0470397,-0.003984345,0.0007247292,0.31096706,0.31286475,0.34814358,0.34785625,0.113970175,0.10704697,0.11153347,0.112197235,242.72159,242.60208,242.99281,242.99794,0,0,0,0,0,0,0,0,0,0,0,0,-0.0012075929,0.0007616856,-0.0025324577,0.0020007994,0.113976575,0.10704968,0.111562215,0.11221507,0.0054788254,0.0057116076,0.012499105,0.012464944,164,6,231,2,0,-1265.7058,320.05588,-3453.486,77.47886,752258.06,683.2341,119.30391,117.76721,122.796265,122.796265,0,1,266.75906,0,0,8.955834,8.955835,0,6,255,0,0,0,1,0,244,0
True,34265796,15999.99,0,10569.46,-0.026528597,0.6737472,4.677,-0.0008354187,-0.2993747,77.91133,-0.015133928,-0.00012673157,-0.0021828017,-1.0470617,-0.0043078233,0.0013225386,0.31478032,0.31734133,0.33990782,0.34445867,0.09353997,0.10086461,0.10661376,0.10534915,243.76826,243.91516,244.24257,244.22618,0,0,0,0,0,0,0,0,0,0,0,0,-0.00059068046,0.0010546356,-0.0017456072,0.0021560749,0.09354183,0.100870125,0.10662805,0.105371214,0.005946584,0.006260734,0.011519935,0.012060992,164,6,231,2,0,-1271.8745,320.05533,-3449.9233,77.9119,752264.8,679.79913,119.3533,117.82248,122.87375,122.87375,0,1,272.41956,0,0,9.047515,9.047514,0,6,255,0,0,0,1,0,243,0
True,34265921,15999.99,0,10645.58,-4.076645,1.9248114,4.7403727,0.048274994,-0.30902153,78.50473,-0.040483277,-0.16546947,-0.0434012,-1.053242,-0.0058878385,-0.001450335,0.34021744,0.3537783,0.3461663,0.35777122,0.1264196,0.081560165,0.10481394,0.0801116,245.92395,245.763,245.73787,245.98306,0,0,0,0,0,0,0,0,0,0,0,0,-0.2960129,-0.26804596,-0.026759034,-0.021534683,0.32187817,0.28017977,0.10817582,0.08295548,0.009066865,0.010730326,0.012264021,0.0136437565,164,6,231,2,0,-1280.6921,320.05716,-3444.847,78.50535,752266.1,674.9996,119.44456,117.93788,122.98677,122.98677,0,1,280.50436,0,0,9.177597,9.177597,0,5,255,0,0,0,1,-126,242,0
True,34266015,15999.99,0,10733.336,-8.92016,-2.3085816,4.6323886,1.2708473,-0.2683906,78.946594,-0.050488643,-0.29522592,-0.04546662,-1.0817493,-0.001564837,-0.0061149616,0.268992,0.30500534,0.29667047,0.32749215,0.10976659,0.07531471,0.18610527,0.11546956,246.62921,247.39032,248.34703,248.35794,0,0,0,0,0,0,0,0,0,0,0,0,-0.10079328,-0.093207374,-0.19869658,-0.17756687,0.14902344,0.11983288,0.27224162,0.21180938,0.0003298968,0.004747521,0.0063793324,0.010043804,164,6,231,2,0,-1288.1533,320.05627,-3440.6516,78.95728,752265.2,669.0071,119.605194,118.15343,123.07272,123.07272,0,1,287.30612,0,0,9.286352,9.286352,0,4,255,0,0,0,1,0,243,0
True,34266140,15999.99,0,10797.876,-12.259772,-0.41246864,4.486068,1.2279606,-0.26316142,79.39668,0.0057260757,-0.070222065,-0.005871299,-1.0995679,-0.0029932878,-0.010011732,0.27388147,0.34506628,0.31777152,0.39015707,0.12930608,0.081331864,0.17268407,0.13174666,248.88412,248.32465,249.95195,249.6215,0,0,0,0,0,0,0,0,0,0,0,0,-0.14589971,-0.1321481,-0.16939342,-0.14897656,0.19495331,0.15517086,0.2418965,0.19887483,0.00092966855,0.009661652,0.008888088,0.017494198,164,6,231,2,0,-1295.5989,320.0543,-3436.6326,79.40661,752251.2,665.26135,119.66916,118.286705,123.21188,123.21188,0,1,294.02768,0,0,9.393196,9.393196,0,4,255,0,0,0,1,0,247,0
True,34266250,15999.99,0,10851.775,-8.149581,-0.4706551,4.2070284,0.4025383,-0.2654942,79.87718,0.024920695,0.031405665,0.03638617,-1.1003158,-0.0029460152,-0.006895349,0.25864866,0.35056692,0.30051234,0.3968779,0.09800283,0.09828241,0.14277484,0.1346217,249.9803,249.83562,251.09886,250.9005,0,0,0,0,0,0,0,0,0,0,0,0,-0.05838536,-0.05699274,-0.048700925,-0.04083949,0.11407631,0.113611646,0.15085237,0.14068002,-0.0009388849,0.010336395,0.006836105,0.018293258,164,6,231,2,0,-1303.3162,320.0547,-3432.6165,79.87863,752265.94,662.0922,119.73146,118.39734,123.314644,123.314644,0,1,300.93576,0,0,9.502418,9.502418,0,4,255,0,0,0,1,0,254,0
True,34266359,15999.99,0,10905.057,-2.088839,-0.055546146,4.184351,0.0025558472,-0.27628422,80.34559,0.014892395,0.019638581,0.008891436,-1.0974659,-0.0031753927,-0.0050986954,0.28896007,0.32478192,0.3212518,0.37008178,0.09390503,0.0919489,0.12056041,0.124553725,251.35791,251.20676,252.15306,252.15169,0,0,0,0,0,0,0,0,0,0,0,0,-0.0050061624,-0.0035967052,0.00070241134,0.0053793695,0.09403838,0.092019215,0.12056246,0.124669835,0.002779305,0.007173445,0.009301875,0.015107393,164,6,231,2,0,-1311.1368,320.05255,-3428.6047,80.34606,752251.94,658.8354,119.79107,118.46718,123.40752,123.40752,0,1,307.91354,0,0,9.612117,9.612118,0,4,255,0,0,0,1,0,6,0
True,34266453,15999.99,0,10956.9,0.002887249,0.5579496,4.2618265,-0.049926758,-0.27616307,80.788864,-0.0068509057,0.0038909179,0.01572635,-1.0962993,-0.0040004617,-0.0028030926,0.30434254,0.32687187,0.3349222,0.36065632,0.07980595,0.085462004,0.111465715,0.11290146,252.44614,252.52693,253.33693,253.35493,0,0,0,0,0,0,0,0,0,0,0,0,0.0042766044,0.0053537586,0.004011905,0.008750721,0.07992045,0.08562954,0.11153789,0.11324007,0.0046662204,0.007429812,0.010927182,0.0139867775,164,6,231,2,0,-1318.7732,320.05322,-3424.6917,80.78935,752265.44,655.69855,119.85007,118.53491,123.50527,123.50527,-4.111847,1,314.72525,0,0,9.718608,9.71861,0,4,255,0,0,0,1,0,14,0
True,34266578,15999.99,0,11035.51,0.0762192,-0.7466679,3.8085544,-0.015640259,-0.2703115,81.28115,0.013265404,-0.0015065616,0.011806903,-1.09627,-0.0036611771,-0.0008849709,0.29979697,0.31390822,0.3399534,0.35319695,0.09571197,0.097938634,0.12707834,0.12744495,254.29459,254.33734,255.14665,255.16101,0,0,0,0,0,0,0,0,0,0,0,0,0.0010768034,0.0025204704,-0.0008409021,0.00397369,0.095718026,0.09797106,0.12708113,0.12750688,0.00410863,0.005839605,0.011525352,0.013099909,164,6,231,2,0,-1327.6812,320.06458,-3420.1199,81.2816,752263.94,651.0005,119.91176,118.60422,123.61864,123.61864,-9.81387,1,322.674,0,0,9.842157,9.842158,0,4,255,0,0,0,1,0,24,0
True,34266703,15999.99,0,11080.695,2.0120816,-1.2708852,4.068223,0.03132248,-0.29582366,81.71636,-0.039875083,0.094044216,0.03783734,-1.0943073,-0.0020559137,0.0010555581,0.2962641,0.29806817,0.3146623,0.32097307,0.06957875,0.08741471,0.100684695,0.11982571,255.36212,255.28812,256.23566,256.1963,0,0,0,0,0,0,0,0,0,0,0,0,0.17033374,0.18132053,0.0065453947,0.008884465,0.1839967,0.201292,0.10089722,0.120154634,0.003675267,0.0038965642,0.008518431,0.009268731,164,6,231,2,0,-1335.4482,320.0559,-3416.127,81.716896,752259.56,648.28723,119.97174,118.66608,123.70085,123.70085,-14.638704,1,329.60736,0,0,9.949311,9.949312,0,4,255,0,0,0,1,117,31,0
True,34266796,15999.99,0,11144.21,8.521422,-0.10820995,3.8145177,-0.892807,-0.26746544,82.11141,-0.018491413,0.25779706,0.027786462,-1.069985,-0.002891061,0.004783966,0.33514985,0.29947108,0.36880302,0.32985023,0.07193904,0.09102579,0.09960236,0.15245429,257.04846,256.19235,257.85242,257.6987,0,0,0,0,0,0,0,0,0,0,0,0,0.055410083,0.058505252,0.1258923,0.14046234,0.090804756,0.1082061,0.16052881,0.20729683,0.008445241,0.004068654,0.01495536,0.010324158,164,6,231,2,0,-1343.4658,320.0524,-3411.9167,82.1167,752264.94,644.5665,120.1813,118.82529,123.83496,123.83496,-14.7,1,336.79916,0,0,10.059861,10.059861,0,4,255,0,0,0,1,0,38,0
True,34266937,15999.99,0,11208.07,9.248008,-0.7050364,3.8441048,-0.8071556,-0.26142815,82.58985,-0.013971429,0.02465349,-0.008068954,-1.0554342,-0.0032579105,0.008114558,0.34548852,0.28585726,0.37481028,0.32295734,0.0753293,0.094343476,0.1118228,0.13523555,258.06537,258.30075,259.08655,259.3193,0,0,0,0,0,0,0,0,0,0,0,0,0.08803977,0.09331732,0.0896923,0.10162659,0.11586848,0.13269821,0.1433494,0.16916448,0.009713449,0.0023986958,0.015669577,0.009504646,164,6,231,2,0,-1352.7128,320.05814,-3406.8826,82.59421,752254.6,640.8859,120.30449,118.90394,124.03244,124.03244,-14.7,1,345.16385,0,0,10.187698,10.187697,0,4,255,0,0,0,1,0,42,0
True,34267015,15999.99,0,11262.68,5.499073,-1.2812238,3.7126112,-0.26789856,-0.2664728,82.93673,0.024183676,-0.026319377,-0.032961432,-1.0563345,-0.002174258,0.0067541036,0.3295733,0.27018687,0.37010598,0.31157193,0.086129256,0.102670394,0.13372357,0.135313,259.18762,259.60715,260.42258,260.55627,0,0,0,0,0,0,0,0,0,0,0,0,0.036836337,0.03936995,0.026131874,0.031085327,0.093675844,0.109960005,0.13625295,0.1388377,0.007761184,0.00047646463,0.015110269,0.008151006,164,6,231,2,0,-1359.3821,320.05795,-3403.16,82.93759,752264,637.8844,120.36656,118.95085,124.13996,124.13996,0,1,351.2329,0,0,10.279974,10.279973,0,4,255,0,0,0,1,0,44,0
True,34267156,15999.99,0,11351.698,0.9162712,-0.28712362,3.3141162,0.03143692,-0.2535802,83.391464,0.094321236,-0.008360484,-0.027757425,-1.0586057,-0.0028491907,0.0021954163,0.32851315,0.29833767,0.39261392,0.35680014,0.1541437,0.15269752,0.15121508,0.15035544,261.98495,261.9636,262.26083,262.26617,0,0,0,0,0,0,0,0,0,0,0,0,0.012136079,0.014799943,-0.009791474,-0.0006430854,0.15462072,0.15341307,0.15153176,0.15035681,0.007631138,0.0039296225,0.017786294,0.013528306,164,6,231,2,0,-1368.612,320.06104,-3397.9692,83.39185,752264.44,633.0907,120.44005,119.029594,124.2715,124.2715,0,1,359.64746,0,0,10.407271,10.40727,0,4,255,0,0,0,1,3,45,0
True,34267250,15999.99,0,11339.721,3.8677206,1.5141672,3.848434,-0.051940918,-0.31603798,83.753815,-0.07357032,0.15828036,0.020376533,-1.0529354,-0.0046685305,0.0028743264,0.38247886,0.35364032,0.3619458,0.33308455,0.061396986,0.082601614,0.0696034,0.08941569,261.76395,261.48334,262.16122,261.89255,0,0,0,0,0,0,0,0,0,0,0,0,0.11548149,0.124581404,0.019212313,0.023274247,0.13078824,0.1494776,0.07220627,0.09239511,0.014250919,0.010713398,0.014140084,0.010708697,164,6,231,2,0,-1375.1859,320.05237,-3394.255,83.754425,752263.7,633.5928,120.53963,119.12193,124.345924,124.345924,0,1,365.64734,0,0,10.49761,10.497608,0,4,255,0,0,0,1,31,45,0
True,34267359,15999.99,0,11401.699,4.630276,0.07890728,4.1470137,-0.5407524,-0.27535874,84.15453,-0.045040503,0.051676553,0.025454592,-1.041368,-0.0035252078,0.0042442763,0.34294602,0.3240468,0.3627401,0.3392393,0.066710114,0.078975454,0.089172125,0.103332154,262.84964,262.84592,263.56754,263.57306,0,0,0,0,0,0,0,0,0,0,0,0,0.050364934,0.053139064,0.0594868,0.06684747,0.083587475,0.09518866,0.10719304,0.12306957,0.009401567,0.007083267,0.0142345205,0.011440448,164,6,231,2,0,-1383.4048,320.0571,-3389.5505,84.156715,752250.75,630.04364,120.61156,119.18573,124.466545,124.466545,0,1,373.17264,0,0,10.610416,10.6104145,0,4,255,0,0,0,1,0,45,0
True,34267468,15999.99,0,11460.744,3.3390043,-0.94014096,3.565099,-0.20167542,-0.27425185,84.55505,-0.03248662,-0.002112239,-0.033652544,-1.0403988,-0.0026949472,0.004745986,0.33735666,0.29577073,0.35164645,0.32958928,0.06813125,0.07833445,0.10400933,0.1086982,263.98642,264.1814,264.97314,265.03265,0,0,0,0,0,0,0,0,0,0,0,0,0.029482504,0.030952215,0.020497406,0.025002725,0.07423669,0.08422782,0.10600983,0.1115367,0.0087159425,0.003614746,0.01291557,0.010293134,164,6,231,2,0,-1391.6473,320.05798,-3384.7654,84.55574,752263.56,626.7744,120.68205,119.23941,124.58304,124.58304,0,1,380.74576,0,0,10.723402,10.723399,0,4,255,0,0,0,1,1,43,0
True,34267578,15999.99,0,11525.296,3.9792223,-0.5910216,2.6218722,-0.22633743,-0.26567876,84.86448,0.056784052,0.12129245,0.01208695,-1.0351475,-0.0032118983,0.0033801792,0.34052002,0.3019194,0.38504073,0.33521292,0.10913046,0.14065251,0.10905168,0.13154504,265.99188,266.11356,266.27823,266.19214,0,0,0,0,0,0,0,0,0,0,0,0,0.13170214,0.13989858,0.0354536,0.042909976,0.17104067,0.19838029,0.114670075,0.13836677,0.00910398,0.0043689795,0.016885903,0.010961745,164,6,231,2,0,-1398.5223,320.06238,-3380.7334,84.8652,752259.7,623.46545,120.75932,119.315346,124.69098,124.69098,0,1,387.07852,0,0,10.817477,10.817475,0,4,255,0,0,0,1,10,41,0
True,34267687,15999.99,0,11551.085,6.0714273,2.2975814,4.0601854,-0.45609665,-0.29682806,85.29673,-0.021589693,0.0223049,-0.0017981939,-1.0251558,-0.0046972837,0.0038530368,0.37949026,0.33351257,0.38800016,0.3426708,0.076102935,0.088967755,0.07825362,0.087208934,266.49203,266.65,266.85214,266.89294,0,0,0,0,0,0,0,0,0,0,0,0,0.047873653,0.051237192,0.0445234,0.052302226,0.089908525,0.102667,0.090033114,0.101690315,0.013884317,0.008244403,0.017237756,0.011848427,164,6,231,2,0,-1407.3541,320.05392,-3375.4827,85.29846,752355.06,622.048,120.861725,119.40065,124.82,124.82,0,1,395.2416,0,0,10.9382305,10.938228,0,4,255,0,0,0,1,0,37,0
True,34267812,15999.99,0,11617.887,2.0399227,-0.98452103,3.1483436,-0.12214279,-0.26592708,85.69483,-0.011884684,-0.010358315,0.016925028,-1.025569,-0.0021539156,0.0030443857,0.323354,0.3024658,0.3641026,0.32328466,0.073607,0.07342826,0.113151215,0.111955814,267.5801,267.64557,268.68655,268.68585,0,0,0,0,0,0,0,0,0,0,0,0,0.01441772,0.015043761,0.0088351825,0.013244705,0.07500574,0.074953474,0.11349563,0.11273654,0.0069982857,0.004436005,0.014396511,0.009543564,164,6,231,2,0,-1416.0049,320.05542,-3370.2678,85.69533,752258,618.3294,120.91558,119.457855,124.930786,124.930786,0,1,403.26852,0,0,11.056379,11.056377,0,4,255,0,0,0,1,0,31,0
True,34267906,15999.99,0,11674.711,1.2310896,-0.1822887,3.0955644,0.0008087158,-0.25309533,86.00583,0.05466745,-0.007730442,-0.020287676,-1.0264393,-0.003355942,0.0025015252,0.34085822,0.3212178,0.3786522,0.36350057,0.10813155,0.097994484,0.12340351,0.1235801,269.20102,269.03976,269.89758,269.88834,0,0,0,0,0,0,0,0,0,0,0,0,0.0010899886,0.003019311,-0.0041901865,0.0030004613,0.10813704,0.09804098,0.12347463,0.12361652,0.009145465,0.006736245,0.016126353,0.014324937,164,6,231,2,0,-1423.0914,320.0594,-3365.9792,86.0062,752261.2,615.4856,120.97566,119.51628,125.03555,125.03555,0,1,409.84775,0,0,11.152848,11.152845,0,4,255,0,0,0,1,0,26,0
True,34268031,15999.99,0,11714.705,-1.974652,0.90718114,3.0493767,0.031780243,-0.28328645,86.45289,-0.0025836937,-0.09721972,-0.037831593,-1.0292742,-0.0039929426,-0.001838605,0.34124124,0.32361075,0.3646847,0.34409514,0.107486196,0.07096646,0.10070466,0.08628719,270.47366,270.1239,270.6283,270.72934,0,0,0,0,0,0,0,0,0,0,0,0,-0.20032223,-0.18102255,-0.016400134,-0.011171903,0.22733736,0.19443612,0.102031335,0.08700742,0.009192448,0.0070297793,0.014465723,0.012017775,164,6,231,2,0,-1432.8914,320.0574,-3360.053,86.453354,752255.94,613.3047,121.05646,119.613976,125.14491,125.14491,0,1,418.94446,0,0,11.2856455,11.285644,0,4,255,0,0,0,1,-90,19,0
True,34268125,15999.99,0,11754.208,-7.316254,0.34943008,3.234884,0.7405815,-0.27539796,86.72684,-0.0013816344,-0.19437186,-0.0031656097,-1.0467874,-0.004018639,-0.004062804,0.31107146,0.34519565,0.3392913,0.3617555,0.10259345,0.07255504,0.113887005,0.081444696,271.01755,271.29727,271.52734,271.713,0,0,0,0,0,0,0,0,0,0,0,0,-0.053481564,-0.04865616,-0.10450249,-0.094753735,0.115696564,0.08735935,0.1545672,0.12494602,0.0054916292,0.009677522,0.011446632,0.014117457,164,6,231,2,0,-1439.6791,320.06256,-3356.012,86.73044,752263.44,611.2284,121.15827,119.77118,125.21765,125.21765,0,1,425.22015,0,0,11.376873,11.376871,0,4,255,0,0,0,1,0,15,0
True,34268250,15999.99,0,11797.113,-7.897663,0.25828704,3.4561863,0.67635727,-0.2967747,87.13847,-0.06474534,-0.02049462,0.02113245,-1.0578358,-0.0032905526,-0.005616471,0.28875357,0.35004687,0.30808285,0.35304454,0.08212052,0.052074786,0.0867971,0.08160705,272.28186,271.778,272.67795,272.67212,0,0,0,0,0,0,0,0,0,0,0,0,-0.07472057,-0.065630265,-0.07234097,-0.06895068,0.11102677,0.083780155,0.112990946,0.106835894,0.0027539767,0.0102726035,0.00773618,0.013081793,164,6,231,2,0,-1449.3518,320.05508,-3350.3884,87.1416,752251.7,608.93646,121.22348,119.885796,125.32347,125.32347,0,1,434.1104,0,0,11.505578,11.505575,0,4,255,0,0,0,1,0,12,0
True,34268375,15999.99,0,11852.243,-3.3466809,-0.0027802847,3.3928826,0.07450485,-0.3103811,87.53703,-0.029043274,0.003544915,0.032557074,-1.0558015,-0.0024461597,-0.0055185985,0.27975574,0.3360314,0.30418655,0.3522672,0.07592418,0.06979492,0.08589685,0.08476142,273.45917,273.3088,273.93503,273.87405,0,0,0,0,0,0,0,0,0,0,0,0,-0.06247496,-0.060090985,-0.008569177,-0.0059987823,0.09832396,0.092099175,0.086323224,0.084973425,0.001650244,0.008553378,0.0072729364,0.012989372,164,6,231,2,0,-1459.005,320.04327,-3344.891,87.53762,752263.3,606.15485,121.28246,119.99584,125.46895,125.46895,0,1,442.93777,0,0,11.632782,11.632779,0,4,255,0,0,0,1,-11,12,0
True,34268484,15999.99,0,11962.589,-1.987295,-4.484088,2.877579,0.22925186,-0.28735235,87.881584,0.082585566,-0.039084624,0.01871203,-1.0602682,0.003629386,-0.0032152669,0.22243235,0.26267686,0.28049278,0.32150605,0.13782282,0.13139145,0.17005159,0.15599611,275.57553,275.66183,276.66742,276.57764,0,0,0,0,0,0,0,0,0,0,0,0,-0.021578154,-0.019832294,-0.032645363,-0.03070279,0.13950178,0.13287978,0.17315675,0.15898883,-0.005381409,-0.00044475868,0.004455924,0.009332098,164,6,231,2,0,-1468.2958,320.0107,-3339.642,87.88235,752262.6,600.62134,121.313034,120.04146,125.552216,125.552216,0,1,451.41125,0,0,11.754442,11.75444,0,4,255,0,0,0,1,0,13,0
True,34268593,15999.99,0,11971.5,-2.2010698,-2.025733,3.2737179,0.20325089,-0.3478127,88.2144,0.07693143,0.00038628344,-0.010150168,-1.0624964,0.0051980577,-0.0029985067,0.25792107,0.2741016,0.31598985,0.333621,0.1428569,0.120038465,0.102472715,0.10498,276.88397,276.3574,276.3663,276.4292,0,0,0,0,0,0,0,0,0,0,0,0,-0.026029842,-0.022990854,-0.022292333,-0.020036692,0.14520897,0.122220345,0.10486947,0.10687502,-0.0010281354,0.00095666945,0.008676261,0.010772478,164,6,231,2,0,-1476.0092,319.9362,-3335.3088,88.21531,752524.9,600.42365,121.35978,120.097694,125.62315,125.62315,0,1,458.44153,0,0,11.854908,11.854906,0,4,255,0,0,0,1,0,14,0
True,34268703,15999.99,0,12007.034,-1.0234165,-1.876856,3.3166347,0.047546387,-0.38553602,88.583145,0.019138481,0.006894689,-0.013582389,-1.061997,0.00843371,-0.0029483545,0.25822532,0.25945437,0.28330383,0.2984214,0.10386686,0.10045799,0.09294555,0.09397478,277.33875,277.2062,277.31036,277.309,0,0,0,0,0,0,0,0,0,0,0,0,-0.007408958,-0.0054451386,-0.0036748503,-0.0037272458,0.10413077,0.10060545,0.09301817,0.094048664,-0.0009908155,-0.00084004924,0.0047901385,0.006587509,164,6,231,2,0,-1484.8944,319.81616,-3330.3406,88.58399,752394.75,598.51086,121.40704,120.15521,125.69609,125.69609,0,1,466.5313,0,0,11.97007,11.970066,0,4,255,0,0,0,1,0,16,0
True,34268828,15999.99,0,12104.161,-0.13159692,-7.3935204,3.1561835,-0.019054413,-0.3671047,88.91768,0.029099556,0.005012502,0.009200834,-1.0613135,0.018888447,-0.0026275064,0.1936654,0.20036368,0.23011604,0.23157999,0.1250081,0.121057875,0.16893585,0.17217721,278.82272,278.71527,279.90765,280.00558,0,0,0,0,0,0,0,0,0,0,0,0,0.00038254657,0.0015561471,0.0017305092,0.0031473928,0.12500869,0.121067874,0.16894472,0.17220597,-0.008910146,-0.008088492,-0.0015334971,-0.0013594441,164,6,231,2,0,-1493.7949,319.6346,-3325.3708,88.918434,751784.94,592.82,121.41696,120.17552,125.75394,125.75394,0,1,474.6332,0,0,12.084978,12.084974,0,4,255,0,0,0,1,0,18,0
True,34268921,15999.99,0,12236.688,-0.008865356,-8.778905,2.556469,-0.037014008,-0.3752305,89.175545,0.076997325,0.0036380207,-0.014351461,-1.0609763,0.027593106,-0.0017904647,0.16028811,0.16220444,0.22513922,0.22752076,0.1427696,0.15414307,0.30534643,0.32288837,280.1266,280.23074,283.685,284.13528,0,0,0,0,0,0,0,0,0,0,0,0,0.0034850796,0.0047152857,0.0043838457,0.006354887,0.14281213,0.15421517,0.3053779,0.3229509,-0.01300442,-0.012769349,-0.0021252036,-0.0018420555,164,6,231,2,0,-1501.396,319.40274,-3321.1257,89.17634,752158.8,586.7683,121.43315,120.1973,125.80556,125.80556,0,1,481.55377,0,0,12.182769,12.182765,0,4,255,0,0,0,1,0,20,0
True,34269031,15999.99,0,12291.574,0.16392303,-9.58548,2.7452035,-0.02128601,-0.432945,89.53268,0.1288043,-0.0024114398,0.01800739,-1.0609183,0.038356993,-0.0024632704,0.12464636,0.13899404,0.19185881,0.20559405,0.29671788,0.2573459,0.2528032,0.24831602,284.57327,283.74762,283.73248,283.687,0,0,0,0,0,0,0,0,0,0,0,0,0.001293035,0.0036765337,-0.0003571881,0.0029980512,0.29672068,0.25737217,0.25280347,0.24833412,-0.017376464,-0.015616484,-0.0060819983,-0.00444898,164,6,231,2,0,-1510.2736,319.02753,-3316.1653,89.53372,752655.94,584.972,121.44786,120.22091,125.86365,125.86365,0,1,489.63916,0,0,12.296606,12.296602,0,4,255,0,0,0,1,0,22,0
True,34269140,15999.99,0,12566.937,-0.08558443,-13.36698,1.3527668,-0.002357483,-0.5022396,89.686295,0.16728522,-0.0011683502,0.0065821335,-1.0611389,0.05276799,-0.0007905271,0.057047416,0.06260396,0.13794336,0.14464568,0.45713007,0.5330446,0.5455446,0.53302187,288.3688,290.236,290.81348,290.64163,0,0,0,0,0,0,0,0,0,0,0,0,-0.0009141418,0.0015633326,-0.0069485796,0.0058611906,0.457131,0.5330469,0.54558885,0.5330541,-0.025668582,-0.02498698,-0.012492146,-0.01169529,164,6,231,2,0,-1518.0573,318.57764,-3311.8152,89.687706,587123.75,446.57697,121.47101,120.24861,125.89166,125.89166,0,1,496.72137,0,0,12.396192,12.396187,0,4,255,0,0,0,1,0,23,0
True,34269250,15999.99,0,12254.768,0.19969177,-9.490213,4.6643095,-0.0022697449,-0.66729283,90.20309,0.024187805,-0.00074813474,0.012417983,-1.0611166,0.062200803,-0.0010759067,0.08325793,0.08449089,0.15760837,0.14926443,0.11441493,0.11506424,0.13803063,0.13218042,282.54364,282.5875,283.29984,283.2253,0,0,0,0,0,0,0,0,0,0,0,0,-0.0005750488,0.0006984755,-0.004749187,0.004817197,0.114416376,0.115066364,0.1381123,0.13226818,-0.022453433,-0.02230219,-0.010154121,-0.011146154,164,6,231,2,0,-1526.2299,317.96542,-3307.2476,90.20555,752262.2,586.06726,121.548004,120.33651,125.97813,125.97813,0,1,504.17685,0,0,12.500528,12.5005245,0,4,255,0,0,0,1,0,24,0
True,34269359,15999.99,0,12258.239,-0.08597028,-0.3925736,3.6563947,0.0006904602,-0.47605085,90.59932,-0.0008934571,-0.00014466589,-0.007787126,-1.0611652,0.0637294,-0.001092812,0.27065596,0.27371234,0.28721434,0.29814813,0.060596593,0.06259979,0.08131217,0.08107045,282.61346,282.6587,283.3485,283.3474,0,0,0,0,0,0,0,0,0,0,0,0,-0.00020385721,0.0007777428,0.00031187263,0.00016417292,0.060596935,0.06260462,0.08131277,0.08107062,0.0005340092,0.0009089224,0.0052550696,0.0065550134,164,6,231,2,0,-1534.8649,317.27057,-3302.4216,90.60056,752262.2,586.06665,121.61309,120.40656,126.074814,126.074814,0,1,512.0568,0,0,12.610206,12.610201,0,4,255,0,0,0,1,0,26,0
True,34269500,15999.99,0,12331.837,3.744978,-4.659264,3.472981,0.033180237,-0.34263003,91.007324,-0.03908282,0.13304529,0.03790364,-1.057172,0.07169907,-0.0019093575,0.28896388,0.26681197,0.28586495,0.245056,0.06887164,0.090665534,0.088729635,0.11398841,284.35025,284.21652,285.15356,284.99844,0,0,0,0,0,0,0,0,0,0,0,0,0.26142934,0.28287953,0.011011378,0.011839212,0.27034903,0.297054,0.08941028,0.11460159,0.0027797744,6.248057E-05,0.0050946325,0.00024275482,164,6,231,2,0,-1544.9718,316.4344,-3296.7622,91.00797,752261.25,582.3489,121.67743,120.48237,126.16557,126.16557,0,1,521.28564,0,0,12.738141,12.738136,0,4,255,0,0,0,1,127,27,0
True,34269609,15999.99,0,12427.8,12.532235,-3.524145,2.272238,-1.3958626,-0.30258858,91.27552,0.033228636,0.40685484,-0.007823421,-1.0258002,0.07490461,0.001570907,0.30624756,0.18502714,0.30658662,0.21640465,0.1046321,0.24797973,0.105401985,0.19970934,286.31827,287.54126,287.02792,287.09122,0,0,0,0,0,0,0,0,0,0,0,0,0.669175,0.80342454,0.18136147,0.20997651,0.67730576,0.84082395,0.2097655,0.2897826,0.0048999004,-0.009969771,0.007558286,-0.0031636804,164,6,231,2,0,-1553.9513,315.6461,-3291.605,91.2867,752259.06,578.1526,122.009445,120.70335,126.30684,126.30684,0,1,529.5381,0,0,12.852069,12.852065,0,4,255,0,0,0,1,127,26,0
True,34269718,15999.99,0,12546.705,17.204687,-4.9283185,3.0248823,-3.8372345,-0.29507542,91.41978,0.119819105,0.39540496,-0.044018485,-0.97756076,0.08119704,0.004240574,0.25663632,0.10525549,0.31627098,0.16004413,0.12723745,0.48454404,0.15046154,0.28628224,287.6363,293.61478,288.87283,289.71112,0,0,0,0,0,0,0,0,0,0,0,0,0.36117268,0.4176492,0.43145832,0.5195577,0.3829296,0.6396982,0.4569409,0.5932097,-0.0011857301,-0.019755071,0.008709688,-0.009864528,164,6,231,2,0,-1562.4272,314.84167,-3286.52,91.50075,752261.25,572.9068,122.416435,120.966896,126.560165,126.560165,0,1,537.41614,0,0,12.960568,12.960563,0,4,255,0,0,0,1,0,21,0
True,34269843,15999.99,0,12525.823,27.40755,-1.0035301,3.8122444,-4.1501236,-0.26272583,91.72397,0.08273487,0.19262388,-0.037044138,-0.9372579,0.08347375,0.008220284,0.38472292,0.14339082,0.43234795,0.17440377,0.10453139,0.40019742,0.10200959,0.19166246,287.65393,293.26877,288.2391,289.03625,0,0,0,0,0,0,0,0,0,0,0,0,0.42231163,0.500781,0.3841332,0.49908787,0.43505624,0.6410457,0.39744717,0.53462434,0.014526188,-0.015077148,0.02251038,-0.008157272,164,6,231,2,0,-1572.0032,313.85684,-3280.402,91.818184,752257.5,573.77985,122.80884,121.14815,127.07538,127.07538,-5.2919283,1,546.46063,0,0,13.084979,13.084973,0,4,255,0,0,0,1,0,9,0
True,34269953,15999.99,0,12538.75,13.304829,-5.0940204,4.368755,-3.9075127,-0.400177,92.09893,-0.008290693,0.0003061234,-0.13234165,-0.9264706,0.09016197,-0.0009051787,0.2703808,0.066807285,0.3297247,0.108909674,0.103350125,0.11542914,0.15114024,0.17496665,288.56223,288.79556,289.8619,290.26157,0,0,0,0,0,0,0,0,0,0,0,0,-0.2191211,-0.20035031,0.38962078,0.4322873,0.24227114,0.23122314,0.41790876,0.46635357,0.00050025433,-0.024471374,0.010309234,-0.015944036,164,6,231,2,0,-1580.0096,312.96964,-3274.9663,92.182655,752261.5,572.7895,122.979866,121.27249,127.37662,127.37662,-12.5018015,1,554.16174,0,0,13.190654,13.190647,0,4,255,0,0,0,1,-127,248,0
True,34270046,15999.99,0,12573.311,6.326741,-1.802341,3.5363522,-2.1057625,-0.55196595,92.51497,0.08728674,-0.25761527,-0.11799551,-0.94021994,0.09010489,-0.015430148,0.26733577,0.11907005,0.3804437,0.22466023,0.15855664,0.16148348,0.12308425,0.11069351,290.13495,291.36777,289.82614,290.51523,0,0,0,0,0,0,0,0,0,0,0,0,-0.37006223,-0.34995273,0.18391229,0.20394522,0.4025994,0.38541386,0.22129948,0.23204893,0.00012673065,-0.018060489,0.016339347,-0.0021821521,164,6,231,2,0,-1587.8943,312.05875,-3269.514,92.54058,752260.25,571.5359,123.10388,121.39316,127.649796,127.649796,-14.7,1,561.78754,0,0,13.294894,13.294887,0,4,255,0,0,0,1,-92,230,0
True,34270171,15999.99,0,12582.633,2.6503923,0.055049837,4.0560656,0.50066376,-0.47980833,92.97725,0.001797542,-0.15630284,-0.13317563,-0.9654978,0.09138364,-0.029820321,0.32614228,0.19602415,0.35439292,0.21195498,0.08108731,0.0627911,0.09096602,0.07078219,290.12268,290.43753,290.65738,290.85724,0,0,0,0,0,0,0,0,0,0,0,0,-0.024519542,-0.021795077,-0.06376634,-0.058810953,0.0847134,0.06646614,0.11108989,0.09202634,0.0073403157,-0.008620806,0.013242103,-0.0036927126,164,6,231,2,0,-1595.8867,311.10574,-3263.9275,92.97983,752257.4,570.98663,123.19441,121.47385,127.75572,127.75572,-14.7,1,569.5432,0,0,13.400514,13.400507,0,4,255,0,0,0,1,0,211,0
True,34270265,15999.99,0,12655.556,-4.0829835,-0.8837242,3.9714131,0.7172127,-0.32567072,93.31935,0.052629873,-0.02672401,-0.04100055,-0.97352177,0.09330171,-0.039011616,0.3088716,0.26753446,0.36026353,0.30359027,0.119793385,0.08403536,0.12011769,0.10044423,292.29233,291.638,292.57034,292.31146,0,0,0,0,0,0,0,0,0,0,0,0,-0.07559775,-0.0704882,-0.08246401,-0.07352628,0.14165266,0.10968377,0.14570028,0.12447955,0.0052217804,0.00015110523,0.013940074,0.007202044,164,6,231,2,0,-1603.026,310.26407,-3258.9624,93.32268,752368.44,567.77466,123.21404,121.53707,127.82677,127.82677,-14.7,1,576.4605,0,0,13.494298,13.494291,0,4,255,0,0,0,1,0,195,0
True,34270390,15999.99,0,12717.505,-3.7605438,-2.2968276,3.6207573,0.26872253,-0.33722687,93.77696,0.018311838,0.020578219,-0.031109842,-0.97345436,0.09584257,-0.043738563,0.2568423,0.24461687,0.2965471,0.29363063,0.08822295,0.074024886,0.119009815,0.11934542,293.2059,292.79044,294.1149,294.05844,0,0,0,0,0,0,0,0,0,0,0,0,-0.031391352,-0.029202472,-0.024796277,-0.024347927,0.09364137,0.079576805,0.12156558,0.12180374,-0.0011604652,-0.0026601143,0.006364666,0.0060179196,164,6,231,2,0,-1612.2843,309.15707,-3252.6013,93.77795,752262.2,564.847,123.24927,121.6046,127.88252,127.88252,-14.7,1,585.40137,0,0,13.614942,13.614935,0,4,255,0,0,0,1,0,177,0
True,34270500,15999.99,0,12786.003,-1.4649376,-0.5113098,2.8288488,-0.0014839172,-0.44592047,94.16441,0.059653185,0.014759177,0.0019748472,-0.9711794,0.09443097,-0.042998925,0.24328604,0.24627271,0.2478029,0.2335178,0.20537287,0.19655997,0.071753025,0.07784792,296.99356,296.75058,294.43445,294.4237,0,0,0,0,0,0,0,0,0,0,0,0,-0.0040935194,-0.00096279563,0.0015143773,0.0020001892,0.20541367,0.19656232,0.07176901,0.07787361,-0.0028233603,-0.0024569966,0.00056933984,-0.0011290535,164,6,231,2,0,-1621.3401,308.06546,-3246.4128,94.16547,752256.4,561.94305,123.32895,121.709854,127.97015,127.97015,-14.7,1,594.26587,0,0,13.732205,13.732198,0,4,255,0,0,0,1,0,162,0
True,34270593,15999.99,0,12793.893,-3.231686,2.4497736,3.3512783,0.076538086,-0.11512017,94.54732,-0.024771184,-0.1456764,0.28898156,-0.97549653,0.09563342,-0.021736411,0.2661731,0.67176855,0.23306662,0.722189,0.095019445,0.07215138,0.080827534,0.06336992,295.38892,295.46548,295.4536,295.52884,0,0,0,0,0,0,0,0,0,0,0,0,-0.29918444,-0.2747668,-0.029436346,0.03733205,0.31391084,0.28408206,0.086020865,0.073548816,-1.5888363E-05,0.049737036,-0.001182694,0.056970336,164,6,231,2,0,-1629.9534,307.03238,-3240.539,94.547424,752253.9,561.61255,123.37147,121.92072,128.07237,128.07237,0,1,602.586,0,0,13.843233,13.8432255,0,4,255,0,0,0,1,-92,149,0
True,34270718,15999.99,0,12838.182,-9.457524,0.0924148,3.4492083,1.4561691,-0.30109572,94.842224,-0.06313611,-0.21446678,0.07054206,-1.0014896,0.09520149,-0.005638528,0.24458401,0.4295259,0.23420079,0.41619292,0.07209252,0.053749926,0.10353944,0.0676859,295.67,296.2545,296.71555,296.84018,0,0,0,0,0,0,0,0,0,0,0,0,-0.11798733,-0.11004919,-0.16848023,-0.14659211,0.13826908,0.12247399,0.19775239,0.16146402,-0.002664145,0.020022012,-0.0010478497,0.020589665,164,6,231,2,0,-1638.3534,306.03162,-3234.9014,94.853874,752260.6,559.578,123.514404,122.09677,128.15247,128.15247,0,1,610.6616,0,0,13.950598,13.95059,0,4,255,0,0,0,1,0,140,0
True,34270828,15999.99,0,12873.375,-12.152296,3.7485833,3.261619,1.0680771,-0.30656934,95.15168,-0.030420147,-0.012528256,0.034179915,-1.0121999,0.090384655,-0.001699992,0.28672498,0.42616922,0.2867462,0.42828223,0.069585174,0.05947938,0.08357925,0.07103913,296.9996,296.83698,297.587,297.4394,0,0,0,0,0,0,0,0,0,0,0,0,-0.10901533,-0.10388012,-0.105336815,-0.090514556,0.12933072,0.119703285,0.13446686,0.11506278,0.0025051385,0.019610256,0.0051994137,0.022026993,164,6,231,2,0,-1646.8313,305.0573,-3229.3867,95.15816,752259.06,558.0589,123.610275,122.26562,128.29463,128.29463,0,1,618.7357,0,0,14.057541,14.057533,0,4,255,0,0,0,1,0,136,0
True,34270937,15999.99,0,12632.235,5.6241083,-0.44808033,-5.9357023,-0.35000992,-0.14932108,93.14089,-0.012779169,0.31977344,0.14532018,-0.9909004,0.09280374,0.0107836155,0.32950932,0.35375136,0.36200804,0.38107595,0.062128626,0.10693455,0.084695935,0.15546106,291.20267,290.70502,292.2151,292.10095,0,0,0,0,0,0,0,0,0,0,0,0,0.41026077,0.47683164,0.059637144,0.07711233,0.4149384,0.48867518,0.10358567,0.17353517,0.007753335,0.010727022,0.014147487,0.01641452,164,6,231,2,0,-1656.5477,303.9662,-3223.1653,93.14167,752260.5,568.60187,123.78897,122.42139,128.43347,128.43347,0,1,627.9459,0,0,14.182029,14.182021,0,4,255,0,0,0,1,108,140,0
True,34271046,15999.99,0,12706.802,17.851704,0.26933908,1.8708048,-2.5861778,0.094058156,93.37501,0.02528292,0.5484962,0.056357916,-0.943521,0.092659175,0.02505543,0.40556064,0.31205323,0.42091647,0.3159528,0.08708061,0.19375049,0.09231115,0.21715546,292.85605,292.69107,293.77664,293.87796,0,0,0,0,0,0,0,0,0,0,0,0,0.6195977,0.7292003,0.28405222,0.35596317,0.62568706,0.7545014,0.29867545,0.41697276,0.017082278,0.0056120604,0.02115126,0.008671857,164,6,231,2,0,-1664.8336,303.04233,-3217.6418,93.410866,752252.5,565.37036,124.23488,122.68178,128.65315,128.65315,0,1,636.3226,0,0,14.289236,14.2892275,0,4,255,0,0,0,1,110,147,0
True,34271156,15999.99,0,12941.298,19.945074,-4.0716457,2.586606,-6.0105247,-0.060991287,93.35744,0.016538829,0.60308015,-0.32518053,-0.8822441,0.09434806,0.02690804,0.40414923,0.14292006,0.40913227,0.1324626,0.16240655,0,0.22222188,0,294.7411,302.6056,298.12317,299.8388,0,0,0,0,0,0,0,0,0,0,0,0,0.95931095,0,0.6276546,0,0.9729611,0,0.66583246,0,0.016909145,-0.015134893,0.019750208,-0.013143767,164,6,231,2,0,-1673.0048,302.10458,-3211.897,93.55074,752259.94,555.43854,124.8071,122.771065,129.03914,129.03914,0,1,644.2876,0,0,14.396531,14.396524,0,4,255,0,0,0,1,109,157,0
True,34271281,15999.99,0,12760.723,36.67219,3.0775428,5.589389,-7.7583885,0.010733843,93.46879,-0.0027139783,0.4428193,-0.07381375,-0.8204738,0.09379261,0.0059725703,0.5751756,0.12387888,0.5903825,0.11804457,0.06677559,0.2340964,0.09455012,0.25032726,293.19025,294.89444,294.55872,295.56104,0,0,0,0,0,0,0,0,0,0,0,0,0.59733534,0.7977654,0.6253594,0.89544624,0.60105616,0.83140284,0.6324667,0.92977834,0.037888326,-0.017470608,0.041299514,-0.014857965,164,6,231,2,0,-1681.1869,301.11072,-3205.771,93.79022,752261.1,562.98785,125.52309,122.89519,129.81793,129.81793,0,1,652.44916,0,0,14.506147,14.50614,0,4,255,0,0,0,1,0,166,0
True,34271390,15999.99,0,12790.48,39.849155,2.6093712,5.3785934,-6.7570076,0.13625121,93.65868,-0.04626538,0.19413076,-0.050804645,-0.785481,0.09258174,0.0011214503,0.5300766,0.15936424,0.5424852,0.14702381,0.08014988,0.24151936,0.12165793,0.23157911,293.51938,296.2293,295.18958,296.14807,0,0,0,0,0,0,0,0,0,0,0,0,0.57787645,0.73994863,0.5621912,0.7680605,0.58340824,0.7783673,0.57520396,0.8022131,0.032356203,-0.013117747,0.03560488,-0.011412548,164,6,231,2,0,-1689.3248,300.13657,-3199.0347,93.90221,752253.7,561.5915,126.21125,123.23148,130.63657,130.63657,0,1,661.2057,0,0,14.619218,14.61921,0,4,255,0,0,0,1,0,168,0
True,34271500,15999.99,0,12837.885,26.613731,-2.4048288,4.062772,-4.3592224,-0.14255524,94.044815,-0.04301132,0.004886999,-0.05878919,-0.7779832,0.09301985,-0.005510785,0.3988716,0.114114076,0.42361063,0.11418099,0.08491659,0.20126577,0.15324277,0.23618579,294.27048,296.81555,296.4156,297.5724,0,0,0,0,0,0,0,0,0,0,0,0,0.40184155,0.4857896,0.3954453,0.50628346,0.4107158,0.5258322,0.42409942,0.5586651,0.016261756,-0.01866842,0.021471575,-0.015317315,164,6,231,2,0,-1697.1222,299.16937,-3192.0354,94.1459,752261.06,559.3346,126.63982,123.44101,131.18375,131.18375,-2.9426718,1,669.56946,0,0,14.731167,14.731158,0,4,255,0,0,0,1,0,168,0
True,34271609,15999.99,0,12817.174,20.782299,-0.30670536,3.7145271,-1.0472412,-0.3987813,94.503235,0.0021074675,-0.05641772,-0.072455436,-0.7869065,0.089731224,-0.015322475,0.39503503,0.1441013,0.4541097,0.16806667,0.07320907,0.122545436,0.109748974,0.11655902,294.8286,296.2155,296.11755,296.41922,0,0,0,0,0,0,0,0,0,0,0,0,0.35949928,0.41059268,0.09030246,0.11149781,0.36687776,0.42849007,0.14212449,0.16130024,0.01579114,-0.0149899945,0.02509769,-0.008910708,164,6,231,2,0,-1704.71,298.18692,-3184.7952,94.50988,752256.1,560.5022,126.94043,123.595146,131.52051,131.52051,-0.66821384,1,677.9442,0,0,14.842828,14.84282,0,4,255,0,0,0,1,119,171,0
True,34271718,15999.99,0,12851.854,15.319421,0.42305875,2.9493985,-0.22777939,-0.29409695,94.82817,-0.024625404,0.21795031,-0.047441576,-0.777459,0.09015737,-0.02213061,0.3890309,0.19656421,0.40471706,0.21274768,0.06453954,0.11513138,0.082639635,0.12916528,296.16327,296.3024,297.11972,297.1163,0,0,0,0,0,0,0,0,0,0,0,0,0.46989927,0.5472756,0.040390454,0.05282528,0.47431073,0.5592547,0.09198205,0.13954991,0.015054636,-0.008554559,0.019225273,-0.0035984665,164,6,231,2,0,-1712.2821,297.18713,-3177.276,94.82889,752261.4,558.96954,127.287346,123.82474,131.6347,131.6347,-3.271367,1,686.7305,0,0,14.956029,14.95602,0,4,255,0,0,0,1,119,177,0
True,34271812,15999.99,0,12896.62,17.605206,0.9704745,2.7146907,-1.3902168,-0.16090488,95.024315,0.003334865,0.43635294,-0.023110494,-0.74740684,0.09067024,-0.02257981,0.3604362,0.18423298,0.3918495,0.2129332,0.073011026,0.16962345,0.075484656,0.1585738,297.37595,297.56732,298.09665,297.98547,0,0,0,0,0,0,0,0,0,0,0,0,0.56456363,0.674995,0.16514099,0.19870058,0.56926507,0.6959816,0.181575,0.25421953,0.011547025,-0.010067187,0.017695416,-0.003576409,164,6,231,2,0,-1718.2579,296.3955,-3171.1243,95.034615,752251.75,557.05145,127.63467,124.0575,131.75674,131.75674,-5.8856316,1,693.5721,0,0,15.046747,15.046739,0,4,255,0,0,0,1,121,184,0
True,34271937,15999.99,0,12930.916,25.526499,0.13488507,3.71101,-4.1710243,-0.17325115,95.19708,-0.059393577,0.44087017,0.061173033,-0.68447435,0.09198891,-0.015738502,0.40933046,0.21043733,0.3877103,0.176785,0.05102431,0.12249262,0.07805707,0.18205945,297.9862,297.54514,299.01865,299.18625,0,0,0,0,0,0,0,0,0,0,0,0,0.3000199,0.36959124,0.37912893,0.48973957,0.30432782,0.38936117,0.38708094,0.5224849,0.01754471,-0.0068527944,0.017203297,-0.007874161,164,6,231,2,0,-1726.3467,295.28543,-3162.377,95.288574,752259.56,555.49945,128.11966,124.34987,132.09544,132.09544,-9.356857,1,703.25616,0,0,15.172498,15.172489,0,4,255,0,0,0,1,0,196,0
True,34272046,15999.99,0,12954.99,30.30767,1.3456409,3.8834715,-3.8663826,-0.16624403,95.40549,-0.009293409,0.17751065,0.050230265,-0.6517709,0.089768335,-0.007983526,0.45974475,0.27076477,0.5024195,0.27044034,0.06648489,0.14834298,0.083366245,0.15073298,298.29562,299.35037,299.1848,299.58978,0,0,0,0,0,0,0,0,0,0,0,0,0.33456346,0.39891174,0.3238512,0.42194995,0.3411055,0.425601,0.3344092,0.44806492,0.023728848,0.0005473532,0.030841365,0.0032607615,164,6,231,2,0,-1732.9281,294.3572,-3154.709,95.48395,752261,554.48206,128.45444,124.494156,132.58487,132.58487,0,1,711.31384,0,0,15.278892,15.278883,0,4,255,0,0,0,1,0,206,0
True,34272140,15999.99,0,13007.006,21.801273,-2.4954247,3.2565565,-2.1955986,-0.2239747,95.71065,0.046074446,-0.029959692,-0.051918793,-0.64614236,0.09243005,-0.009169731,0.44330806,0.2770146,0.48449117,0.29918545,0.09602348,0.144325,0.119053826,0.15721872,299.24567,300.3303,300.33014,301.10263,0,0,0,0,0,0,0,0,0,0,0,0,0.34378254,0.36040384,0.19535942,0.2425977,0.35694107,0.38822755,0.22877744,0.28908715,0.021712616,0.0013139993,0.028709821,0.0066783465,164,6,231,2,0,-1739.1692,293.43634,-3146.9817,95.736084,752252.9,552.2698,128.66034,124.57234,132.875,132.875,0,1,719.37634,0,0,15.38324,15.383232,0,4,255,0,0,0,1,57,219,0
True,34272265,15999.99,0,13055.729,16.34692,0.9731594,2.607685,-1.2926025,-0.080673695,96.02616,0.1003143,0.13514684,-0.04697379,-0.63376254,0.090899535,-0.0067439177,0.39891803,0.3033695,0.46230674,0.36705062,0.10345127,0.19268076,0.11391224,0.15474324,300.80887,302.18408,301.40707,301.6453,0,0,0,0,0,0,0,0,0,0,0,0,0.11934639,0.12888391,0.13450307,0.1632165,0.15794216,0.2318123,0.17625853,0.2249113,0.016267452,0.0045468584,0.026072256,0.014747009,164,6,231,2,0,-1746.1455,292.3806,-3137.9246,96.03489,752261,550.4531,128.9727,124.79522,133.09781,133.09781,0,1,728.47516,0,0,15.502955,15.502948,0,4,255,0,0,0,1,0,237,0
True,34272375,15999.99,0,12460.141,11.795657,-0.6369052,-2.389158,-1.0943756,-0.274518,95.799736,0.06709327,-0.0060085934,0.009002991,-0.62439597,0.090924464,-0.0027126772,0.31492156,0.24914359,0.30533955,0.24439763,-0.4242519,-0.8747617,-0.110248856,-0.13049151,283.9952,272.33047,293.1599,292.7437,0,0,0,0,0,0,0,0,0,0,0,0,0.117806986,0.12887183,0.10148006,0.11050034,0.44030464,0.88420355,0.14984329,0.17099229,0.0059639104,-0.0021048374,0.0074100196,0.00016447902,164,6,231,2,0,-1752.1504,291.44064,-3129.8877,95.80637,752251.25,574.80023,129.0401,124.85799,133.19714,133.19714,0,1,736.47064,0,0,15.607781,15.607774,0,4,255,255,0,0,1,0,0,129
True,34272484,15999.99,0,11086.58,3.1657028,-9.61595,-13.152301,-0.3352394,0.07967901,94.21717,0.08931809,-0.05389466,0.013891634,-0.63051075,0.10651622,-0.0040666573,0.19766286,0.18898125,0.17863828,0.14897822,-1.2125094,-1.1169584,-1.4520941,-1.3918175,256.0704,258.54477,255.35786,255.34859,0,0,0,0,0,0,0,0,0,0,0,0,0.042762984,0.043070804,0.027790075,0.034773402,1.2132633,1.1177886,1.4523599,1.3922517,-0.008419793,-0.009484734,-0.0076538213,-0.011180183,164,6,231,2,0,-1757.9218,290.4668,-3122.0461,94.217804,752265.3,649.81384,131.51091,127.56314,133.30939,133.30939,-1.0345354,1,744.1959,0,0,15.710694,15.710685,0,3,255,255,0,0,1,0,23,129
True,34272593,15999.99,0,12354.244,0.09078884,-11.149616,-14.672301,0.25411987,0.22967625,92.32199,0.06285907,-0.04780022,0.049345616,-0.6370204,0.122419156,-0.0019782123,0.11374018,0.16962793,0.09314676,0.09628534,-0.07338567,-0.06033149,-0.07931428,-0.06272963,284.8237,285.27365,285.35532,285.5636,0,0,0,0,0,0,0,0,0,0,0,0,-0.021570489,-0.021904822,-0.04598016,-0.0259509,0.07649015,0.06418497,0.0916784,0.0678856,-0.018714285,-0.011858735,-0.01781813,-0.017444976,164,6,231,2,0,-1764.5404,289.2011,-3113.0442,92.32264,752254.7,583.5142,134.64087,130.35129,133.8268,133.8268,-4.31077,1,753.05554,0,0,15.831477,15.831468,0,3,255,0,0,0,1,0,49,0
True,34272703,15999.99,0,12616.476,-1.6503091,-7.99113,-0.079066396,0.30473328,-0.22427845,92.60205,0.015316315,-0.009944903,0.061457306,-0.639907,0.12523466,0.0027482954,0.07195506,0.14620474,0.069838986,0.11102179,0.1450956,0.113712594,0.18582748,0.17897126,290.70636,290.09036,291.93262,291.86252,0,0,0,0,0,0,0,0,0,0,0,0,-0.034991115,-0.033471756,-0.051418364,-0.02925174,0.14925519,0.11853655,0.19281001,0.18134601,-0.023839915,-0.014731973,-0.020589251,-0.015692921,164,6,231,2,0,-1770.143,288.02844,-3105.4475,92.60283,752256.4,569.38837,134.31645,130.07303,133.7858,133.7858,-8.5996895,1,760.5568,0,0,15.934389,15.934381,0,3,255,0,0,0,1,0,72,0
True,34272812,15999.99,0,12624.539,1.581689,-3.0698316,3.4417276,-0.013462067,-0.6171346,93.08614,0.03891635,0.14872056,0.19124669,-0.6354141,0.12403724,0.018080408,0.07897306,0.18939918,0.1679742,0.28424087,0.08116138,0.13228802,0.09620034,0.12061726,291.06323,291.5673,291.73764,291.63974,0,0,0,0,0,0,0,0,0,0,0,0,0.2914796,0.3249233,0.008611234,0.012665505,0.3025682,0.35082087,0.09658498,0.12128042,-0.022979042,-0.009433467,-0.008921701,0.004901547,164,6,231,2,0,-1776.6378,286.6089,-3096.6733,93.088196,752258.2,569.09845,134.03302,129.83994,133.79955,133.79955,-14.7,1,769.2351,0,0,16.052925,16.052917,0,3,255,0,0,0,1,105,99,0
True,34272921,15999.99,0,12704.701,10.14405,-3.5206923,3.2602777,-1.453537,-0.51719475,93.3734,0.10130859,0.32911265,0.2117424,-0.6074443,0.12828107,0.0387002,0.101113886,0.15624377,0.20418602,0.21124484,0,0.17402282,0.07280402,0.15469837,296.47903,292.62427,292.71835,292.86346,0,0,0,0,0,0,0,0,0,0,0,0,0,0.633791,0.15261082,0.18951151,0,0.6572481,0.16908722,0.24463484,-0.020263107,-0.013500525,-0.0046163835,-0.0037771426,164,6,231,2,0,-1782.1986,285.34985,-3089.04,93.38614,752250.1,565.6402,133.91072,129.76141,133.8487,133.8487,-14.7,1,776.75385,0,0,16.155102,16.155092,0,3,255,0,0,0,1,107,121,0
True,34273031,15999.99,0,12730.022,18.681103,-0.40063316,3.0243163,-2.886814,0.0019721985,93.57041,-0.024367556,0.40109152,0.3061988,-0.5708356,0.13119362,0.07143298,0.21088211,0.39840597,0.11600413,0.24624886,0.18158069,0.14163686,0.12627587,0.12440462,294.97906,292.72092,294.6574,293.48544,0,0,0,0,0,0,0,0,0.120000005,0,0.120000005,0,0.57662094,0.6904758,0.24495403,0.33322373,0.6045356,0.7048531,0.27558678,0.35568884,-0.006798234,0.01620464,-0.015100557,0.00038457662,164,6,231,2,0,-1787.7168,284.04605,-3081.2048,93.61492,752261.5,563.53076,133.89087,129.87785,133.92188,133.92188,-6.95617,1,784.4595,0,0,16.258549,16.25854,0,3,255,0,0,0,1,107,127,0
True,34273140,15999.99,0,12435.57,28.68909,4.124723,0.45449543,-4.3355637,-0.08500862,93.28924,-0.08824487,0.5426541,0.26913053,-0.52050084,0.11862888,0.1064278,0.5549632,0.26097924,0.46503437,0.20418216,-0.087485895,-0.10573999,-0.066479966,0.0018590147,286.44098,285.3436,288.23245,287.56192,0,0,0,0,0,0,0,0,0.120000005,0.120000005,0.120000005,0.120000005,0.72775257,0.5556403,0.48415852,0.6295185,0.73299223,0.5656121,0.48870137,0.62952125,0.035408944,-0.0006530024,0.02639655,-0.0046168417,164,6,231,2,0,-1793.1345,282.774,-3073.0002,93.38997,752260.8,577.74963,134.21689,129.97635,134.11922,134.11922,-8.46866,1,792.32275,0,0,16.364529,16.364517,0,2,255,103,0,0,1,98,127,205
True,34273250,15999.99,0,12536.276,33.993378,2.9601603,-1.7289839,-5.464958,0.2133441,92.51698,-0.044473857,0.3872737,0.1360507,-0.46666193,0.10969002,0.12960495,0.58533645,0.17049444,0.4593506,0.20378286,0.03345427,0.22472063,0.040081643,0.10350897,289.01266,290.5357,288.84122,289.92142,0,0,0,0,0,0,0,0,0.120000005,0.120000005,0.120000005,0.120000005,0.42695138,0.47618568,0.46070665,0.5880457,0.42826006,0.52654743,0.46244693,0.5970862,0.039134726,-0.011752447,0.02572079,-0.004664317,164,6,231,2,0,-1798.4442,281.5497,-3064.2769,92.6785,433341.5,329.88995,134.30606,130.07394,134.51286,134.51286,-6.997991,1,800.79987,0,0,16.475262,16.475248,0,2,98,0,0,0,1,0,127,0
True,34273359,15999.99,0,12389.444,18.464573,2.0267122,-1.1930323,-6.3576202,-0.046714306,92.17578,-0.10610375,0.1818087,-0.011966903,-0.4341775,0.10081548,0.13253865,0.50726825,0.2973064,0.37664598,0.2989997,0.006339082,0.001206929,0.00851857,0.007347869,286.84265,285.9334,286.4288,285.5466,0,0,0,0,0,0,0,0,0.120000005,0,0.120000005,0,-0.16220443,-0.2354247,0.68046,0.6839808,0.16232824,0.23542778,0.6805133,0.6840203,0.029558383,0.003803119,0.01588783,0.006656263,164,6,231,2,0,-1803.4141,280.4097,-3055.3882,92.394775,-54407.74,-41.92453,134.46867,130.10422,134.81021,134.81021,-5.8769007,1,808.9278,0,0,16.585987,16.585974,0,2,0,0,0,0,1,-127,127,0
True,34273484,15999.99,0,11635.389,6.1147394,1.0098497,-19.629673,-5.623932,-0.031144857,89.849556,-0.026579063,-0.12733142,-0.119725704,-0.43202397,0.09907163,0.11950143,0.5155785,0.2552391,0.2966855,0.2811164,-0.32843214,-0.44511646,-0.18679188,-0.4840761,268.39194,266.04785,273.58316,265.45996,0,0,0,0,0,0,0,0,0,0,0,0,-0.23146465,-0.20681022,0.53467333,0.53317297,0.4018004,0.49081478,0.56636274,0.720141,0.030577771,-0.0013571233,0.0063811205,0.0045300648,164,6,231,2,0,-1808.8716,279.1709,-3045.313,90.0254,-121606.62,-100,134.61699,130.08463,135.03975,135.03975,0,1,818.32465,0,0,16.711834,16.711823,0,2,0,255,0,0,1,-127,113,129
True,34273593,15999.99,0,11087.314,0.64426136,1.5018297,-31.629353,-2.992508,0.5438721,86.42981,0.01001009,-0.38378507,-0.12342135,-0.45911884,0.10637102,0.10508692,0.45956126,0.33504975,0.36474386,0.24956374,-0.4556103,-0.4121969,-0.5321947,-0.35904667,253.69235,256.6894,253.66547,259.38272,0,0,0,0,0,0,0,0,0,0,0,0,-0.45200038,-0.40879297,0.29935572,0.2872015,0.64178276,0.5805325,0.61061037,0.45978168,0.02370634,0.008432962,0.014472757,0.00077869,164,6,231,2,0,-1813.2826,278.19516,-3037.0942,86.48331,-116147.14,-100,134.82437,130.30266,135.32288,135.32288,-10.485149,1,825.7091,0,0,16.818142,16.81813,0,2,0,255,0,0,1,-127,87,129
True,34273703,15999.99,0,10735.891,-11.587833,0.5538353,-25.780317,0.402874,0.6184547,83.65899,-0.058423493,-0.63917166,-0.13148856,-0.5137644,0.111537874,0.08678285,0.41746002,0.40545863,0.25620872,0.2104691,-0.3099683,-0.38368073,-0.7398475,-0.17859827,245.65662,248.54863,240.68121,256.10513,0,0,0,0,0,0,0,0,0,0,0,0,-0.79429203,-0.67302275,-0.13622512,-0.11721967,0.85263133,0.7747067,0.7522843,0.21363004,0.018541932,0.017069764,0.0015687309,-0.0038693734,164,6,231,2,0,-1817.5815,277.2664,-3029.2344,83.66225,-112732.64,-100,135.07925,130.66075,135.42477,135.42477,-14.7,1,832.9499,0,0,16.924238,16.924227,0,2,0,255,0,0,1,-127,58,129
True,34273796,15999.99,0,10277.774,-23.878546,1.8210087,-22.811872,4.042206,0.6488192,80.810905,0.035848044,-0.74654245,-0.029390313,-0.59173614,0.11374474,0.06705625,0.35454804,0.47363767,0.23849103,0.33833215,-0.40251657,-0.117596805,-1.0403949,-0.29914004,238.11368,247.39735,224.72177,244.16273,0,0,0,0,0,0,0,0,0,0,0,0,-1.3599362,-1.1125504,-0.66304594,-0.55103904,1.4182546,1.1187481,1.2337145,0.62699986,0.010824747,0.025433041,-0.00053777173,0.011332594,164,6,231,2,0,-1821.987,276.36832,-3021.6528,80.91454,47971.066,44.454933,135.84796,131.58237,135.60663,135.60663,-14.7,1,839.8632,0,0,17.031605,17.031595,0,2,95,255,0,0,1,-127,29,129
True,34273921,15999.99,0,10863.064,-31.904308,2.205807,-4.8034687,8.335468,0.4475739,79.33064,-0.11894229,-0.8188304,-0.056897953,-0.69271034,0.11518665,0.04959852,0.31417924,0.5689055,0.160772,0.36952695,0.45708856,0.14175338,0.3051591,0.09858314,251.12627,249.30412,251.26047,251.21013,0,0,0,0,0,0,0,0,0,0,0,0,-1.9509274,-1.4431313,-1.1546297,-0.88023555,2.0037584,1.4500766,1.1942747,0.88573885,0.005872853,0.037119195,-0.009777989,0.01504143,164,6,231,2,0,-1827.308,275.32248,-3013.207,79.76861,585725.44,515.0418,138.655,135.43306,136.11604,136.11604,-14.7,1,847.77576,0,0,17.156898,17.156887,0,2,255,0,0,0,1,-127,255,0
True,34274046,15999.99,0,10959.742,-28.009693,0.1543867,3.0336018,11.884457,0.2746985,78.754135,-0.06827895,-0.72649527,-0.011544757,-0.7825346,0.11664504,0.0393606,0.24710514,0.48935857,0.20482673,0.44109765,0.64578867,0.31827214,0.5168855,0.25408012,253.0584,250.74582,254.12134,253.40504,0,0,0,0,0,0,0,0,0,0,0,0,-2.2907276,-1.8890295,-1.632622,-1.2584424,2.380016,1.9156538,1.7124909,1.2838356,-0.0023548864,0.027361467,-0.0045402087,0.023550652,164,6,231,2,0,-1832.9612,274.28635,-3005.1365,79.64627,574981.5,500.75516,143.76746,141.7312,138.24585,138.24585,0,1,855.5778,0,0,17.281221,17.281208,0,2,255,0,0,0,1,-127,228,0
True,34274156,15999.99,0,10912.262,-30.977055,2.3988547,4.074464,13.85606,0.20715857,78.190765,-0.005387119,-0.5695745,0.039514806,-0.85109985,0.1142523,0.033602744,0.23947674,0.5250283,0.23498835,0.52946997,0.82980233,0.39580774,0.50551057,0.2932051,253.77742,249.33507,252.54153,251.9797,0,0,0,0,0,0,0,0,0,0,0,0,-2.7531824,-2.303284,-1.8707982,-1.5282286,2.8755147,2.3370452,1.9378924,1.5561016,-0.0032906346,0.03173694,-0.0009542145,0.03405747,164,6,231,2,0,-1837.9312,273.43167,-2998.6702,79.40925,518914.22,454.09192,149.50797,149.76144,141.71521,141.71521,0,1,861.9594,0,0,17.384338,17.384327,0,2,255,0,0,0,1,-127,210,0
True,34274265,15999.99,0,10869.265,-25.957336,-0.31860113,3.558525,15.210045,0.29211473,77.674835,0.016050916,-0.41925782,0.054926224,-0.90686667,0.11962532,0.032999378,0.20290162,0.47824967,0.22062467,0.4665611,0.9068772,0.41573197,0.52955925,0.3333521,253.2751,247.63771,251.65775,250.99315,0,0,0,0,0,0,0,0,0,0,0,0,-3.0373576,-2.3972528,-2.0358436,-1.6569537,3.169853,2.433034,2.1035903,1.6901536,-0.007777173,0.025998779,-0.002661951,0.026578069,164,6,231,2,0,-1843.879,272.44437,-2991.5203,79.150566,479827.28,421.47397,156.9202,159.01382,146.16953,146.16953,-10.1048565,1,869.34656,0,0,17.502312,17.5023,0,2,255,0,0,0,1,-127,190,0
True,34274375,15999.99,0,10802.5625,-27.708984,1.2354231,3.4855385,15.448063,0.27719307,77.340256,-0.04092395,-0.373493,-0.0002518352,-0.94699764,0.11973177,0.031076636,0.2592704,0.48932242,0.21463813,0.46145862,0.8092287,0.4397681,0.4993896,0.3090124,250.70953,246.88708,250.2007,249.4965,0,0,0,0,0,0,0,0,0,0,0,0,-3.0123158,-2.4568827,-2.0291114,-1.6311656,3.119118,2.4959304,2.089661,1.6601777,-0.00086261705,0.027357034,-0.0033737049,0.02597142,164,6,231,2,0,-1849.2119,271.578,-2985.5706,78.86846,513711.72,454.03406,164.01576,167.83893,150.20453,150.20453,0,1,875.5294,0,0,17.604036,17.604023,0,2,255,0,0,0,1,-127,176,0
True,34274500,15999.99,0,10751.7,-28.90992,1.8795205,3.3065004,14.726942,0.24612331,77.133286,-0.053419802,-0.27228415,-0.0011126101,-0.9828937,0.11825101,0.029711936,0.25306985,0.50320154,0.22810581,0.5127175,0.7169586,0.4293998,0.48040894,0.28762195,249.07042,245.88976,249.24873,248.25446,0,0,0,0,0,0,0,0,0,0,0,0,-2.815423,-2.4020917,-1.9628092,-1.4841461,2.9052775,2.4401698,2.0207455,1.5117593,-0.001623217,0.029059537,-0.0017724968,0.03206572,164,6,231,2,0,-1855.7397,270.56412,-2978.8555,78.52697,544626.9,483.60843,171.43796,178.19762,154.84445,154.84445,0,1,882.9844,0,0,17.723753,17.723738,0,2,255,0,0,0,1,-127,162,0
True,34274609,15999.99,0,10787.369,-25.426098,-0.9004988,2.8846388,13.43133,0.25245452,77.153534,0.015852299,-0.12424697,0.045253843,-0.999909,0.12030557,0.029457888,0.21728839,0.45601448,0.23977585,0.46009436,0.825135,0.4071579,0.5181883,0.3803742,251.1439,245.32634,250.05034,249.17468,0,0,0,0,0,0,0,0,0,0,0,0,-2.8335764,-2.2532358,-1.8515083,-1.550213,2.9512715,2.289727,1.922655,1.596197,-0.0060123987,0.02327127,-0.0003850162,0.025809221,164,6,231,2,0,-1861.5027,269.70123,-2973.3855,78.314316,495859.66,438.91592,176.55348,184.83336,157.83617,157.83617,-0.4752102,1,889.3277,0,0,17.82569,17.825672,0,2,255,0,0,0,1,-127,152,0
True,34274718,15999.99,0,10716.483,-30.078789,1.9923716,3.3729973,11.245028,0.18579113,77.34511,-0.017169232,-0.0513754,-0.019117612,-1.013281,0.11662853,0.02764529,0.23959236,0.4914662,0.23496547,0.46642098,0.75772226,0.32163623,0.3530005,0.25457403,250.7183,244.3567,247.85387,247.08089,0,0,0,0,0,0,0,0,0,0,0,0,-2.6765065,-1.9751298,-1.4289498,-1.1724993,2.7816956,2.0011466,1.4719058,1.1998177,-0.0032764524,0.027620003,-0.00095693395,0.02656141,164,6,231,2,0,-1867.626,268.79904,-2967.9753,78.15849,610047,543.6298,181.43274,190.84515,159.87262,159.87262,0,1,895.5987,0,0,17.930779,17.930765,0,2,255,0,0,0,1,-127,145,0
True,34274812,15999.99,0,10788.039,-25.28776,-1.1170161,3.1296167,8.581284,0.0351969,77.6529,0.0039772224,0.002302051,-0.0046046986,-1.0131221,0.118249044,0.03324664,0.20169273,0.41668952,0.22467038,0.18803537,0.5995001,0.40063837,0.27423844,0.5371696,249.70374,246.6484,247.37453,251.9621,0,0,0,0,0,0,0,0,0,0,0,0.120000005,-2.1375253,-1.8558261,-1.1468264,-1.3106594,2.2200034,1.8985789,1.1791596,1.4164671,-0.007925462,0.018447418,-0.0021809451,-0.006536577,164,6,231,2,0,-1874.137,267.86298,-2962.662,78.12561,597864.3,529.90784,183.93823,194.51158,160.4595,160.4595,0,1,902.31445,0,0,18.039017,18.039003,0,2,255,0,0,0,1,-127,139,0
True,34274937,15999.99,0,10749.494,-28.892776,0.2926638,3.6583586,5.139786,-0.54546416,78.11156,-0.03334042,0.021703461,-0.15730543,-1.0138069,0.1094492,0.021308519,0.19819924,0.28077784,0.29633206,0.3573286,0.72547364,0.16476573,0.21082506,0.22180589,254.28761,244.3834,248.88023,246.4591,0,0,0,0,0,0,0,0,0,0.120000005,0,0.120000005,-1.8653547,-1.009278,-0.6461786,-0.46207216,2.0014644,1.0226387,0.6797014,0.512551,-0.008353997,0.0017756224,0.0063390955,0.013591133,164,6,231,2,0,-1881.7333,266.76837,-2956.9355,78.28237,659923.2,585.1996,185.1113,195.12018,159.69823,159.69823,0,1,909.6309,0,0,18.161497,18.161486,0,2,255,0,0,0,1,-127,135,0
True,34275031,15999.99,0,10735.106,-25.153032,-0.5060829,4.53218,2.2864075,-0.24217653,78.58452,-0.0986645,-0.040440384,-0.090718694,-1.0100598,0.11323501,0.014889941,0.2487892,0.44631284,0.29186437,0.38271192,0.36244756,0.08688415,0.2000918,0.1797792,249.7726,244.84177,247.40208,249.10718,0,0,0,0,0,0,0,0,0,0.120000005,0,0.120000005,-1.258554,-0.83816993,-0.29302508,-0.338318,1.3097047,0.8426611,0.35482448,0.3831183,-0.0021483079,0.022081204,0.0058079213,0.016609024,164,6,231,2,0,-1888.34,265.8373,-2952.3545,78.61814,752262.8,669.6501,184.6062,192.61888,158.75664,158.75664,0,1,916.0617,0,0,18.264683,18.264671,0,2,255,0,0,0,1,-127,133,0
True,34275156,15999.99,0,10769.481,-20.580875,1.7976308,4.61897,0.8479767,-0.06584525,79.07619,0.022818908,-0.1637833,0.048760727,-1.0210047,0.11326161,0.016186338,0.2763805,0.45612377,0.29143167,0.56205237,0.18661651,0.25937328,0.13730873,0.13401116,247.78409,250.36848,247.89136,249.15076,0,0,0,0,0,0,0,0,0,0.120000005,0,0.120000005,-0.938827,-1.0644674,-0.12982216,-0.115995966,0.9571948,1.0956118,0.18896423,0.1772401,0.001236219,0.023284674,0.0057564788,0.03793127,164,6,231,2,0,-1896.0001,264.78604,-2947.3975,79.08076,752742.25,667.9788,182.60803,189.6215,157.68024,157.68024,0,1,923.35974,0,0,18.381176,18.381165,0,2,255,0,0,0,1,-127,134,0
True,34275265,15999.99,0,10891.6875,-18.596958,-0.045587182,3.9959178,1.1860275,-0.016067386,79.47894,-0.069788,-0.3448937,0.07792602,-1.052354,0.11472754,0.020610465,0.237486,0.51734173,0.25453883,0.43626225,0.2907646,0.13871944,0.2829219,0.23274338,251.51144,250.43898,253.82877,249.85669,0,0,0,0,0,0,0,0,0,0.120000005,0,0.120000005,-1.0424701,-1.1352847,-0.2056028,-0.14518942,1.0822606,1.1437283,0.34973893,0.27431634,-0.003534831,0.030794054,0.0013701916,0.022975758,164,6,231,2,0,-1903.7894,263.74252,-2942.657,79.48779,752256.44,658.33344,180.32172,186.8171,156.65396,156.65396,0,1,930.4369,0,0,18.496927,18.496918,0,2,255,0,0,0,1,-127,135,0
True,34275375,15999.99,0,10956.154,-16.354038,-2.2209558,4.6224813,2.3290482,-0.14034843,79.839676,0.068282045,-0.3295394,-0.047000594,-1.0861484,0.11770448,0.0145593695,0.2060944,0.34178764,0.22733004,0.43754458,0.40321195,0.21234469,0.25296003,0.19848655,254.07097,251.06537,252.85194,253.69858,0,0,0,0,0,0,0,0,0,0.120000005,0,0.120000005,-1.1372013,-0.6741169,-0.3505988,-0.3595783,1.2065681,0.70677,0.43232894,0.4107231,-0.007385526,0.0092594735,-0.0018647313,0.023128219,164,6,231,2,0,-1910.7395,262.79706,-2938.6345,79.87377,737420.2,642.66156,178.7053,184.38704,155.86656,155.86656,0,1,936.86084,0,0,18.598417,18.598408,0,2,255,0,0,0,1,-21,137,0
True,34275484,15999.99,0,10960.806,-19.411173,-2.7429543,5.7196693,2.5995483,-0.35549676,80.39804,0.0048175305,-0.16394325,0.06112925,-1.1200151,0.11918287,0.019464377,0.12769075,0.40393728,0.17648524,0.47097602,0.17724195,0.08682504,0.22312926,0.13532765,252.84363,251.86734,253.77199,253.33958,0,0,0,0,0,0,0,0,0,0,0,0,-0.31314376,-0.2724204,-0.3669933,-0.29471713,0.35982457,0.28592214,0.42950058,0.32430196,-0.017003018,0.016883146,-0.007909801,0.02710297,164,6,231,2,0,-1919.0538,261.65207,-2934.1157,80.44084,752264.75,655.3108,176.37372,181.79337,155.04324,155.04324,0,1,944.3739,0,0,18.717367,18.717356,0,2,255,0,0,0,1,0,144,0
True,34275593,15999.99,0,11010.677,-15.592744,-2.839926,5.450536,1.3682461,-0.3872769,80.92376,0.045203086,0.068076156,0.11112454,-1.1239997,0.12217562,0.026113596,0.11239064,0.34683508,0.16590871,0.4382192,0.13081159,0.10648226,0.16325723,0.15323898,253.95938,253.271,254.78705,254.51128,0,0,0,0,0,0,0,0,0,0,0,0,0.25473678,0.25936186,-0.16868626,-0.14654814,0.28636077,0.2803695,0.23475088,0.21203429,-0.018879829,0.009878624,-0.009167273,0.023208424,164,6,231,2,0,-1926.1619,260.65463,-2930.492,80.93625,752314.4,652.527,174.43307,179.58067,154.35779,154.35779,0,1,950.75085,0,0,18.817013,18.817003,0,2,255,0,0,0,1,72,154,0
True,34275703,15999.99,0,11053.743,2.884386,-0.8409604,4.8510647,0.36378098,-0.41539103,81.43078,-0.0065832846,0.3210499,0.1411746,-1.1034453,0.12219255,0.043034717,0.18439369,0.28071925,0.24218127,0.33527902,0.08271318,0.15628894,0.08690881,0.14123793,255.07959,255.039,255.56781,255.23344,0,0,0,0,0,0,0,0,0,0,0,0,0.45954284,0.5322674,-0.005036498,-0.0029402836,0.4669273,0.55473846,0.087054625,0.14126854,-0.010047473,0.0017684363,-9.902939E-05,0.010969605,164,6,231,2,0,-1933.579,259.59146,-2926.7498,81.432655,752265.4,649.95715,172.68408,177.45483,153.67953,153.67953,0,1,957.41437,0,0,18.920164,18.920156,0,2,255,0,0,0,1,127,165,0
True,34275812,15999.99,0,11200.676,10.492462,-3.0920963,4.7297916,-2.109047,-0.3059538,81.93408,0.066929445,0.33336306,0.035497863,-1.0542654,0.12384691,0.05960943,0.22032754,0.19086365,0.28358826,0.2739758,0.09322949,0.20442377,0.17333755,0.28817955,257.0983,257.59045,259.10266,259.68408,0,0,0,0,0,0,0,0,0,0,0,0,0.18548918,0.20760252,0.29401368,0.328764,0.20760052,0.29135525,0.34130624,0.43718782,-0.005639598,-0.009253826,0.004823953,0.003681101,164,6,231,2,0,-1942.3685,258.32715,-2922.151,81.96179,752250.56,641.4453,170.77019,175.06927,152.97592,152.97592,0,1,965.34753,0,0,19.042568,19.042559,0,2,255,0,0,0,1,0,176,0
True,34275921,15999.99,0,11196.56,18.930117,0.79594415,5.3945413,-1.9693947,-0.3287953,82.434044,0.010966582,0.10677674,0.026789967,-1.0308383,0.12066477,0.06849466,0.31819856,0.20062654,0.35646912,0.23282194,0.07366747,0.19395792,0.086735904,0.13169609,257.73444,259.68994,258.38675,258.62756,0,0,0,0,0,0,0,0,0,0,0,0,0.20804812,0.24717796,0.20907658,0.2467924,0.2207055,0.314192,0.226354,0.27973264,0.006365888,-0.0080562495,0.013488948,-0.0012117848,164,6,231,2,0,-1949.7201,257.2445,-2918.1025,82.45822,752253.56,641.75653,169.25362,173.15793,152.56723,152.56723,-6.476823,1,972.0828,0,0,19.145475,19.145468,0,2,255,0,0,0,1,0,182,0
True,34276046,15999.99,0,11291.367,12.567762,-2.4146261,4.887711,-0.8603401,-0.31497216,83.01171,0.04107421,0.08687711,-0.030024238,-1.0257462,0.12438741,0.065920115,0.27148855,0.14433281,0.33852547,0.19479908,0.09258711,0.17203818,0.1283597,0.16522641,259.73032,260.92935,260.87955,261.13245,0,0,0,0,0,0,0,0,0,0,0,0,0.29731005,0.33317918,0.10861573,0.1206333,0.31139305,0.37497398,0.16814753,0.20457801,0.000636138,-0.014961598,0.011355579,-0.005732421,164,6,231,2,0,-1958.3146,255.97368,-2913.1062,83.01677,752255.6,636.3048,167.53316,171.03088,152.02151,152.02151,-14.30346,1,980.04535,0,0,19.266602,19.266592,0,2,255,0,0,0,1,45,186,0
True,34276140,15999.99,0,11323.349,8.154192,-0.778068,5.0398307,-0.5535431,-0.37697756,83.53122,0.016497483,-0.002131551,-0.049575135,-1.0201848,0.12435042,0.060751695,0.29974127,0.16415682,0.35550752,0.21133113,0.096681155,0.10261163,0.09032397,0.10081844,261.31845,261.44003,261.5184,261.6346,0,0,0,0,0,0,0,0,0,0,0,0,0.06912208,0.071389444,0.057885792,0.06440356,0.1188491,0.1250024,0.107280865,0.11963351,0.004101798,-0.012529859,0.013374623,-0.0037668832,164,6,231,2,0,-1965.6342,254.86287,-2908.7185,83.5339,752259.8,634.50244,166.12674,169.33047,151.54446,151.54446,-14.7,1,986.88354,0,0,19.36993,19.36992,0,2,255,0,0,0,1,0,187,0
True,34276265,15999.99,0,11408.886,2.917441,-1.5267117,4.7823277,-0.08371353,-0.3591692,84.08109,0.054539476,-0.0256346,-0.079920895,-1.0223141,0.12702914,0.05414352,0.27666488,0.16412415,0.33199093,0.23676848,0.10683537,0.11684575,0.11136053,0.11142724,263.11627,263.43893,263.5538,263.63348,0,0,0,0,0,0,0,0,0,0,0,0,0.016776495,0.018773062,0.007335372,0.009575016,0.10814457,0.11834423,0.11160186,0.11183788,0.0012710989,-0.012533868,0.01057867,-0.00074256957,164,6,231,2,0,-1973.8204,253.60794,-2903.7388,84.0819,752253.94,629.7144,164.6018,167.52046,151.01881,151.01881,-14.7,1,994.57623,0,0,19.485231,19.485218,0,2,255,0,0,0,1,0,188,0
True,34276359,15999.99,0,11455.524,0.29100823,0.024787933,4.7476106,0.059108734,-0.37363088,84.57329,-0.012061678,-0.011571666,-0.09727469,-1.0242286,0.12728274,0.045359716,0.31398717,0.18313996,0.29486066,0.22930169,0.067849666,0.08251465,0.09550022,0.09054093,263.94754,264.33936,264.8056,264.76434,0,0,0,0,0,0,0,0,0,0,0,0,-0.002325996,-0.0011492453,-0.0050786664,-0.0044969893,0.06788953,0.08252265,0.09563517,0.09065254,0.0058492906,-0.010201264,0.006164156,-0.0016303174,164,6,231,2,0,-1981.0419,252.4828,-2899.3337,84.574135,752264.2,627.18207,163.34973,166.04846,150.58131,150.58131,-14.7,1,1001.3569,0,0,19.586416,19.586403,0,2,255,0,0,0,1,0,189,0
True,34276484,15999.99,0,11532.6875,-0.43514574,-0.007911243,4.702078,0.063438416,-0.35655296,85.12843,-0.014372825,0.015805822,-0.014649398,-1.024878,0.12797374,0.039046034,0.23272729,0.19423859,0.27054197,0.23842937,0.07452902,0.078611344,0.095427796,0.09763366,265.8718,265.92728,266.58243,266.57962,0,0,0,0,0,0,0,0,0,0,0,0,0.12154994,0.12523162,-0.0041768975,-0.0039842585,0.14257967,0.14786042,0.09551916,0.09771492,-0.0041185655,-0.0088398345,0.00327285,-0.0005451031,164,6,231,2,0,-1989.6068,251.14949,-2894.1182,85.129196,752262.2,622.95795,161.9679,164.42555,150.10112,150.10112,0,1,1009.4054,0,0,19.705635,19.70562,0,2,255,0,0,0,1,11,190,0
True,34276593,15999.99,0,11616.384,5.745907,-2.0244067,4.446844,-0.4626999,-0.34418297,85.55916,0.017592298,0.22923484,0.019260738,-1.0113119,0.1299194,0.041968666,0.26054975,0.21900046,0.29132125,0.23939544,0.075175814,0.11799523,0.10621624,0.15549718,267.7827,267.476,268.66162,268.586,0,0,0,0,0,0,0,0,0,0,0,0,0.010228171,0.012076079,0.07594565,0.0820499,0.07586843,0.11861158,0.13057424,0.17581683,-0.00070568547,-0.0058023855,0.005743351,-0.00043024495,164,6,231,2,0,-1996.8008,250.02245,-2889.7073,85.561104,752252.3,618.3783,160.95786,163.1973,149.7399,149.7399,0,1,1016.1704,0,0,19.805386,19.805368,0,2,255,0,0,0,1,0,191,0
True,34276687,15999.99,0,11645.86,7.641619,0.7952136,4.786075,-0.8055496,-0.32591403,86.02603,-0.06014632,0.05756723,0.020887457,-0.99807936,0.12829828,0.045673817,0.34639367,0.28747445,0.34293285,0.29200017,0.053136937,0.06644717,0.0796355,0.09695195,268.4113,268.39594,269.24387,269.264,0,0,0,0,0,0,0,0,0,0,0,0,0.07337232,0.07814041,0.08491496,0.09256371,0.09059267,0.10257266,0.11641462,0.13404372,0.009824481,0.0025970712,0.011879589,0.0058240704,164,6,231,2,0,-2004.0392,248.8719,-2885.184,86.03042,752263.6,616.85876,159.9813,162.01186,149.44174,149.44174,0,1,1023.0163,0,0,19.90576,19.905745,0,2,255,0,0,0,1,0,191,0
True,34276812,15999.99,0,11781.359,4.320562,-3.4971433,4.0901213,-0.31753922,-0.24592006,86.45651,0.03182462,-0.020994328,-0.0011878023,-0.9981569,0.132387,0.04606055,0.25258917,0.23475489,0.3321952,0.2966861,0.09063244,0.09433967,0.2022355,0.21074045,270.32214,270.49542,272.8998,273.0826,0,0,0,0,0,0,0,0,0,0,0,0,0.03885512,0.039520625,0.033633687,0.036859352,0.09861014,0.1022832,0.20501323,0.21393959,-0.0016821809,-0.0038698465,0.010602962,0.006381195,164,6,231,2,0,-2011.6484,247.67126,-2880.3372,86.45744,752258,609.7125,158.97534,160.80954,149.14078,149.14078,0,1,1030.2482,0,0,20.011288,20.01127,0,2,255,0,0,0,1,0,189,0
True,34276937,15999.99,0,11799.966,-2.4925225,0.054134864,4.2676682,-0.089897156,-0.29960668,87.04668,0.0009469837,-0.13494577,-0.030338254,-1.003607,0.13036521,0.045494307,0.32256687,0.32135436,0.35585207,0.3487938,0.09903866,0.07692662,0.12053721,0.091244034,271.9848,272.1393,272.74316,272.7752,0,0,0,0,0,0,0,0,0,0,0,0,-0.30332494,-0.28440487,-0.0093655465,-0.0038209707,0.3190841,0.29462492,0.120900504,0.091324,0.00690173,0.0067529976,0.0134155825,0.012576412,164,6,231,2,0,-2020.9438,246.1813,-2874.3877,87.04724,752250.44,608.81744,157.87213,159.51419,148.78304,148.78304,0,1,1039.0858,0,0,20.13962,20.139603,0,2,255,0,0,0,1,-127,186,0
True,34277046,15999.99,0,11856.707,-11.535564,0.7178307,4.2248387,0.9431839,-0.25876164,87.45723,-0.0029780986,-0.30814332,0.03427533,-1.0314782,0.13099633,0.039263465,0.25952595,0.37864843,0.2962388,0.39166895,0.09055829,0.07322045,0.13766466,0.07739782,272.73303,273.8851,274.02414,274.1836,0,0,0,0,0,0,0,0,0,0,0,0,-0.055609412,-0.053951714,-0.14423053,-0.12447967,0.106269516,0.09095065,0.19938406,0.14657971,-0.0008312687,0.013781056,0.006328009,0.01767395,164,6,231,2,0,-2028.7592,244.9425,-2869.5088,87.4627,752263.25,605.9469,157.13022,158.72406,148.49416,148.49416,0,1,1046.4725,0,0,20.246157,20.246138,0,2,255,0,0,0,1,0,185,0
