IsRaceOn,TimestampMS,EngineMaxRpm,EngineIdleRpm,CurrentEngineRpm,AccelerationX,AccelerationY,AccelerationZ,VelocityX,VelocityY,VelocityZ,AngularVelocityX,AngularVelocityY,AngularVelocityZ,Yaw,Pitch,Roll,NormalizedSuspensionTravelFrontLeft,NormalizedSuspensionTravelFrontRight,NormalizedSuspensionTravelRearLeft,NormalizedSuspensionTravelRearRight,TireSlipRatioFrontLeft,TireSlipRatioFrontRight,TireSlipRatioRearLeft,TireSlipRatioRearRight,WheelRotationSpeedFrontLeft,WheelRotationSpeedFrontRight,WheelRotationSpeedRearLeft,WheelRotationSpeedRearRight,WheelOnRumbleStripFrontLeft,WheelOnRumbleStripFrontRight,WheelOnRumbleStripRearLeft,WheelOnRumbleStripRearRight,WheelInPuddleDepthFrontLeft,WheelInPuddleDepthFrontRight,WheelInPuddleDepthRearLeft,WheelInPuddleDepthRearRight,SurfaceRumbleFrontLeft,SurfaceRumbleFrontRight,SurfaceRumbleRearLeft,SurfaceRumbleRearRight,TireSlipAngleFrontLeft,TireSlipAngleFrontRight,TireSlipAngleRearLeft,TireSlipAngleRearRight,TireCombinedSlipFrontLeft,TireCombinedSlipFrontRight,TireCombinedSlipRearLeft,TireCombinedSlipRearRight,SuspensionTravelMetersFrontLeft,SuspensionTravelMetersFrontRight,SuspensionTravelMetersRearLeft,SuspensionTravelMetersRearRight,CarOrdinal,CarClass,CarPerformanceIndex,DrivetrainType,NumCylinders,PositionX,PositionY,PositionZ,Speed,Power,Torque,TireTempFl,TireTempFr,TireTempRl,TireTempRr,Boost,Fuel,Distance,BestLapTime,LastLapTime,CurrentLapTime,CurrentRaceTime,Lap,RacePosition,Accelerator,Brake,Clutch,Handbrake,Gear,Steer,NormalDrivingLine,NormalAiBrakeDifference
True,35303500,15999.99,0,6.397648E-14,0.030345675,0.00018056814,-0.09581813,-0.009568026,6.249561E-05,-0.00013421662,4.8630463E-06,5.161159E-05,-0.0009449945,-1.0931097,-0.0018671713,-6.644776E-05,0.2760184,0.25625145,0.24318852,0.24367158,0.00022324367,0.00030419388,-0.028691603,0.0120634325,-0.00041604656,-0.00041604656,-0.00041604656,-0.00041604656,0,0,0,0,0,0,0,0,0,0,0,0,0.014603838,0.00881193,-0.0057732575,-0.005698923,0.0146055445,0.008817179,0.029266682,0.013341819,0.0011917986,-0.0012329407,2.072379E-05,7.815659E-05,164,6,231,2,0,894.4241,521.2302,1785.5034,0.009569172,-5.2447097E-30,-7.819585E-16,143.21223,138.23785,137.04974,137.04974,-14.7,1,0,0,0,0,203.63185,0,0,0,0,0,255,1,-127,0,216
True,35320296,15999.99,0,134.28981,0.05706205,-0.041024446,6.185955,0.009163273,-0.005185239,0.751876,-0.027013963,0.0040269326,-0.011697251,3.1396399,0.05482128,-0.041270513,0.25388992,0.25985482,0.2508518,0.25757298,0.7416686,0.85140336,0.32235494,-0.052981384,2.4801373,2.2769864,2.3877287,4.5968094,0,0,0,0,0,0,0,0,0,0,0,0,-0.022416666,-0.022020292,-0.018226651,-0.0177744,0.7420073,0.8516881,0.32286984,0.055883415,-0.001522623,-0.00079092756,0.00093183294,0.0017309301,164,6,231,2,0,891.93896,225.9115,1867.0748,0.7519497,10729.492,814.78955,108.29935,111.8283,110.90477,110.90477,0,1,-79.44786,0,0,0.10545623,0.105456226,0,7,255,0,0,0,1,0,58,0
True,35320390,15999.99,0,320.27863,0.018573124,-0.054673254,12.019108,0.0071316175,-0.011711232,1.9480084,-0.037874196,-0.002125782,-0.0205103,3.139772,0.051808648,-0.042763088,0.23044288,0.24072762,0.27547666,0.29335222,1.6442747,0.34900683,0.73074645,0.4910024,8.945679,6.767507,7.324608,6.97128,0,0,0,0,0,0,0,0,0,0,0,0,0.008594781,0.009002905,-0.023301285,-0.022242192,1.6442971,0.34912294,0.73111784,0.49150595,-0.0043987855,-0.0031371936,0.003859546,0.0059848167,164,6,231,2,0,891.93866,225.9044,1866.9557,1.9480567,49681.875,1515.0254,108.41325,111.94727,111.1006,111.1006,0,1,-79.32931,0,0,0.19592184,0.19592182,0,7,255,0,0,0,1,0,58,0
True,35320500,15999.99,0,537.2878,1.2950838,-0.068814516,13.841069,0.12599373,-0.022305012,3.515607,-0.014868848,0.08586771,-0.007060133,-3.14111,0.04917524,-0.044373218,0.2021572,0.21280512,0.29535577,0.32723448,1.0112462,0.6731196,1.2132876,0.51031125,12.915432,11.776562,13.050233,11.834073,0,0,0,0,0,0,0,0,0,0,0,0,0.16860296,0.18724668,-0.048350055,-0.045635216,1.0252053,0.69867826,1.2142506,0.5123477,-0.007868487,-0.0065623447,0.0062230267,0.010013163,164,6,231,2,0,891.9347,225.88771,1866.6593,3.5179348,86110.84,1546.6406,111.112686,112.09216,111.66466,111.66466,0,1,-79.03446,0,0,0.3035146,0.3035146,0,7,255,0,0,0,1,17,58,0
True,35320609,15999.99,0,775.18353,0.6008905,-0.14333236,14.948463,0.14154163,-0.042761758,5.1424,0.0006719405,0.109724335,-0.015938438,-3.1282897,0.048630804,-0.044712443,0.1822634,0.2021373,0.3001458,0.3382639,1.1747144,0.709746,1.1474698,1.2831811,18.345732,16.377245,18.644371,17.74579,0,0,0,0,0,0,0,0,0,0,0,0,-0.3308354,-0.32629097,0.0058181146,0.009517828,1.2204123,0.78115636,1.1474845,1.2832164,-0.010308787,-0.007870927,0.0067925267,0.01132448,164,6,231,2,0,891.91376,225.85986,1866.1804,5.1445246,124615.93,1546.6406,113.349915,112.28021,111.99257,111.99257,0,1,-78.55809,0,0,0.41299254,0.41299254,0,7,255,0,0,0,1,0,57,0
True,35320718,15999.99,0,981.1132,-0.44147736,-0.11511797,14.025326,0.012034126,-0.056436658,6.7498865,-0.0068398146,-0.004297168,-0.0025275091,-3.1254182,0.048588783,-0.045596838,0.17748484,0.20795433,0.29785034,0.34103706,1.6525735,0.4370905,1.0326058,0.33324665,23.946903,21.67999,23.014866,22.134026,0,0,0,0,0,0,0,0,0,0,0,0,-0.00901287,-0.0057216273,-0.028863342,-0.023827272,1.652598,0.43712795,1.033009,0.3340974,-0.01089496,-0.007157374,0.006519608,0.011654194,164,6,231,2,0,891.8989,225.8218,1865.5165,6.750133,156861.47,1546.6406,115.08742,112.45377,112.969376,112.969376,0,1,-77.89759,0,0,0.5249981,0.5249981,0,7,255,0,0,0,1,0,57,0
True,35320843,15999.99,0,1273.6567,-0.10389343,-0.18891937,16.001251,0.0074932426,-0.0862658,8.800332,-0.004330136,-0.0077721984,0.0073006656,-3.1263647,0.04759636,-0.04520067,0.16762172,0.19842745,0.30804116,0.34456977,1.9725416,0.5047425,0.6900987,0.5991711,31.70361,28.567684,29.112486,28.93643,0,0,0,0,0,0,0,0,0,0,0,0,-0.000193348,0.0031398628,-0.024243629,-0.018964777,1.9725416,0.5047523,0.6905244,0.59947115,-0.0121048335,-0.008326001,0.0077312216,0.012074206,164,6,231,2,0,891.8827,225.76509,1864.5273,8.800758,205583.77,1546.6406,117.789856,112.647644,113.31028,113.31028,0,1,-76.91356,0,0,0.6519895,0.6519896,0,7,255,0,0,0,1,0,56,0
True,35320953,15999.99,0,1496.9718,-0.02609539,-0.15382558,16.299355,0.009968758,-0.1053676,10.573465,-0.002881093,0.00060879305,0.010380339,-3.1266596,0.047059838,-0.044324037,0.16985339,0.1910261,0.31978974,0.34468684,0.68877745,0.59526485,0.55506116,0.544397,34.779213,34.519535,34.545383,34.514427,0,0,0,0,0,0,0,0,0,0,0,0,-0.015652964,-0.012132727,-0.013476279,-0.00788717,0.6889553,0.5953885,0.5552247,0.5444541,-0.011831081,-0.009233899,0.009128042,0.01208812,164,6,231,2,0,891.8666,225.70561,1863.4872,10.573996,241512.86,1546.6406,118.23821,112.84729,113.568054,113.568054,0,1,-75.87879,0,0,0.75927186,0.7592719,0,7,255,0,0,0,1,0,56,0
True,35321062,15999.99,0,1751.1184,0.03792274,-0.17821592,15.652191,0.012332529,-0.12549764,12.375739,-0.00028948006,0.0026535967,0.0067314883,-3.126435,0.046915766,-0.04338604,0.17007442,0.18397553,0.32781708,0.34128278,0.6763104,0.5768175,0.5475065,0.5476597,40.67926,40.33495,40.412926,40.398273,0,0,0,0,0,0,0,0,0,0,0,0,-0.017301882,-0.013716679,-0.011146387,-0.00537074,0.67653173,0.5769806,0.54761994,0.54768604,-0.011803968,-0.010098767,0.010082431,0.011683404,164,6,231,2,0,891.84686,225.63332,1862.2217,12.376382,282629.53,1546.6406,118.056046,113.06533,113.80823,113.80823,0,1,-74.61984,0,0,0.8695376,0.86953765,0,7,255,0,0,0,1,0,55,0
True,35321171,15999.99,0,1995.6953,0.041425228,-0.1932208,16.171904,0.013642862,-0.14499885,14.1016,0.0030824195,0.0030983319,0.0066512437,-3.1261322,0.047049098,-0.042714007,0.16714816,0.17903051,0.3309682,0.3384744,0.7078161,0.5693783,0.5435897,0.5472031,46.474167,45.92835,46.030792,46.027695,0,0,0,0,0,0,0,0,0,0,0,0,-0.016952429,-0.013244958,-0.010744095,-0.005037254,0.70801914,0.56953233,0.54369587,0.5472263,-0.012162922,-0.010705356,0.010457076,0.01134951,164,6,231,2,0,891.82465,225.55315,1860.8218,14.102351,322258.28,1546.6406,117.91838,113.27457,114.0456,114.0456,0,1,-73.22718,0,0,0.97529197,0.975292,0,7,255,0,0,0,1,0,55,0
True,35321281,15999.99,0,2259.524,0.7985387,-0.24333113,16.131178,0.07999641,-0.16088164,15.813553,0.011357882,0.05158018,0.026449291,-3.1251981,0.04781847,-0.041450825,0.15460517,0.17596716,0.3328616,0.33256394,0.77846444,0.9925431,0.5033473,0.6476381,52.518967,53.33627,51.582253,51.977123,0,0,0,0,0,0,0,0,0,0,0,0,0.560324,0.5981786,-0.016336309,-0.011524453,0.9591506,1.1588613,0.50361234,0.6477406,-0.013701526,-0.011081126,0.010682192,0.010646801,164,6,231,2,0,891.7981,225.46149,1859.2351,15.814573,364582.16,1546.6406,117.84324,113.48391,114.290306,114.290306,0,1,-71.64868,0,0,1.0813662,1.0813663,0,7,255,0,0,0,1,46,54,0
True,35321390,15999.99,0,2454.264,4.7009025,-0.26723725,12.881315,0.32344288,-0.15292609,17.208298,0.023220416,0.3208936,0.036771532,-3.1043496,0.051014714,-0.036752056,0.16701755,0.17384274,0.3259575,0.31149203,0.4465979,1.2577786,0.32806557,0.6520934,56.388615,58.303097,56.095905,56.54397,0,0,0,0,0,0,0,0,0,0,0,0,0.7299634,0.8499731,0.0343319,0.04095645,0.8557431,1.5180453,0.32985708,0.6533783,-0.012178943,-0.011341723,0.009861343,0.008141503,164,6,231,2,0,891.72906,225.35286,1857.4106,17.212015,394158.3,1546.6406,118.72804,116.06555,114.4908,114.4908,0,1,-69.83355,0,0,1.1918545,1.1918547,0,7,255,0,0,0,1,0,52,0
True,35321500,15999.99,0,2690.0745,1.8525474,-0.13594103,15.876248,-0.012804389,-0.16659105,18.998533,-0.011700557,0.1369742,0.0116720665,-3.0760338,0.052081138,-0.033939447,0.18157284,0.1841958,0.3102971,0.31205997,0.500453,0.7097392,0.50547147,0.63182694,61.886105,62.281532,62.166367,62.131157,0,0,0,0,0,0,0,0,0,0,0,0,-0.102633126,-0.10252034,0.093914196,0.09901728,0.51086867,0.71710545,0.5141219,0.63953865,-0.010393497,-0.010071747,0.007999439,0.008209027,164,6,231,2,0,891.6079,225.23152,1855.4204,18.999268,434783.25,1546.6406,118.656296,116.623795,114.739204,114.739204,0,1,-67.853546,0,0,1.3021184,1.3021185,0,7,255,0,0,0,1,0,49,0
True,35321609,15999.99,0,2928.525,1.3384223,-0.062364697,16.214956,-0.00869751,-0.20369393,20.782925,-0.0139984945,0.027047625,-0.0034511974,-3.0685942,0.050748456,-0.033032514,0.19534133,0.18260652,0.32003132,0.32034925,0.46295184,0.6663678,0.4989495,0.5065143,67.20537,68.173195,67.64512,67.559555,0,0,0,0,0,0,0,0,0,0,0,0,-0.015442297,-0.012534723,0.019477312,0.023489168,0.4632093,0.6664857,0.4993295,0.5070587,-0.008704565,-0.010266699,0.009156767,0.00919456,164,6,231,2,0,891.4579,225.09943,1853.2542,20.783924,473383.2,1546.6406,118.52765,116.77108,114.99835,114.99835,0,1,-65.69843,0,0,1.4113683,1.4113683,0,7,255,0,0,0,1,0,45,0
True,35321718,15999.99,0,3176.09,0.57140875,-0.15257776,16.140415,0.012738705,-0.2295785,22.5291,0.009774939,0.0061663073,-0.013605482,-3.0671468,0.050320845,-0.033964857,0.20463738,0.18443625,0.33800876,0.33418438,0.55743486,0.6881176,0.49644613,0.48415756,73.32263,74.04622,73.21543,73.12366,0,0,0,0,0,0,0,0,0,0,0,0,-0.010102807,-0.0060757482,-0.0031723622,0.0024120104,0.5575264,0.68814445,0.49645627,0.48416355,-0.007564254,-0.010042254,0.011294153,0.010839459,164,6,231,2,0,891.28564,224.95815,1850.9233,22.530273,498751.72,1502.0428,118.43671,116.91742,115.25643,115.25643,0,1,-63.379692,0,0,1.5193664,1.5193665,0,7,255,0,0,0,1,0,41,0
True,35321828,15999.99,0,3399.294,0.20639801,-0.5506647,15.564358,0.01941824,-0.22946608,24.20259,0.03522174,0.003434454,-0.011114135,-3.0668113,0.053230688,-0.03533633,0.1849277,0.17074619,0.34803265,0.3396488,0.5534545,0.46889973,0.48790637,0.4952232,78.67762,78.10711,78.55203,78.57995,0,0,0,0,0,0,0,0,0,0,0,0,-0.01118881,-0.0072408463,-0.008198743,-0.0019794544,0.5535676,0.46895564,0.48797524,0.49522716,-0.0099819675,-0.011721563,0.012485918,0.011489142,164,6,231,2,0,891.09625,224.8025,1848.404,24.203686,511501.5,1439.1721,118.396576,117.05644,115.51033,115.51033,0,1,-60.873272,0,0,1.627566,1.627566,0,7,255,0,0,0,1,0,37,0
True,35321953,15999.99,0,3631.3079,-3.4705224,-0.37162113,13.974896,-0.1548152,-0.23088312,25.980558,-0.004095217,-0.19272059,-0.013601393,-3.075075,0.055106103,-0.037857503,0.17384744,0.20103633,0.3204052,0.32132345,0.7766995,0.24985163,0.47999343,0.34369907,85.28236,82.8874,83.72269,83.76422,0,0,0,0,0,0,0,0,0,0,0,0,-0.30181128,-0.27104363,-0.03165265,-0.026274236,0.83327794,0.36863327,0.48103595,0.3447019,-0.011341143,-0.00800598,0.009201214,0.009310391,164,6,231,2,0,890.87506,224.60168,1845.2643,25.982044,475603.06,1251.7065,118.435974,117.21864,115.79802,115.79802,0,1,-57.755894,0,0,1.7530204,1.7530204,0,7,255,0,0,0,1,0,31,0
True,35322046,15999.99,0,3800.8677,-1.5195882,0.080408394,14.47467,0.06201756,-0.24744272,27.30481,-0.014280461,-0.057701476,0.022272551,-3.085821,0.053374607,-0.036927838,0.17633508,0.23025444,0.31689557,0.32965252,0.46494353,0.32610878,0.39683005,0.36940035,88.01501,87.33049,87.79675,87.87677,0,0,0,0,0,0,0,0,0,0,0,0,0.0034923144,0.0063273096,-0.053096283,-0.04862174,0.46495664,0.32617015,0.40036646,0.3725865,-0.011035994,-0.004421901,0.008783948,0.010300651,164,6,231,2,0,890.7328,224.4502,1842.8738,27.306002,555022.6,1396.3116,118.44139,117.2948,115.99928,115.99928,0,1,-55.376736,0,0,1.8430158,1.8430158,0,7,255,0,0,0,1,0,28,0
True,35322156,15999.99,0,4023.6885,-0.89270645,-0.006241739,14.604162,0.037042618,-0.25734186,28.8879,0.0031782389,-0.005280065,0.025127368,-3.0883605,0.05283774,-0.034259427,0.16499768,0.21654645,0.3169573,0.35649803,0.40410864,0.40067667,0.40335095,0.3863673,92.776474,92.80552,93.04047,92.954895,0,0,0,0,0,0,0,0,0,0,0,0,-0.015190111,-0.012153756,-0.019531853,-0.013887332,0.40439403,0.40086097,0.40382358,0.38661677,-0.012426712,-0.0061034113,0.008791283,0.013492383,164,6,231,2,0,890.56335,224.261,1839.827,28.889067,580984.25,1380.6039,118.42501,117.38543,116.226776,116.226776,0,1,-52.34472,0,0,1.9517449,1.9517448,0,7,255,0,0,0,1,0,24,0
True,35322265,15999.99,0,4246.7456,-0.21310997,-0.5776494,14.116041,0.021960378,-0.26654792,30.448801,0.03454284,0.002251934,0.002637018,-3.0884387,0.054799933,-0.032684464,0.16145663,0.17513789,0.29638258,0.33198923,0.41606224,0.48444152,0.40819547,0.3956936,97.891815,98.410286,98.07896,97.99353,0,0,0,0,0,0,0,0,0,0,0,0,-0.010723871,-0.0073454403,-0.0071194116,-0.0040845578,0.41620043,0.48449722,0.40825754,0.3957147,-0.012861082,-0.01118285,0.0063451007,0.010578468,164,6,231,2,0,890.38776,224.05672,1836.5645,30.449974,590279.06,1328.9971,118.41716,117.51323,116.457794,116.457794,0,1,-49.097805,0,0,2.0619926,2.0619926,0,7,255,0,0,0,1,0,20,0
True,35322390,15999.99,0,4468.4287,0.10390973,-1.4519007,14.487886,0.023426771,-0.26611006,32.001637,0.047490712,0.0019317842,-0.010096662,-3.0883064,0.060168054,-0.033394016,0.15768677,0.13839926,0.28797892,0.29768288,0.4093696,0.44055268,0.45028543,0.43136322,102.779655,103.01528,103.42758,103.28793,0,0,0,0,0,0,0,0,0,0,0,0,-0.009212143,-0.0062169237,-0.0057910695,-0.0048730834,0.40947324,0.44059655,0.4503227,0.43139076,-0.013323516,-0.015689446,0.005345974,0.006499704,164,6,231,2,0,890.1974,223.82208,1833.0193,32.00275,611617.75,1308.6968,118.43674,117.66756,116.700165,116.700165,0,1,-45.568874,0,0,2.1758642,2.1758645,0,7,255,0,0,0,1,0,16,0
True,35322500,15999.99,0,4686.5464,-0.02567494,-0.6830156,14.712712,0.02342546,-0.29744864,33.680565,-0.014726099,0.0023842526,-0.0037649996,-3.0881534,0.06205197,-0.034465544,0.14787713,0.14503738,0.2839981,0.2730054,0.38223353,0.34240866,0.39341694,0.39461946,108.03848,107.68249,108.43614,108.43437,0,0,0,0,0,0,0,0,0,0,0,0,-0.008998131,-0.006988969,-0.005955204,-0.0051642642,0.38233945,0.34247997,0.393462,0.39465326,-0.014526831,-0.01487517,0.0048726797,0.0035657324,164,6,231,2,0,889.99005,223.55081,1829.1687,33.68189,688038.25,1402.8413,118.47238,117.80989,116.96625,116.96625,0,1,-41.734856,0,0,2.293538,2.2935386,0,7,255,0,0,0,1,0,11,0
True,35322625,15999.99,0,4909.835,0.044716656,-0.28153652,13.734588,0.017689228,-0.32860708,35.310734,0.018734349,0.003894921,0.0038493702,-3.0877695,0.06164434,-0.034250814,0.12985805,0.13754606,0.27455202,0.27656817,0.40818837,0.4035926,0.36738518,0.36491504,113.44299,113.38909,113.39351,113.359146,0,0,0,0,0,0,0,0,0,0,0,0,-0.008656437,-0.0059102224,-0.0042460714,-0.0035188524,0.40828016,0.40363586,0.3674097,0.364932,-0.016737163,-0.015794102,0.003749609,0.0039893165,164,6,231,2,0,889.779,223.27339,1825.2567,35.312267,683773.94,1331.293,118.52738,117.950775,117.21354,117.21354,0,1,-37.842003,0,0,2.4072945,2.407295,0,7,255,0,0,0,1,0,6,0
True,35322734,15999.99,0,5116.508,0.17839962,-0.5499152,13.283627,0.016680717,-0.32892323,36.870937,-0.00015676211,0.0031753185,0.00083093636,-3.0874243,0.06380327,-0.033975553,0.16500603,0.16185735,0.26754513,0.27346104,0.31906214,0.31329575,0.37744728,0.37600803,117.62156,117.5396,118.491,118.46578,0,0,0,0,0,0,0,0,0,0,0,0,-0.0071935765,-0.0049075373,-0.0039600166,-0.00294048,0.3191432,0.31333417,0.37746802,0.3760195,-0.012425687,-0.012811925,0.0029165447,0.0036199056,164,6,231,2,0,889.55865,222.9797,1821.1923,36.872406,717142.3,1339.6161,118.59317,118.09859,117.45604,117.45604,0,1,-33.79387,0,0,2.5203135,2.520314,0,7,255,0,0,0,1,0,1,0
True,35322843,15999.99,0,5318.653,0.11761838,0.37312,13.913769,0.016385078,-0.34928894,38.429665,-0.012714102,0.0029978494,7.521361E-05,-3.087039,0.061852816,-0.033881124,0.1726843,0.1593623,0.31190103,0.29228887,0.31520498,0.33299607,0.32143748,0.3155145,122.580894,122.76266,122.95221,122.8842,0,0,0,0,0,0,0,0,0,0,0,0,-0.006843386,-0.0044545513,-0.00463062,-0.0027875227,0.31527928,0.33302584,0.32147083,0.3155268,-0.011483824,-0.013117984,0.008190133,0.0058583915,164,6,231,2,0,889.3325,222.68056,1817.0475,38.431255,747354.6,1343.0873,118.65622,118.23132,117.69357,117.69357,0,1,-29.66578,0,0,2.6307857,2.6307864,0,7,255,0,0,0,1,0,253,0
True,35322953,15999.99,0,5530.505,0.13525277,-0.5516885,13.204879,0.019139528,-0.33851624,39.889744,0.034242406,0.0032353872,-0.016340226,-3.0867212,0.06375907,-0.034778282,0.11902491,0.10904166,0.28604022,0.28101742,0.3360349,0.3513178,0.35477924,0.3537749,127.37256,127.487045,127.88769,127.87954,0,0,0,0,0,0,0,0,0,0,0,0,-0.0060026185,-0.00375246,-0.0027367882,-0.0022511876,0.3360885,0.35133785,0.3547898,0.35378206,-0.018066026,-0.019290635,0.0051154755,0.004518304,164,6,231,2,0,889.0949,222.37149,1812.7211,39.891182,718090.5,1241.0204,118.734695,118.38054,117.92175,117.92175,0,1,-25.357,0,0,2.741633,2.7416334,0,7,255,0,0,0,1,0,247,0
True,35323062,15999.99,0,5678.0386,0.15768284,0.5110919,13.257965,0.021539688,-0.33946657,41.32846,-0.07512244,0.0019617903,-0.009328138,-3.0863986,0.0626983,-0.036398068,0.1888462,0.17628354,0.22594571,0.22064735,0.20549235,0.19884014,0.2504582,0.24959435,130.6648,130.58963,131.42079,131.38785,0,0,0,0,0,0,0,0,0,0,0,0,-0.0053664343,-0.004929058,-0.00420549,-0.0027636732,0.20556241,0.19890122,0.25049353,0.24960965,-0.009501301,-0.011042317,-0.0020293184,-0.0026592538,164,6,231,2,0,888.851,222.05003,1808.311,41.329857,752293.4,1265.7336,118.818855,118.51735,118.1489,118.1489,0,1,-20.964449,0,0,2.8506558,2.8506563,0,7,255,0,0,0,1,0,242,0
True,35323171,15999.99,0,5850.652,0.048474908,3.9010468,12.843918,0.010579824,-0.32706475,42.70018,-0.12356844,0.0027498514,0.027733807,-3.0857608,0.05183492,-0.03567268,0.29654977,0.3492548,0.32224426,0.33532414,0.17002922,0.14958729,0.21263593,0.21463643,134.6669,134.43347,135.42221,135.4279,0,0,0,0,0,0,0,0,0,0,0,0,-0.005493341,-0.0044812555,-0.0048544933,-0.00091551413,0.17011794,0.14965439,0.21269135,0.21463838,0.0037103072,0.01017544,0.00941987,0.01097497,164,6,231,2,0,888.59955,221.75287,1803.7941,42.701435,752304.56,1228.7882,118.89713,118.64142,118.3624,118.3624,0,1,-16.466007,0,0,2.9585075,2.958508,0,7,255,0,0,0,1,0,236,0
True,35323281,15999.99,0,6052.198,0.088186264,3.095511,12.104479,0.0075531006,-0.29994917,43.98542,0.004708994,0.0017465175,0.03859865,-3.08527,0.044054326,-0.031707343,0.28398997,0.3114513,0.41398442,0.43536574,0.2769006,0.2681086,0.24754056,0.24836926,139.79799,139.70569,139.78717,139.78044,0,0,0,0,0,0,0,0,0,0,0,0,-0.006997493,-0.0033865932,-0.011802825,0.0071804766,0.27698898,0.26813,0.2478218,0.24847303,0.0021696426,0.0055382214,0.020327095,0.02286917,164,6,231,2,0,888.3397,221.50264,1799.1649,43.98644,752301.1,1188.0796,118.9773,118.759445,118.5717,118.5717,0,1,-11.861393,0,0,3.0655754,3.0655756,0,7,255,0,0,0,1,0,230,0
True,35323375,15999.99,0,6223.549,-0.46247184,0.3283412,11.929574,-0.02817607,-0.28737032,45.246834,-0.027475972,-0.02929036,0.026592147,-3.0856016,0.044909883,-0.027855692,0.2520243,0.30050313,0.34186533,0.37166977,0.22529528,0.19889879,0.2902815,0.26637816,143.1492,142.96008,144.15161,144.03844,0,0,0,0,0,0,0,0,0,0,0,0,-0.11515504,-0.11012922,-0.0061444296,0.0010164354,0.25301906,0.22735253,0.29034653,0.2663801,-0.0017514713,0.0041952543,0.011752669,0.015296195,164,6,231,2,0,888.0718,221.25772,1794.3986,45.247753,752281.3,1154.8542,119.077896,118.89189,118.77803,118.77803,-2.9640827,1,-7.120998,0,0,3.1726813,3.1726818,0,7,255,0,0,0,1,-99,224,0
True,35323500,15999.99,0,6371.9966,-3.9036741,1.4217923,11.440621,0.1392765,-0.2976147,46.439186,-0.0334685,-0.16763417,0.03100846,-3.0996444,0.040567853,-0.02682091,0.23325191,0.2843852,0.33295184,0.3870741,0.21516532,0.1839253,0.26324183,0.21177591,146.44183,146.91016,147.32944,147.50847,0,0,0,0,0,0,0,0,0,0,0,0,0.020420203,0.021807633,-0.075335495,-0.06562475,0.21613212,0.18521364,0.2738096,0.22171073,-0.004054211,0.0022181235,0.010692917,0.017127655,164,6,231,2,0,887.83307,221.02138,1789.603,46.440346,752290.3,1128.0496,119.2175,119.06114,118.98197,118.98197,-6.03693,1,-2.35209,0,0,3.277506,3.2775064,0,7,255,0,0,0,1,0,218,0
True,35323609,15999.99,0,6529.329,-3.4031231,1.6087776,11.070229,0.19250846,-0.30601776,47.626232,-0.03611143,-0.027881254,0.03137483,-3.1084795,0.036405977,-0.024123872,0.25833204,0.30524644,0.3279122,0.37746924,0.21066616,0.17855704,0.23647225,0.21441169,150.4847,150.24458,151.06966,150.97566,0,0,0,0,0,0,0,0,0,0,0,0,-0.036921512,-0.03396637,-0.050670598,-0.043275047,0.21387714,0.181759,0.24184011,0.21873523,-0.0009777211,0.004777096,0.010093741,0.015985709,164,6,231,2,0,887.6273,220.79417,1784.5558,47.627605,752283.4,1100.8496,119.32223,119.188354,119.19159,119.19159,-8.398507,1,2.6705377,0,0,3.3849735,3.3849735,0,7,255,0,0,0,1,0,213,0
True,35323718,15999.99,0,6709.988,-1.5912925,0.32033175,10.573388,0.053952456,-0.3038869,48.785236,0.027768781,0.005109946,0.042389896,-3.1090703,0.035664015,-0.020012936,0.19730902,0.25388372,0.32556435,0.3694985,0.2658727,0.2531424,0.26178747,0.25710255,154.86394,154.67389,155.1019,155.03687,0,0,0,0,0,0,0,0,0,0,0,0,-0.017739523,-0.014911812,-0.014315689,-0.008376835,0.26646385,0.2535812,0.2621786,0.25723898,-0.008463196,-0.001523383,0.009814598,0.015038043,164,6,231,2,0,887.4437,220.5733,1779.2776,48.78621,752258.3,1071.3135,119.43175,119.31699,119.39621,119.39621,-10.241774,1,7.917842,0,0,3.494585,3.494585,0,7,255,0,0,0,1,0,209,0
True,35323828,15999.99,0,6850.8047,-0.407349,-0.48159242,10.500038,-0.005419612,-0.321064,49.961082,-0.019436698,0.0046352046,0.06374565,-3.1084526,0.037143905,-0.014317259,0.20809549,0.28583586,0.28553826,0.33768874,0.2014942,0.18029593,0.23557179,0.24156691,157.78847,157.50523,158.50333,158.54434,0,0,0,0,0,0,0,0,0,0,0,0,-0.0050726705,-0.0030361845,-0.0015561812,0.0010015185,0.20155804,0.1803215,0.23557693,0.24156898,-0.007140059,0.0023960732,0.0050557964,0.011256099,164,6,231,2,0,887.2613,220.3351,1773.7688,49.962116,752290,1049.0273,119.554184,119.45705,119.60426,119.60426,-11.8322,1,13.394699,0,0,3.6062944,3.6062942,0,7,255,0,0,0,1,0,205,0
True,35323937,15999.99,0,7000.9385,0.2295736,0.6757895,11.425292,-0.012440085,-0.31943786,51.119972,-0.015503043,0.00027779234,0.044331588,-3.108198,0.03527617,-0.008281026,0.19862938,0.27891555,0.29624313,0.33712325,0.18929929,0.17146984,0.21589509,0.22507572,161.27771,161.04416,161.91847,162.01309,0,0,0,0,0,0,0,0,0,0,0,0,-0.00095364155,0.00088662043,-0.00027463544,0.0024554862,0.18930168,0.17147213,0.21589525,0.22508912,-0.008301232,0.0015471838,0.006328527,0.011188868,164,6,231,2,0,887.0712,220.0901,1768.0134,51.120968,752451.8,1026.6248,119.67429,119.593864,119.81552,119.81552,-13.278015,1,19.116583,0,0,3.720293,3.720293,0,7,255,0,0,0,1,0,201,0
True,35324062,15999.99,0,7174.0903,0.048041075,0.65910363,9.660993,-0.0056607723,-0.3094579,52.385468,7.822213E-05,-0.00071732386,0.039911043,-3.108196,0.033558603,-0.0024448475,0.28812748,0.33176228,0.3560675,0.39631298,0.18444471,0.19418925,0.2186422,0.21717598,165.17972,165.32591,165.9231,165.9056,0,0,0,0,0,0,0,0,0,0,0,0,-0.0022486865,0.00061063137,-0.0043386756,0.0049512065,0.1844584,0.1941902,0.21868525,0.2172324,0.0026771761,0.008029699,0.013441201,0.01822609,164,6,231,2,0,886.85004,219.82127,1761.3516,52.386383,752280.6,1001.86176,119.81198,119.7478,120.05276,120.05276,-14.7,1,25.739082,0,0,3.8491495,3.8491495,0,7,255,0,0,0,1,0,196,0
True,35324156,15999.99,0,7291.301,0.06810683,-0.05491206,9.628285,0.004813552,-0.29627657,53.20119,0.013739503,-0.0020008855,0.010391824,-3.1083121,0.034210872,-0.0002717897,0.2901109,0.3204528,0.3768472,0.40194514,0.1904428,0.21345916,0.22988865,0.22580178,167.8377,168.1279,168.61955,168.598,0,0,0,0,0,0,0,0,0,0,0,0,-0.0022103493,0.0007788629,-0.005978401,0.0051524052,0.19045563,0.2134606,0.22996637,0.22586055,0.0029204749,0.0066424087,0.015911754,0.018895708,164,6,231,2,0,886.6999,219.64307,1756.8475,53.202015,752265.3,985.71136,119.90537,119.85011,120.2065,120.2065,-14.7,1,30.216251,0,0,3.9345558,3.9345553,0,7,255,0,0,0,1,0,193,0
True,35324281,15999.99,0,7434.068,0.0761067,0.3675107,9.462259,0.0145123005,-0.3083948,54.38318,-0.02064385,-0.0012577778,0.0101848245,-3.1083806,0.033563238,0.0005676081,0.15833296,0.16264658,0.294387,0.3030816,0.1724352,0.17039722,0.19399078,0.19373655,171.31589,171.29778,171.89604,171.88666,0,0,0,0,0,0,0,0,0,0,0,0,-0.0034105398,-0.0027302573,-0.0038413194,-0.0030725237,0.17246892,0.1704191,0.19402881,0.19376092,-0.013244251,-0.012715114,0.0061078444,0.0071415715,164,6,231,2,0,886.4752,219.37473,1750.1299,54.384056,752279.1,966.66736,120.04582,120.00392,120.43261,120.43261,-14.7,1,36.895103,0,0,4.0595703,4.05957,0,7,255,0,0,0,1,0,188,0
True,35324390,15999.99,0,7584.608,-0.13414143,-0.8704441,9.050937,0.005974531,-0.29385674,55.35486,0.034323048,-0.00043085185,0.011350632,-3.1085503,0.035118043,0.002265685,0.2093843,0.21621954,0.26950422,0.27037874,0.19562598,0.19497155,0.23629674,0.23206072,174.64325,174.64316,175.43639,175.45135,0,0,0,0,0,0,0,0,0,0,0,0,-0.002655937,-0.0007114763,-0.00199559,-0.0016563326,0.195644,0.19497284,0.23630518,0.23206662,-0.006981965,-0.0061435103,0.0031494685,0.0032534376,164,6,231,2,0,886.2784,219.1424,1744.2251,55.355637,752268.25,947.29474,120.161835,120.12964,120.62924,120.62924,-14.7,1,42.764748,0,0,4.16731,4.1673093,0,7,255,0,0,0,1,0,183,0
True,35324500,15999.99,0,7701.1265,-0.07209484,-0.4872024,9.050939,-0.0011590719,-0.32030916,56.327232,-0.013021815,0.00023161282,-0.0042772307,-3.1085622,0.03580316,0.0028726123,0.25854665,0.24228346,0.31428018,0.29651108,0.15968777,0.16358519,0.20391321,0.20750287,177.25032,177.28671,178.14536,178.19525,0,0,0,0,0,0,0,0,0,0,0,0,-0.0006082023,0.0011555922,-0.0007424758,0.0007786666,0.15968893,0.16358927,0.20391457,0.20750433,-0.00095139816,-0.0029463433,0.008472998,0.0063603856,164,6,231,2,0,886.07983,218.8942,1738.2236,56.328148,752252.1,933.1333,120.28796,120.263016,120.82135,120.82135,-14.7,1,48.73099,0,0,4.2749095,4.274908,0,7,255,0,0,0,1,0,179,0
True,35324609,15999.99,0,7805.2485,-0.05906652,2.01117,8.955472,-0.011092544,-0.32381952,57.27306,-0.059180833,-5.82168E-05,0.020419858,-3.1085513,0.0315116,0.0045268205,0.19162534,0.18184346,0.3162649,0.29249316,0.12377152,0.12759127,0.16027562,0.15949851,179.7368,179.78694,180.5267,180.52722,0,0,0,0,0,0,0,0,0,0,0,0,0.0009887966,0.0011089233,-0.0004152655,0.00090911484,0.12377547,0.12759608,0.16027616,0.1595011,-0.009160392,-0.010360301,0.008708965,0.005882684,164,6,231,2,0,885.88,218.6531,1732.1636,57.273975,752252.94,920.6721,120.41641,120.398926,121.015274,121.015274,-14.7,1,54.75514,0,0,4.3817124,4.3817105,0,7,255,0,0,0,1,0,174,0
True,35324703,15999.99,0,7944.1655,0.0067037046,1.8376807,8.399642,-0.014023066,-0.3964939,58.160973,-0.039800428,-0.00034416886,0.01873002,-3.1086164,0.026461067,0.0062945536,0.056009393,0.054784495,0.15209518,0.14585069,0.17008191,0.1655774,0.18047664,0.18276048,183.20396,183.13422,183.60928,183.64583,0,0,0,0,0,0,0,0,0,0,0,0,0.0014363826,0.0019292636,-0.00212642,0.006929877,0.17008798,0.16558863,0.18048917,0.18289182,-0.025795912,-0.025946166,-0.0108095985,-0.011552023,164,6,231,2,0,885.6783,218.43999,1726.0197,58.16232,752278.7,904.6813,120.54161,120.53082,121.21048,121.21048,-14.7,1,60.86313,0,0,4.488253,4.488251,0,7,255,0,0,0,1,0,170,0
True,35324828,15999.99,0,8142.48,-0.35345685,-4.5570054,8.097882,-0.03030479,-0.34295893,59.080402,0.062394977,-0.02901143,-0.0042290417,-3.108784,0.038780183,0.006233041,0,0,0.03341612,0.03285693,0.25984517,0.22876611,0.38669157,0.2882139,187.23683,186.97813,188.82445,188.2846,0,0,0,0,0,0,0,0,0,0,0,0,-0.10519736,-0.10349585,-0.019207511,0.01666114,0.28033194,0.2510883,0.3871683,0.2886951,-0.03266638,-0.03266638,-0.02491966,-0.024986144,164,6,231,2,0,885.4414,218.15765,1718.8038,59.081406,727706.9,852.5467,120.59508,120.50847,121.47958,121.47958,-14.7,1,68.03614,0,0,4.6116114,4.6116095,0,7,255,0,0,0,1,-127,165,0
True,35324937,15999.99,0,8202.038,-5.293994,-1.7438898,8.246278,0.2132256,-0.5095582,59.94056,-0.01679842,-0.25636774,-0.093890004,-3.1233168,0.038516894,-0.001532267,0.15279406,0.18935233,0.16383912,0.1615934,0.3494479,0.09956146,0.22105579,0.16079763,190.95866,188.23647,189.16475,189.48964,0,0,0,0,0,0,0,0,0,0,0,0,-0.44738823,-0.3519726,-0.08261377,-0.07150781,0.56768835,0.365783,0.23598877,0.1759808,-0.013923688,-0.009439215,-0.009413332,-0.009680331,164,6,231,2,0,885.2684,217.87042,1712.6395,59.9431,752251.44,876.1614,120.78883,120.70274,121.676834,121.676834,0,1,74.16569,0,0,4.715311,4.7153087,0,7,255,0,0,0,1,-55,161,0
True,35325046,15999.99,0,8268.679,-7.994462,4.1438212,8.298287,0.5307746,-0.3171661,60.76711,-0.024578838,-0.07994608,0.0076294355,3.1408634,0.033524454,-0.002888654,0.32032394,0.39556485,0.3733707,0.44244948,0.13268794,0.10185233,0.15388748,0.123439446,190.59818,190.52032,191.208,191.14902,0,0,0,0,0,0,0,0,0,0,0,0,-0.07183257,-0.0662599,-0.102639854,-0.083172195,0.15088409,0.12150832,0.18497647,0.14884526,0.0066265985,0.015856132,0.015498422,0.023711376,164,6,231,2,0,885.1772,217.60559,1706.5461,60.770256,752646.9,869.6393,120.946495,120.9048,121.894485,121.894485,0,1,80.22259,0,0,4.816348,4.816345,0,6,255,0,0,0,1,0,159,0
True,35325156,15999.99,0,8241.84,-1.3089174,1.2975707,-14.195044,0.45501214,-0.23720777,60.13058,-0.0037750462,0.00027891644,0.0555339,3.1378539,0.033281796,0.00034188695,0.27453476,0.38527521,0.361146,0.43973526,0.25487998,0.16769952,0.25193667,0.22827588,190.46152,189.272,190.6785,190.51738,0,0,0,0,0,0,0,0,0,0,0,0,-0.08423617,-0.07790211,-0.08170531,-0.06570569,0.26843908,0.18491043,0.26485437,0.23754393,0.001009807,0.0145939365,0.014044996,0.023388676,164,6,231,2,0,885.148,217.3683,1700.2253,60.132763,752277.6,870.86,121.07236,121.04848,122.087326,122.087326,0,1,86.50501,0,0,4.920572,4.9205694,0,6,255,0,0,0,1,0,158,0
True,35325281,15999.99,0,8229.84,-1.4643519,-0.054376207,-0.4465973,0.14659016,-0.27856004,60.06723,0.026407018,0.026335463,0.050645288,3.1397173,0.032443438,0.007474822,0.2308948,0.30155647,0.30249247,0.38484707,0.20691195,0.20412435,0.21696626,0.213252,189.80225,189.65851,190.31895,190.17041,0,0,0,0,0,0,0,0,0,0,0,0,-0.03358737,-0.031255174,-0.02010781,-0.014334986,0.2096203,0.20650336,0.21789603,0.21373326,-0.0043433495,0.0043244623,0.0070715286,0.016862877,164,6,231,2,0,885.13605,217.09505,1692.7322,60.06805,752272.06,873.1288,121.240364,121.21974,122.32005,122.32005,0,1,93.95096,0,0,5.0456877,5.045686,0,6,255,0,0,0,1,0,158,0
True,35325375,15999.99,0,8283.857,0.02836652,0.42102087,5.484229,0.03241425,-0.3379953,60.75205,-0.03604763,0.017027983,0.043895748,-3.1412003,0.03133317,0.012286939,0.23685578,0.27972722,0.29785016,0.31778336,0.13553575,0.1362006,0.16173905,0.16305745,190.92041,190.85284,191.55992,191.52325,0,0,0,0,0,0,0,0,0,0,0,0,-0.009877942,-0.008293894,-0.001966619,-0.00045020584,0.13589522,0.1364529,0.161751,0.16305807,-0.0036121383,0.001646746,0.0065195896,0.008889496,164,6,231,2,0,885.1315,216.85922,1686.4672,60.753,752266.3,867.3894,121.37337,121.35592,122.50131,122.50131,0,1,100.17813,0,0,5.1494455,5.149444,0,6,255,0,0,0,1,0,158,0
True,35325484,15999.99,0,8406.057,0.23408012,-0.85640246,6.540859,-0.020788167,-0.32575393,61.363735,0.06592057,0.009344037,0.049214534,-3.1400204,0.033015158,0.015756687,0.22834964,0.2846786,0.31965852,0.35236618,0.24514051,0.17471929,0.21498293,0.23414373,194.27638,193.17773,194.25658,194.45102,0,0,0,0,0,0,0,0,0,0,0,0,-0.0020051037,0.000963554,0.002141913,0.0067445016,0.2451487,0.17472194,0.2149936,0.23424084,-0.004655555,0.0022541136,0.00911244,0.01300114,164,6,231,2,0,885.1252,216.66315,1681.1731,61.364605,752252,854.97015,121.469696,121.455284,122.653854,122.653854,0,1,105.440094,0,0,5.236202,5.2362003,0,6,255,0,0,0,1,0,158,0
True,35325593,15999.99,0,8466.939,0.0074923374,0.4186014,7.23269,-0.04067273,-0.32401013,62.16533,-0.026785724,0.0013494806,0.08252447,-3.139357,0.03320211,0.024025105,0.24656089,0.36025405,0.28404373,0.38207272,0.12738842,0.12541349,0.15507638,0.15673633,195.08887,195.0531,195.78459,195.80234,0,0,0,0,0,0,0,0,0,0,0,0,0.001656988,0.0034412092,0.0030195713,0.0070215533,0.12739919,0.1254607,0.15510577,0.15689352,-0.0024216473,0.011524681,0.0048781037,0.016533028,164,6,231,2,0,885.11395,216.38748,1674.1653,62.166183,752273.75,848.6325,121.617325,121.6048,122.85774,122.85774,0,1,112.40704,0,0,5.3497305,5.3497286,0,6,255,0,0,0,1,0,158,0
True,35325718,15999.99,0,8635.03,-2.8155887,-1.7972167,6.542226,7.0005655E-05,-0.29174256,63.060863,-0.0029774185,-0.14532803,0.04994124,3.1386454,0.037049036,0.032516755,0.22638184,0.29592448,0.30745497,0.36275107,0.19878343,0.13291697,0.26444125,0.20336677,198.74574,198.40752,199.99274,199.76521,0,0,0,0,0,0,0,0,0,0,0,0,-0.31616142,-0.29046604,-0.02756083,-0.021169653,0.3734607,0.319433,0.2658736,0.20446563,-0.004896939,0.0036336072,0.007661529,0.014235828,164,6,231,2,0,885.10803,216.06299,1665.8937,63.06154,752272.9,831.9144,121.79145,121.78802,123.08426,123.08426,-12.558211,1,120.62895,0,0,5.4819093,5.481907,0,6,255,0,0,0,1,-127,158,0
True,35325828,15999.99,0,8670.944,-4.4268074,0.6581784,2.536354,0.95348823,-0.22494864,63.31858,-0.013171877,-0.19473147,0.07199825,3.1137788,0.037329033,0.03755078,0.26207402,0.35141164,0.32103312,0.37518573,0.16761424,0.124462895,0.25698137,0.178275,199.15257,199.4797,200.8805,200.63347,0,0,0,0,0,0,0,0,0,0,0,0,-0.098328285,-0.093084775,-0.18454358,-0.16415599,0.19432701,0.15542133,0.31637916,0.24234101,-0.0005187057,0.010440014,0.009275872,0.015714217,164,6,231,2,0,885.1654,215.78279,1659.0847,63.32616,752270.9,828.51666,122.01156,122.04825,123.28294,123.28294,-14.7,1,127.39755,0,0,5.589717,5.589714,0,6,255,0,0,0,1,0,160,123
True,35325937,15999.99,0,8285.726,-7.8507047,0.0070911506,0.293759,0.53339624,-0.24926877,63.406326,0.08433385,0.014073111,0.07347746,3.1049254,0.037453864,0.04323081,0.24724779,0.38832906,0.31417334,0.42571527,-0.6580955,-0.37056273,-0.1393214,-0.123383805,184.38968,189.46696,193.6728,193.82475,0,0,0,0,0,0,0,0,0,0,0,0,-0.09907028,-0.09052074,-0.09061219,-0.077198744,0.6655108,0.3814587,0.16619574,0.14554453,-0.0023373887,0.0149685405,0.008460291,0.021721803,164,6,231,2,0,885.3114,215.50595,1652.2277,63.409065,752252.2,865.25696,122.15662,122.21353,123.489105,123.489105,-14.7,1,134.2249,0,0,5.6978207,5.6978173,0,6,255,215,0,0,1,0,162,17
True,35326046,15999.99,0,7638.7866,-2.90306,-3.2551608,-17.611399,0.025057554,0.1716857,61.175632,0.13347681,0.043911222,0.12272187,3.1097212,0.05009179,0.055519417,0.22263305,0.33960047,0.23582038,0.34194738,-1.1692021,-1.0326344,-0.55406916,-0.5357847,168.83385,170.74303,179.91827,180.07661,0,0,0,0,0,0,0,0,0,0,0,0,-0.021480199,-0.02122857,-0.0028430626,-0.0007898467,1.1693994,1.0328525,0.55407643,0.5357853,-0.0053567886,0.008991182,-0.0008552931,0.011762422,164,6,231,2,0,885.5135,215.21472,1645.5878,61.17588,499262.94,622.5649,122.61131,122.52841,123.634415,123.634415,-14.7,1,140.82529,0,0,5.8045726,5.8045692,0,6,177,255,0,0,1,0,162,242
True,35326156,15999.99,0,7626.8506,-1.6628153,-2.2047138,-25.326515,-0.2397356,0.3714025,58.505535,0.028152978,-0.038992982,0.03664098,3.1123455,0.057481382,0.06453256,0.31317562,0.38061,0.15477175,0.20617503,-0.51116323,-0.14805764,-0.30406952,-0.29535583,171.8314,178.75157,176.49586,176.69708,0,0,0,0,0,0,0,0,0,0,0,0,-0.13541858,-0.13333826,0.027964696,0.032379907,0.5287968,0.19924898,0.30535275,0.29712543,0.0057497397,0.014021672,-0.010491375,-0.0043799058,164,6,231,2,0,885.71277,214.90341,1639.4054,58.507202,404450.28,506.47687,123.16577,123.07324,123.92002,123.92002,-14.7,1,146.97275,0,0,5.9080286,5.9080257,0,6,125,255,0,0,1,-127,162,209
True,35326265,15999.99,0,7361.1353,-6.988936,-1.5405637,-18.770136,-0.01965785,0.3808806,56.59819,0.010296534,-0.28499296,0.016626066,3.0951128,0.06103133,0.066175945,0.28275135,0.3776416,0.13447255,0.21583958,-0.514928,-0.13419658,-0.3759426,-0.33644775,168.31386,173.41447,168.70229,170.3687,0,0,0,0,0,0,0,0,0,0,0,0,-0.53687584,-0.4830638,-0.06731424,-0.05653638,0.74389946,0.5013575,0.3819215,0.34116483,0.0020177066,0.0136575475,-0.012904799,-0.0032308623,164,6,231,2,0,885.95667,214.57964,1633.2528,56.599472,339993.94,441.45618,123.42482,123.35408,124.071335,124.071335,-14.7,1,153.01863,0,0,6.0152373,6.0152335,0,6,127,255,0,0,1,-127,164,167
True,35326375,15999.99,0,7049.655,-13.618637,-1.4187279,-15.710764,1.2231832,0.31874514,54.564545,0.038382538,-0.51468384,0.04220457,3.0422251,0.066518374,0.06413555,0.25831485,0.4293485,0.18672727,0.30139425,-0.27984655,-0.50059265,-0.32353038,-0.3144736,158.89258,160.46797,163.46428,165.536,0,0,0,0,0,0,0,0,0,0,0,0,-0.8186831,-0.67338413,-0.36935863,-0.32740626,0.86519134,0.83907044,0.49101698,0.45396972,-0.0009798333,0.02000025,-0.0066921003,0.0069409534,164,6,231,2,0,886.3891,214.18149,1626.2476,54.579185,348905.06,470.4076,123.85129,123.84738,124.264046,124.264046,-14.7,1,159.99603,0,0,6.141775,6.141772,0,6,129,255,0,0,1,-127,177,134
True,35326484,15999.99,0,6648.9814,-14.625368,-2.8160295,-13.673049,2.7994337,0.3384657,52.935734,0.07181998,-0.5717793,0.051631257,2.9852378,0.076690935,0.06670166,0.18248881,0.3488759,0.12297357,0.26316005,-0.750799,-0.63091224,-0.7175145,-0.65556294,152.82558,157.50578,151.36978,153.99805,0,0,0,0,0,0,0,0,0,0,0,0,-1.1258991,-0.99816185,-0.7441515,-0.65255326,1.353273,1.1808375,1.0337255,0.9249803,-0.010281138,0.010128967,-0.014271943,0.002395194,164,6,231,2,0,886.90436,213.82507,1620.6038,53.010784,378055.7,543.0543,124.393585,124.36271,124.53204,124.53204,-14.7,1,165.62213,0,0,6.2473974,6.247394,0,6,137,255,0,0,1,-127,191,129
True,35326593,15999.99,0,6432.878,-15.210442,-3.0900779,-12.39816,4.7076597,0.34235072,51.357174,0.059740238,-0.6645391,0.024861656,2.9188397,0.08774108,0.06440668,0.1352953,0.296871,0.06283955,0.21651268,-0.39897075,-0.20346846,-0.9985193,-0.87918174,150.89911,156.36833,144.33128,147.31363,0,0,0,0,0,0,0,0,0,0,0,0,-1.5332499,-1.3010968,-1.2199832,-1.0429119,1.5843083,1.3169101,1.5765151,1.3640475,-0.016070195,0.0037497133,-0.021421432,-0.0031508356,164,6,231,2,0,887.555,213.43222,1615.1118,51.57362,550226.7,817.1556,125.88905,125.876175,125.32863,125.32863,-14.7,1,171.10196,0,0,6.3534594,6.3534555,0,6,191,255,0,0,1,-127,203,129
True,35326703,15999.99,0,6385.9165,-21.052977,-0.34195977,-10.049707,6.468692,0.34568334,49.812737,-0.043679632,-0.7902726,-0.011714317,2.8402343,0.093116604,0.057811134,0.20973547,0.37510276,0.045790885,0.2001202,-0.96904826,-0.024485074,-0.3613744,-0.405566,135.02077,154.8914,147.86739,149.82156,0,0,0,0,0,0,0,0,0,0,0,0,-1.8800045,-1.5280628,-1.637616,-1.3026487,2.1150584,1.528259,1.6770145,1.364323,-0.0069388896,0.013346121,-0.023448393,-0.005099781,164,6,231,2,0,888.36316,213.01598,1609.7949,50.232178,752255.3,1121.8866,128.59813,129.09848,127.01253,127.01253,-14.7,1,176.21065,0,0,6.459475,6.4594707,0,6,255,255,0,0,1,-127,213,129
True,35326812,15999.99,0,6882.1426,-24.803867,2.3420923,-3.765246,7.799037,0.37660122,48.71492,-0.09117834,-0.7861855,0.023191664,2.7583432,0.092487656,0.05124878,0.26946843,0.5069013,0.1314757,0.33080277,0.74405736,0.30422786,0.8310956,0.3672286,157.87083,156.48157,160.44437,159.3427,0,0,0,0,0,0,0,0,0,0,0,0,-2.1702292,-1.7500842,-1.9152818,-1.5281438,2.2942355,1.7763302,2.0878277,1.571649,0.00038833916,0.029513374,-0.013261102,0.01043741,164,6,231,2,0,889.3979,212.60979,1604.6406,49.336704,521906.5,725.0159,132.36508,133.8067,129.64482,129.64482,0,1,181.45007,0,0,6.5656924,6.5656877,0,6,255,0,0,0,1,-127,226,0
True,35326937,15999.99,0,6902.796,-24.029114,2.4179893,4.9230185,9.143444,0.23917389,48.57587,0.0049582524,-0.6262195,0.060736205,2.6664162,0.08816177,0.0495642,0.25518665,0.48594356,0.24230157,0.5085285,0.9788839,0.36850598,0.810137,0.41219807,161.04903,157.17508,160.07413,159.08891,0,0,0,0,0,0,0,0,0,0,0,0,-2.1131132,-1.8051153,-2.1430154,-1.7201942,2.3288326,1.8423458,2.291034,1.768891,-0.0013635568,0.026942559,-8.4728E-05,0.031567678,164,6,231,2,0,890.97876,212.15614,1598.6687,49.42949,362665,501.8069,138.08678,140.55243,134.71127,134.71127,0,1,187.57747,0,0,6.691132,6.691128,0,6,255,0,0,0,1,0,244,0
True,35327046,15999.99,0,6932.159,-22.419811,1.1669948,6.287841,9.98011,0.19264102,48.537987,-0.04543036,-0.6185065,0.04152704,2.6011178,0.08990879,0.047951177,0.19600506,0.4243665,0.21007821,0.39998567,0.89747417,0.3314584,0.88093346,0.5240187,160.79718,157.24449,160.88248,160.46893,0,0,0,0,0,0,0,0,0,0,0,0,-2.0426788,-1.6908989,-2.3236177,-1.9520621,2.2311425,1.7230797,2.4850037,2.0211735,-0.008623149,0.019389126,-0.0039158463,0.018662747,164,6,231,2,0,892.58185,211.77045,1593.7231,49.553772,369966.44,509.72263,141.30893,144.00478,139.32729,139.32729,0,1,192.69716,0,0,6.7964654,6.7964606,0,6,255,0,0,0,1,0,1,0
True,35327156,15999.99,0,6917.355,-23.093931,1.7577814,6.4250746,10.665501,0.13694787,48.444008,-0.0010947022,-0.57748216,0.04317518,2.5340054,0.08852078,0.046846956,0.18741344,0.4212161,0.21843174,0.45875356,1.0235372,0.3720567,0.8450187,0.46056437,161.74318,157.20137,160.2298,159.5797,0,0,0,0,0,0,0,0,0,0,0,0,-2.3084638,-1.8919421,-2.41065,-1.9498478,2.5251997,1.9281782,2.5544648,2.0035036,-0.0096770525,0.019002676,-0.0029226728,0.025649808,164,6,231,2,0,894.47614,211.37785,1588.7645,49.60437,350145.97,483.35394,144.77997,148.1225,144.69513,144.69513,0,1,197.99936,0,0,6.9038224,6.9038177,0,6,255,0,0,0,1,-76,11,0
True,35327265,15999.99,0,6899.011,-21.108658,1.0112869,5.482494,11.270332,0.12677479,48.29198,-0.015151315,-0.5364425,0.035577346,2.4738822,0.09062962,0.046873678,0.17649911,0.39899993,0.19225082,0.4126124,1.000102,0.51552874,0.8445427,0.53572583,159.86375,157.16614,159.85175,159.68774,0,0,0,0,0,0,0,0,0,0,0,0,-2.8138423,-2.4534698,-2.4986455,-2.1667166,2.9862874,2.5070467,2.6375144,2.2319639,-0.011015875,0.0162775,-0.0060353912,0.020163972,164,6,231,2,0,896.6421,210.97711,1583.8529,49.589836,301651,417.3696,149.66397,153.74269,149.97072,149.97072,0,1,203.35368,0,0,7.012358,7.0123525,0,6,255,0,0,0,1,-127,20,0
True,35327375,15999.99,0,6881.0166,-20.789455,0.54107213,4.8426194,11.514975,0.18763244,48.140457,0.0013008472,-0.46766445,0.04848193,2.4203954,0.09385726,0.045858655,0.15636203,0.36478305,0.1959016,0.39970982,1.1314816,0.49442443,0.87191993,0.5933394,160.15477,155.68121,159.52238,159.38214,0,0,0,0,0,0,0,0,0,0,0,0,-3.1180859,-2.5795166,-2.6742375,-2.3483603,3.3170333,2.6264732,2.8127904,2.4221578,-0.013486018,0.012080237,-0.005601339,0.018629946,164,6,231,2,0,899.0735,210.56514,1578.9862,49.498825,277269.78,384.84293,156.12311,161.49521,155.53023,155.53023,0,1,208.76591,0,0,7.1224813,7.122475,0,6,255,0,0,0,1,-127,28,0
True,35327484,15999.99,0,6840.283,-22.04028,1.5777762,4.958495,11.599184,0.1879654,48.009186,-0.021728799,-0.44065997,0.046302423,2.3700411,0.09402856,0.044631563,0.16916186,0.40734082,0.16750245,0.3810809,1.1112525,0.46775317,0.8052928,0.48345095,159.63924,154.99484,158.62332,158.03229,0,0,0,0,0,0,0,0,0,0,0,0,-3.1374562,-2.546209,-2.60629,-2.1114557,3.3284402,2.5888171,2.7278645,2.1660955,-0.011915909,0.017300647,-0.008977789,0.016415104,164,6,231,2,0,901.66986,210.15051,1574.3334,49.390873,332785,464.5824,162.69029,169.50754,160.78922,160.78922,0,1,214.29071,0,0,7.2305627,7.2305574,0,6,255,0,0,0,1,-127,34,0
True,35327593,15999.99,0,6844.789,-21.172388,1.3590875,4.88665,11.490896,0.14553511,47.93656,-0.034466714,-0.40993348,-0.010615913,2.3250227,0.09305053,0.044076957,0.19474135,0.36935064,0.18071395,0.36928004,0.8734603,0.4650206,0.831783,0.54518855,158.43822,155.89713,158.85912,158.27878,0,0,0,0,0,0,0,0,0,0,0,0,-2.6244724,-2.2995768,-2.5836515,-2.2147298,2.7660058,2.346124,2.7142437,2.280846,-0.008778162,0.012640528,-0.0074070394,0.015012074,164,6,231,2,0,904.41144,209.75089,1569.9468,49.294785,343869.47,479.85028,168.75305,176.75937,165.57242,165.57242,0,1,219.44955,0,0,7.3357377,7.3357325,0,6,255,0,0,0,1,0,39,0
True,35327703,15999.99,0,6879.817,-22.949518,1.942752,5.751644,11.096441,0.113345504,48.01642,-0.06505382,-0.41851965,0.0017321594,2.2812183,0.08942614,0.039993662,0.21693231,0.38028175,0.19430737,0.3747925,0.8983194,0.4238634,0.8904367,0.56520176,159.66832,156.36905,159.73381,158.97649,0,0,0,0,0,0,0,0,0,0,0,0,-2.3371825,-2.0274646,-2.5168743,-2.124381,2.503877,2.0712974,2.6697443,2.198283,-0.006056078,0.013981406,-0.005790882,0.015667465,164,6,231,2,0,907.3451,209.35774,1565.7327,49.282047,342453.66,475.33398,172.00742,180.92717,169.89275,169.89275,0,1,224.5728,0,0,7.440242,7.4402366,0,6,255,0,0,0,1,0,43,0
True,35327828,15999.99,0,6924.7974,-16.955748,1.1863517,6.776303,10.920879,0.08942455,48.310555,-0.0029985644,-0.22805402,0.103557825,2.235994,0.087231286,0.037260868,0.2394546,0.39034465,0.23999791,0.42880186,0.2276408,0.2864977,0.8961282,0.7491467,155.90161,157.74663,161.6541,161.54953,0,0,0,0,0,0,0,0,0,0,0,0,0.28938514,0.7110307,-2.3545449,-2.189695,0.3681903,0.76658046,2.519311,2.3142998,-0.0032933503,0.015215788,-0.00035861507,0.022088774,164,6,231,2,0,911.20325,208.88568,1560.7874,49.529617,503768.56,694.9911,172.81786,181.69249,174.758,174.758,0,1,230.8164,0,0,7.5677133,7.5677075,0,6,255,0,0,0,1,127,47,0
True,35327937,15999.99,0,6960.557,-7.21147,1.037468,6.1093583,10.911604,-0.07306051,48.805065,-0.00035631377,0.02973671,0.031216294,2.2256372,0.08448243,0.044755727,0.21626121,0.31921583,0.28182808,0.36689496,0.2622072,0.2228046,0.7390398,0.6481929,158.85123,158.00067,162.34122,161.67474,0,0,0,0,0,0,0,0,0,0,0,0,-0.108769804,0.19618623,-2.1382105,-1.9661092,0.28387234,0.29686853,2.2623272,2.0702028,-0.0061383992,0.006490674,0.004614681,0.014728505,164,6,231,2,0,914.5343,208.49234,1556.73,50.01003,560715,769.3479,170.52844,179.20969,178.87425,178.87425,0,1,236.36134,0,0,7.673482,7.6734757,0,6,255,0,0,0,1,0,46,0
True,35328031,15999.99,0,7051.504,-16.060265,-0.73127353,5.866889,8.6644,-0.09900069,49.519073,0.011988817,0.08719128,-0.030918214,2.2333646,0.08516653,0.043318335,0.15546928,0.25602823,0.21680057,0.31583053,0.87562686,0.4641326,0.7153842,0.5801885,165.22731,160.14249,163.51755,162.3643,0,0,0,0,0,0,0,0,0,0,0,0,-1.978436,-1.7375213,-1.8355007,-1.5958952,2.1635458,1.7984436,1.9699842,1.6980872,-0.013595527,-0.0012603216,-0.0031166077,0.008657325,164,6,231,2,0,917.9017,208.10155,1552.8583,50.27147,383154.97,518.9487,170.1942,178.7187,180.76358,180.76358,0,1,241.46223,0,0,7.7760725,7.776067,0,6,255,0,0,0,1,0,40,0
True,35328140,15999.99,0,7087.575,-19.082634,-1.1579447,5.8349915,6.0000725,-0.089457095,50.230003,0.00040864013,0.09567036,0.043732256,2.245646,0.087481536,0.044741575,0.09077209,0.2835133,0.13913405,0.3065811,0.7880416,0.26270273,0.6562168,0.4756927,166.44226,159.70827,164.88678,163.14001,0,0,0,0,0,0,0,0,0,0,0,0,-1.3374652,-1.1345497,-1.2926865,-1.0775119,1.5523604,1.1645668,1.4497099,1.1778436,-0.021531697,0.0021111704,-0.012350582,0.0075576343,164,6,231,2,0,921.51636,207.67375,1549.024,50.587177,475506.2,640.6578,170.72792,179.27783,180.56284,180.56284,-1.2180977,1,246.71483,0,0,7.880946,7.8809404,0,6,255,0,0,0,1,0,33,0
True,35328265,15999.99,0,7093.5435,-26.244102,1.8174251,8.736925,2.2206192,-0.20248207,51.37058,-0.07004329,0.18428604,0.023710895,2.2568572,0.08021231,0.047560506,0.13454613,0.36539838,0.15482922,0.40930074,0.53084826,0.14942165,0.32641572,0.21819347,167.01363,161.31332,164.5023,162.77219,0,0,0,0,0,0,0,0,0,0,0,0,-0.5438167,-0.45507056,-0.42015377,-0.33329856,0.7599582,0.47897395,0.53204924,0.39836708,-0.016162096,0.012155719,-0.010484543,0.019770235,164,6,231,2,0,925.97424,207.16031,1544.7697,51.418953,728417.44,980.7305,169.11935,177.31778,178.24571,178.24571,-11.170484,1,252.86191,0,0,8.002292,8.002285,0,6,255,0,0,0,1,0,28,0
True,35328375,15999.99,0,7191.037,-9.622949,2.2821422,9.868551,-0.06095314,-0.33063865,52.62895,-0.026148465,0.11211365,0.10227764,2.2775908,0.07139983,0.05905097,0.18499312,0.3340149,0.2546957,0.438307,0.14826035,0.1874795,0.17454669,0.19425222,165.73146,165.74939,166.37018,166.13713,0,0,0,0,0,0,0,0,0,0,0,0,-0.0263708,-0.02565952,0.028830733,0.039744504,0.15058735,0.1892273,0.17691173,0.19827646,-0.009973943,0.008306019,0.0013888441,0.023218863,164,6,231,2,0,930.67523,206.66261,1540.7106,52.63002,752266.2,999.4734,166.9428,174.83156,175.54309,175.54309,0,1,259.14685,0,0,8.122022,8.122016,0,6,255,0,0,0,1,0,27,0
True,35328484,15999.99,0,7328.968,-0.22946644,1.1214375,9.831903,-0.19303131,-0.308207,53.590923,-0.0003386503,0.019399235,0.02438326,2.2831662,0.06977561,0.06553933,0.2776916,0.31345335,0.32160017,0.38822693,0.1572596,0.20196599,0.19174817,0.2066409,168.64507,169.17271,169.41542,169.48116,0,0,0,0,0,0,0,0,0,0,0,0,0.028952409,0.032590296,0.03627127,0.043556992,0.15990254,0.20457856,0.19514857,0.21118161,0.0013970435,0.0057838075,0.009343293,0.01726472,164,6,231,2,0,934.66705,206.25964,1537.2971,53.592155,752696.9,981.2263,165.19966,172.81941,173.44133,173.44133,0,1,264.3774,0,0,8.221175,8.2211685,0,6,255,0,0,0,1,0,23,0
True,35328593,15999.99,0,7457.576,0.7725458,0.036827803,9.599007,-0.09447479,-0.29590508,54.565804,-0.04467669,-0.0024174885,-0.008174473,2.283454,0.07059079,0.06513842,0.23562175,0.22962324,0.28816566,0.28207386,0.13683906,0.13758382,0.20928578,0.21199127,171.41418,171.4559,172.64894,172.66818,0,0,0,0,0,0,0,0,0,0,0,0,0.018018086,0.018813992,0.0168274,0.01702602,0.13802022,0.13886423,0.20996119,0.21267389,-0.0037635118,-0.0044993274,0.005368173,0.004643902,164,6,231,2,0,938.8345,205.83975,1533.7119,54.56669,752283.25,963.4697,163.52393,170.8884,171.4205,171.4205,-4.8663826,1,269.85147,0,0,8.323112,8.323105,0,6,255,0,0,0,1,0,15,0
True,35328687,15999.99,0,7593.169,0.22206545,0.7333009,9.248164,-0.03324318,-0.30256584,55.504898,0.026256781,-0.008756543,-0.05053677,2.2826595,0.06838686,0.06248326,0.25373676,0.23305984,0.3303224,0.32580906,0.17269558,0.19541904,0.20638013,0.20838666,174.78929,175.09752,175.56494,175.60736,0,0,0,0,0,0,0,0,0,0,0,0,0.0102197975,0.012678431,0.004674545,0.0082811015,0.17299771,0.19582988,0.20643306,0.20855114,-0.0015414096,-0.0040777735,0.010380302,0.009843692,164,6,231,2,0,943.0628,205.42361,1530.0663,55.505726,752728.3,947.12885,161.95752,169.07353,169.53781,169.53781,0,1,275.4128,0,0,8.424803,8.424796,0,6,255,0,0,0,1,0,8,0
True,35328796,15999.99,0,7696.7734,-0.08993864,0.7252786,9.193373,-0.00892067,-0.32170436,56.4256,-0.035660308,-0.004224909,-0.050885826,2.281937,0.067269556,0.05682836,0.29358968,0.22858106,0.34121737,0.29229727,0.14356215,0.14137262,0.17048594,0.17079824,177.32007,177.34392,177.97762,177.98454,0,0,0,0,0,0,0,0,0,0,0,0,0.004393486,0.0059876726,0.00059607567,0.0029322891,0.14362937,0.14149937,0.17048699,0.17082341,0.0033472031,-0.004627168,0.011675626,0.0058593936,164,6,231,2,0,947.28076,205.01114,1526.4297,56.426514,752257.1,933.646,160.5227,167.41284,167.80634,167.80634,0,1,280.95493,0,0,8.524562,8.524555,0,6,255,0,0,0,1,0,2,0
True,35328921,15999.99,0,7845.269,-0.14778757,-0.21768872,8.655926,-0.0067443848,-0.30102497,57.390663,0.0070840847,-0.0024576753,-0.06856032,2.2815592,0.06788956,0.050071094,0.28699398,0.18897156,0.36050084,0.29508957,0.15102978,0.15843473,0.21388023,0.20939142,180.39352,180.52277,181.60303,181.5461,0,0,0,0,0,0,0,0,0,0,0,0,0.0043122573,0.0059236395,0.0004866384,0.0042647715,0.15109134,0.15854543,0.21388078,0.20943484,0.0025381334,-0.009485923,0.013968293,0.006191373,164,6,231,2,0,951.9914,204.55898,1522.372,57.39145,752279.8,915.95496,159.04695,165.70097,166.03218,166.03218,0,1,287.14157,0,0,8.634081,8.634074,0,6,255,0,0,0,1,0,251,0
True,35329031,15999.99,0,7959.0356,-0.19839907,0.91956216,8.735181,-0.0054016113,-0.32011712,58.362923,-0.015520768,-0.0019344041,-0.05829343,2.2812257,0.06571184,0.04345403,0.29183882,0.21030046,0.3434406,0.2819865,0.12939477,0.1442216,0.17490137,0.16996568,183.17223,183.3868,184.11803,184.07599,0,0,0,0,0,0,0,0,0,0,0,0,0.003347591,0.0049648164,0.00063899084,0.0030337567,0.12943806,0.14430705,0.17490253,0.16999276,0.0031324327,-0.0068695843,0.011939954,0.00463352,164,6,231,2,0,956.838,204.0954,1518.2,58.363796,752279.4,902.97345,157.66714,164.09573,164.36885,164.36885,0,1,293.5048,0,0,8.74483,8.744823,0,6,255,0,0,0,1,0,243,0
True,35329140,15999.99,0,8083.014,-0.0034627914,1.2941366,8.544275,0.00015640259,-0.30863345,59.288277,-0.020769332,-0.0012995319,-0.08435891,2.2809951,0.063416,0.035637062,0.30992177,0.21602525,0.35303175,0.26339436,0.13128823,0.13983566,0.16751994,0.16918501,186.12877,186.24591,186.91898,186.95326,0,0,0,0,0,0,0,0,0,0,0,0,0.0035072034,0.0052079703,0.00066309015,0.0037035753,0.13133506,0.1399326,0.16752125,0.16922554,0.0053506047,-0.0061673447,0.013080269,0.0024230517,164,6,231,2,0,961.69366,203.6472,1514.0225,59.289078,752268.7,889.0866,156.4064,162.62292,162.84868,162.84868,0,1,299.87778,0,0,8.853956,8.853949,0,6,255,0,0,0,1,0,236,0
True,35329265,15999.99,0,8221.072,0.045392036,-0.45572987,8.89849,0.009708405,-0.30780387,60.203743,0.00814566,-0.0011522251,-0.10450719,2.2808826,0.06418413,0.02540786,0.28044224,0.1789445,0.34855592,0.25992334,0.14698713,0.15083607,0.19519041,0.19650827,189.19632,189.26746,190.18932,190.21529,0,0,0,0,0,0,0,0,0,0,0,0,0.002847659,0.004647054,0.00021939282,0.003438852,0.1470147,0.15090764,0.19519053,0.19653836,0.0017344542,-0.010715906,0.012548126,0.0020103715,164,6,231,2,0,966.726,203.19109,1509.6938,60.204536,752402.8,874.10175,155.20624,161.22182,161.40619,161.40619,0,1,306.48077,0,0,8.9653,8.965293,0,6,255,0,0,0,1,0,228,0
True,35329359,15999.99,0,8328.847,0.09218645,0.3145629,8.113271,0.029592514,-0.34988856,61.122837,-0.030887056,-0.0021751043,-0.12459512,2.2807202,0.06303683,0.013187566,0.25784215,0.12740983,0.30011073,0.18399708,0.123265944,0.12946607,0.16461067,0.1655776,191.74672,191.83849,192.6366,192.66835,0,0,0,0,0,0,0,0,0,0,0,0,0.0010104219,0.0020400737,7.2651026E-05,0.002523951,0.12327009,0.12948214,0.16461068,0.16559684,-0.0010378174,-0.017037477,0.0067883544,-0.0070166998,164,6,231,2,0,971.8404,202.72249,1505.2941,61.12384,752270.8,862.765,154.10123,159.92435,160.07051,160.07051,0,1,313.19208,0,0,9.076755,9.076749,0,6,255,0,0,0,1,0,220,0
True,35329468,15999.99,0,8470.761,-0.048238754,0.071530506,7.8513584,0.03863907,-0.34532905,61.967644,0.060851797,-0.00031226646,-0.09668787,2.2805538,0.06243033,0.0011395963,0.2838714,0.23342624,0.33246085,0.29116082,0.20951937,0.20439471,0.1880005,0.18667616,195.65114,195.52861,195.64314,195.65443,0,0,0,0,0,0,0,0,0,0,0,0,-0.0031343214,0.00015930658,-0.0036922877,-0.0017166646,0.20954281,0.20439477,0.18803675,0.18668406,0.002155099,-0.004032828,0.010634545,0.0057242773,164,6,231,2,0,976.82697,202.27647,1501.004,61.968616,752273.44,848.5136,153.10715,158.76126,158.88728,158.88728,0,1,319.7378,0,0,9.183851,9.1838455,0,6,255,0,0,0,1,0,212,0
True,35329593,15999.99,0,8564.158,0.00248909,1.7132514,8.130324,0.02756691,-0.34221113,62.9848,-0.05858676,0.0013273915,-0.051968694,2.2807226,0.06066041,-0.007424742,0.32234237,0.26886088,0.31738347,0.24609436,0.10930855,0.10741287,0.1310879,0.13298021,197.41118,197.37703,197.98428,198.00876,0,0,0,0,0,0,0,0,0,0,0,0,-0.0030471068,-0.0016653007,-0.002702858,-0.0015431932,0.10935101,0.10742578,0.13111576,0.13298917,0.0068741925,0.000313811,0.008841954,0.0003662072,164,6,231,2,0,982.7295,201.7429,1495.9271,62.985725,752274.25,839.1058,152.05638,157.52621,157.61052,157.61052,-14.7,1,327.48248,0,0,9.308732,9.308726,0,6,255,0,0,0,1,0,203,0
True,35329703,15999.99,0,8720.765,0.15362692,-1.4563149,7.644559,0.024898529,-0.30533504,63.782578,0.0047440566,0.0037525739,-0.11339347,2.2810354,0.06367447,-0.016315907,0.2712533,0.14240621,0.3217241,0.25346532,0.14147785,0.1561215,0.22795755,0.22626133,200.38232,200.57759,201.90971,201.8911,0,0,0,0,0,0,0,0,0,0,0,0,-0.00028333958,0.0009380316,0.00036102295,0.002519201,0.14147814,0.15612432,0.22795783,0.22627535,0.0006072782,-0.015197927,0.009358019,0.0012425594,164,6,231,2,0,987.82117,201.29565,1491.5471,63.783318,752266.9,823.60486,151.2188,156.54112,156.60847,156.60847,-14.7,1,334.16278,0,0,9.414928,9.414924,0,6,255,0,0,0,1,0,196,0
True,35329796,15999.99,0,8783.815,0.35182834,0.5658778,7.7434387,0.04583168,-0.36818862,64.55444,-0.017725319,0.0014394214,-0.10240163,2.2813356,0.061355762,-0.027461573,0.2725812,0.1534054,0.33216944,0.22486527,0.13069332,0.12925586,0.13867424,0.13790745,202.61482,202.57817,203.00371,202.99509,0,0,0,0,0,0,0,0,0,0,0,0,-0.00363349,-0.0020942132,-0.0038178153,-0.0014304644,0.13074382,0.12927283,0.13872679,0.13791487,0.00077017024,-0.013848698,0.0105999,-0.0021577738,164,6,231,2,0,992.6508,200.86142,1487.3888,64.55551,752543.6,818.4138,150.50131,155.69147,155.74577,155.74577,-14.7,1,340.51422,0,0,9.514446,9.514442,0,6,255,0,0,0,1,0,189,0
True,35329921,15999.99,0,8896.69,0.23059297,0.10551286,7.348914,0.054775238,-0.36417294,65.41594,-0.039492395,0.0015868763,-0.10178447,2.2815495,0.06168196,-0.03796851,0.29570833,0.15570429,0.28593004,0.20421216,0.0967016,0.11047581,0.1452597,0.14249675,204.77199,204.98326,205.80397,205.76064,0,0,0,0,0,0,0,0,0,0,0,0,-0.0046564676,-0.0040007588,-0.0035057946,-0.0023903039,0.09681365,0.11054822,0.14530198,0.14251679,0.0036070906,-0.013566699,0.0051023737,-0.0046132766,164,6,231,2,0,998.47296,200.34195,1482.3721,65.41697,752254.4,807.5682,149.7069,154.7467,154.78944,154.78944,-14.7,1,348.16,0,0,9.632968,9.632964,0,6,255,0,0,0,1,0,181,0
True,35330031,15999.99,0,8333.61,0.21275187,-0.024218619,-10.425709,0.055877686,-0.058033705,64.191635,0.12212305,0.0054763407,-0.079936,2.2817135,0.06565488,-0.047550865,0.28973144,0.19477415,0.29527676,0.2333039,-0.5499166,-0.59345216,-0.22096108,-0.20757052,188.57042,187.57445,194.74379,194.92421,0,0,0,0,0,0,0,0,0,0,0,0,-0.006727625,-0.0058307564,-0.0040115113,-0.0036683648,0.5499578,0.5934808,0.2209975,0.20760293,0.0028739274,-0.008774139,0.0062136315,-0.0011544824,164,6,231,2,0,1003.3894,199.91273,1478.1328,64.19169,751220.2,859.865,149.15147,154.0677,154.00174,154.00174,-14.7,1,354.61765,0,0,9.733031,9.733027,0,6,255,255,0,0,1,0,174,228
True,35330125,15999.99,0,8102.2627,0.31648254,-1.6993599,-20.973145,0.050086975,0.26705623,61.888443,0.041966617,0.006546942,-0.07259867,2.2819517,0.074315466,-0.054534066,0.35508198,0.25265336,0.21494554,0.17502356,-0.32047376,-0.4004685,-0.20688339,-0.18180044,185.40791,184.11113,188.22572,188.56084,0,0,0,0,0,0,0,0,0,0,0,0,-0.004882373,-0.0069677434,-0.0039259526,-0.0009811369,0.32051095,0.40052912,0.20692062,0.18180309,0.010890242,-0.0016743056,-0.003337156,-0.008083586,164,6,231,2,0,1008.14264,199.47977,1474.0311,61.889038,673053.25,792.5531,148.75777,153.56174,153.26917,153.26917,-14.7,1,360.88754,0,0,9.832886,9.832884,0,6,231,255,0,0,1,0,169,215
True,35330234,15999.99,0,7795.4536,0.46355534,-0.79250115,-22.54826,0.063308716,0.43844056,59.526558,0.0051302016,0.0043508206,-0.09320098,2.2823029,0.0778851,-0.063456886,0.37156934,0.2598554,0.19756041,0.13394566,-0.3365269,-0.37093678,-0.20707321,-0.18746933,178.16434,177.64851,181.0758,181.28804,0,0,0,0,0,0,0,0,0,0,0,0,-0.004924858,-0.008611082,-0.0060282745,0.00064953073,0.33656293,0.3710367,0.20716093,0.18747045,0.012912687,-0.0007908605,-0.0054041184,-0.012967443,164,6,231,2,0,1012.8402,199.04308,1469.9719,59.52821,648098.56,793.35297,148.36487,153.064,152.56558,152.56558,-14.7,1,367.06625,0,0,9.935448,9.935446,0,6,223,255,0,0,1,0,163,202
True,35330359,15999.99,0,8106.9033,0.24899888,1.6911517,0.58585393,0.08216286,0.011055708,59.592846,-0.09359588,0.0025874479,-0.09107066,2.2833254,0.06662843,-0.07523061,0.38884673,0.31993324,0.29670447,0.26077887,0.13031606,0.12903173,0.13232942,0.12741145,187.07864,187.04031,187.34502,187.28404,0,0,0,0,0,0,0,0,0,0,0,0,-0.009803849,-0.010039066,-0.007767648,-0.008204746,0.13068432,0.12942168,0.1325572,0.12767535,0.015032042,0.0065786727,0.006383378,0.0021120869,164,6,231,2,0,1018.37994,198.53958,1465.176,59.592903,667001.9,785.9132,147.80133,152.37714,151.7963,151.7963,-14.7,1,374.35757,0,0,10.059382,10.05938,0,6,229,0,0,0,1,0,157,48
True,35330468,15999.99,0,8224.644,0.2511058,-0.22783008,6.0780315,0.06412315,-0.19107676,60.329765,0.009703297,0.0090343645,-0.045783095,2.284192,0.063971534,-0.08219512,0.3246507,0.24926051,0.3607332,0.27485606,0.15047683,0.14174135,0.17350669,0.16940801,189.61203,189.45969,190.20364,190.12624,0,0,0,0,0,0,0,0,0,0,0,0,-0.011734386,-0.010039216,-0.009643742,-0.006524468,0.15093367,0.14209643,0.1737745,0.16953361,0.007157348,-0.002090495,0.013995916,0.0037857592,164,6,231,2,0,1023.1007,198.12393,1461.0848,60.3301,670075.94,778.2544,147.31747,151.79932,151.23277,151.23277,-14.7,1,380.56348,0,0,10.163778,10.163776,0,6,230,0,0,0,1,0,150,20
True,35330578,15999.99,0,8334.367,0.40889502,-2.2317882,7.347194,0.054281235,-0.28835773,61.10111,-0.0017885221,0.00851457,-0.027978763,2.2849123,0.06719164,-0.08551992,0.24469838,0.23642229,0.2964555,0.28202587,0.1444683,0.12771724,0.18594684,0.18585326,191.96114,191.67511,192.84875,192.82161,0,0,0,0,0,0,0,0,0,0,0,0,-0.010248766,-0.008758929,-0.0058942134,-0.00555752,0.14483136,0.12801723,0.18604024,0.18593633,-0.0026501156,-0.0036653131,0.006353773,0.0046381988,164,6,231,2,0,1027.8833,197.68033,1456.9379,61.10181,712766.2,816.77386,146.88014,151.27283,150.7131,150.7131,-14.7,1,386.86325,0,0,10.268304,10.268303,0,6,243,0,0,0,1,0,141,11
True,35330703,15999.99,0,8473.874,4.158711,-0.18384981,7.0911107,-0.066640854,-0.30791044,61.979366,0.061075043,0.17794476,-0.06648634,2.2952464,0.06714892,-0.08893565,0.27286056,0.15944703,0.3630631,0.26116747,0.16507418,0.30898118,0.15387693,0.20090356,195.37634,196.7458,195.53589,195.4736,0,0,0,0,0,0,0,0,0,0,0,0,0.33743888,0.37036246,0.041782245,0.04725876,0.37565207,0.48232532,0.15944862,0.20638709,0.0008044392,-0.013107592,0.014272921,0.002158288,164,6,231,2,0,1033.4901,197.14735,1452.0399,61.980167,712698.25,803.657,146.45818,150.72821,150.1752,150.1752,-14.7,1,394.27206,0,0,10.389541,10.38954,0,6,243,0,0,0,1,104,134,0
True,35330796,15999.99,0,8557.717,12.289861,-0.8577306,7.2036314,-0.6539364,-0.29563951,62.689278,-0.05032149,0.42467353,-0.018687865,2.3260667,0.07272814,-0.092372954,0.34673068,0.17585127,0.31204203,0.18854597,0.1011282,0.23827438,0.12590386,0.23626117,197.20366,197.33307,197.97714,197.69351,0,0,0,0,0,0,0,0,0,0.120000005,0,0,0.48750177,0.579382,0.16491072,0.18666023,0.4978804,0.62646484,0.2074785,0.30110028,0.00986582,-0.011095343,0.0082068965,-0.0064758696,164,6,231,2,0,1038.266,196.66449,1447.7489,62.693386,712656.94,795.2673,146.29962,150.4402,149.77505,149.77505,0,1,401.07812,0,0,10.492825,10.492823,0,6,243,0,0,0,1,115,133,0
True,35330921,15999.99,0,8671.042,20.698078,2.3129032,7.262722,-1.8501778,-0.41151285,63.382587,-0.05110642,0.58165896,-0.035878982,2.3878336,0.070168935,-0.09031975,0.412677,0.1581188,0.49843597,0.2605478,0.10866828,0.22932433,0.1383501,0.30738544,200.11746,199.09595,201.99892,199.20773,0,0,0,0,0,0,0,0,0,0.120000005,0,0.120000005,0.6108556,0.67955154,0.31699768,0.3572182,0.6204461,0.71720284,0.3458732,0.47126496,0.017955214,-0.013270522,0.030367754,0.0020846128,164,6,231,2,0,1043.6854,196.10191,1442.5382,63.410915,712578.5,783.20703,146.30731,150.07033,149.51816,149.51816,0,1,408.57214,0,0,10.612401,10.612397,0,6,243,0,0,0,1,114,131,0
True,35331015,15999.99,0,8724.635,29.771214,5.5883846,6.271446,-2.777378,-0.24149466,63.732666,-0.080721185,0.6631701,-0.045238804,2.450727,0.06979923,-0.087715514,0.47161198,0.29445085,0.55515605,0.24351895,0.09953619,0.28603047,0.08209209,0.39830673,200.78886,200.93884,200.8777,202.78333,0,0,0,0,0,0,0,0,0,0.120000005,0,0.120000005,0.7637948,0.9954699,0.40535122,0.6617944,0.7702531,1.035748,0.41358036,0.7724119,0.025184557,0.0034528412,0.03711135,6.00107E-05,164,6,231,2,0,1048.0171,195.64915,1437.9692,63.79361,450399.38,493.41718,146.49442,149.8685,149.49231,149.49231,0,1,414.8431,0,0,10.711593,10.71159,0,6,139,0,0,0,1,116,131,0
True,35331140,15999.99,0,8622.776,33.723816,5.839939,3.3443518,-3.417307,0.23997259,63.737312,-0.10319359,0.65881115,0.008021283,2.5252502,0.07218117,-0.081734836,0.7140722,0.32463843,0.5467306,0.2221436,0.03503489,0.12362576,0.01894219,0.16083935,199.36247,197.24767,199.81377,199.36574,0,0,0,0,0,0,0,0,0,0.120000005,0,0.120000005,0.69798577,0.758691,0.49120006,0.6455393,0.6988645,0.7686972,0.49156517,0.66527456,0.054926276,0.007155843,0.036109626,-0.00248136,164,6,231,2,0,1052.8639,195.1439,1432.2489,63.82931,246703.25,273.07956,146.89435,149.61053,149.57895,149.57895,0,1,423.09976,0,0,10.829307,10.829304,0,6,102,0,0,0,1,114,134,0
True,35331234,15999.99,0,8625.83,38.544308,8.522285,2.8197231,-3.6907654,0.32958508,63.58976,-0.05101354,0.6449431,-0.017407479,2.5852995,0.06538369,-0.07705982,0.7443452,0.4394862,0.68989694,0.36335707,0.040308267,0.3497187,0.020905709,0.14482306,198.89282,200.48326,199.38153,198.51944,0,0,0,0,0,0,0,0,0,0.120000005,0,0.120000005,0.83355576,1.1856774,0.5037409,0.6814881,0.8345298,1.2361772,0.50417453,0.69670635,0.05863975,0.021243803,0.053131044,0.014307871,164,6,231,2,0,1056.156,194.81827,1427.823,63.697628,259946.44,287.8841,147.28383,149.51488,149.76698,149.76698,0,1,428.5959,0,0,10.91599,10.915987,0,6,106,0,0,0,1,114,136,0
True,35331359,15999.99,0,8739.644,33.17894,4.1213694,3.7287998,-4.723501,0.3592825,63.527866,-0.08948767,0.6711383,0.06429887,2.668104,0.062320754,-0.05912705,0.5540052,0.22177513,0.55487,0.19428183,0.0960306,0.31344378,0.15058053,0.49464038,200.03633,200.08342,201.93753,203.66127,0,0,0,0,0,0,0,0,0,0.120000005,0,0.120000005,0.94815296,1.1075358,0.7170997,1.0264539,0.9530036,1.1510354,0.7327391,1.1394194,0.035291433,-0.005462028,0.037077345,-0.005793918,164,6,231,2,0,1060.5612,194.38873,1421.0826,63.704243,447859.88,489.57138,147.85783,149.63586,150.01924,150.01924,0,1,437.5549,0,0,11.042637,11.042633,0,6,163,0,0,0,1,112,144,0
True,35331468,15999.99,0,8780.912,29.940048,2.3652377,4.9435787,-5.6090145,0.19299078,63.617336,-0.07784905,0.61600274,-0.051106736,2.7250695,0.060015082,-0.055507347,0.50933456,0.15592058,0.4969992,0.123072095,0.15412308,0.48587584,0.1705537,0.4295729,201.13043,203.2849,202.60678,203.60591,0,0,0,0,0,0,0,0,0,0,0,0,1.0788457,1.3652694,0.785945,1.0509843,1.089799,1.4491501,0.80423754,1.1353858,0.029811852,-0.013540167,0.030196935,-0.014260229,164,6,231,2,0,1063.4866,194.08401,1416.0358,63.864414,529493.7,575.76105,148.8842,150.23743,150.3129,150.3129,0,1,443.29935,0,0,11.134224,11.13422,0,6,199,0,0,0,1,113,156,0
True,35331562,15999.99,0,8825.417,32.960606,3.3030472,6.401963,-6.077509,0.034437656,63.765087,-0.049220853,0.5085732,-0.11254439,2.779749,0.0564337,-0.06004299,0.53938675,0.13683218,0.57886416,0.10098338,0.20235348,0.5428693,0.19373281,0.4472305,202.0658,204.79305,203.54181,204.51675,0,0,0,0,0,0,0,0,0,0,0,0,1.2302107,1.4875894,0.8239047,1.1141696,1.2467419,1.5835495,0.8463754,1.2005786,0.033498242,-0.015881673,0.039930068,-0.016886413,164,6,231,2,0,1066.3096,193.7734,1410.6063,64.05407,573836.25,620.9553,150.57565,151.5621,150.77652,150.77652,-0.8950043,1,449.36172,0,0,11.230032,11.230028,0,5,221,0,0,0,1,114,173,0
True,35331671,15999.99,0,8869.268,31.97094,3.9569979,6.5545015,-5.9458313,-0.009993553,64.08343,-0.04006208,0.4132248,-0.03441621,2.837273,0.05343792,-0.06531612,0.5524447,0.24803062,0.5791279,0.23810732,0.20065857,0.5816708,0.20038377,0.4080867,202.86888,206.65916,204.44093,205.29492,0,0,0,0,0,0,0,0,0,0,0,0,1.1954263,1.4877216,0.792909,1.0279993,1.2121502,1.5973905,0.81783766,1.1060368,0.035100013,-0.002241362,0.039961427,-0.00058339164,164,6,231,2,0,1069.4983,193.39636,1403.5889,64.35867,632942.8,681.55286,153.02075,153.51518,151.37122,151.37122,-5.943782,1,457.0307,0,0,11.350244,11.350239,0,5,241,0,0,0,1,112,201,0
True,35331781,15999.99,0,8912.739,30.3511,3.9103482,6.4535747,-5.2590914,-0.0068235397,64.495674,-0.040686864,0.3321192,-0.0038047154,2.8818326,0.049757704,-0.06446022,0.5669838,0.31890395,0.56403553,0.3039182,0.20921257,0.5890417,0.18492836,0.36176172,204.15558,208.3321,205.20529,206.0237,0,0,0,0,0,0,0,0,0,0,0,0,1.1450878,1.4182603,0.684604,0.8850197,1.164043,1.5357189,0.70914114,0.95610225,0.036883473,0.006452415,0.03816706,0.0072410367,164,6,231,2,0,1072.1102,193.06232,1396.8224,64.70974,670701.7,718.773,155.0192,155.08719,151.87755,151.87755,-10.21178,1,464.503,0,0,11.462774,11.462771,0,5,249,0,0,0,1,112,235,0
True,35331906,15999.99,0,8987.691,26.065323,0.91725284,6.2549396,-4.3430595,-0.02722931,64.969635,-0.030990718,0.26981533,-0.039375316,2.9103365,0.050788946,-0.06597421,0.51375717,0.2246169,0.502817,0.2717055,0.18702295,0.5255624,0.23480572,0.4120188,205.21564,209.18028,207.23744,208.29385,0,0,0,0,0,0,0,0,0,0,0,0,1.0029806,1.2375835,0.6179022,0.76067567,1.0202684,1.3445553,0.661012,0.86509365,0.03035435,-0.005113438,0.030888624,0.0034111813,164,6,231,2,0,1074.3033,192.744,1390.174,65.11464,681701.56,724.37634,156.14316,156.07758,152.21701,152.21701,-14.068247,1,471.36578,0,0,11.570752,11.570748,0,5,255,0,0,0,1,112,16,0
True,35332015,15999.99,0,8980.948,31.546787,4.731413,7.231389,-2.9898863,-0.09636688,65.653854,-0.098470345,0.3553471,0.02181055,2.9503796,0.04384561,-0.066119805,0.5356359,0.26686597,0.5179302,0.25632364,0.12759739,0.3787384,0.10641473,0.21432243,206.68379,209.04678,207.19708,207.13245,0,0,0,0,0,0,0,0,0,0,0,0,0.7760285,0.98071355,0.37681156,0.48145437,0.78644854,1.0513048,0.39154953,0.5270032,0.033038132,6.9104135E-05,0.032685474,0.0015823916,164,6,231,2,0,1076.4623,192.3736,1382.3081,65.72196,752264.6,799.899,156.60474,156.3963,152.56631,152.56631,-14.7,1,479.16452,0,0,11.695584,11.695581,0,5,255,0,0,0,1,110,58,56
True,35332125,15999.99,0,8354.613,22.757238,0.4665419,-6.9652443,-2.4106483,0.06571746,64.80336,0.0800569,0.19644916,-0.029888513,2.9768288,0.047798254,-0.06711526,0.45516008,0.22875623,0.4982068,0.23879506,-0.6620661,-0.49037105,-0.21500346,-0.33101043,187.66953,187.94678,196.79456,194.6541,0,0,0,0,0,0,0,0,0,0,0,0,0.8152668,0.89184326,0.3655131,0.4556515,1.050234,1.0177662,0.42405933,0.56319284,0.023166463,-0.0046056807,0.030340508,-0.00050162524,164,6,231,2,0,1077.9414,192.08218,1375.5929,64.84822,678263.25,773.16315,156.67757,156.29047,152.71648,152.71648,-14.7,1,485.86203,0,0,11.800618,11.800614,0,5,231,255,0,0,1,112,94,170
True,35332234,15999.99,0,8398.047,17.316366,-2.657789,-11.757181,-2.2034054,0.27345228,63.1958,0.090638295,0.24136455,0.13114682,3.0010602,0.05649866,-0.06052044,0.26787606,0.27719638,0.2747818,0.15436278,-0.2832269,-0.23785742,-0.019497832,-0.038721908,193.74861,190.47118,195.2175,194.6692,0,0,0,0,0,0,0,0,0.120000005,0,0.120000005,0,0.6645343,0.89822847,0.31972152,0.44883767,0.72237337,0.9291881,0.3203155,0.45050487,0.00019300729,0.0013362989,0.003776934,-0.010539997,164,6,231,2,0,1079.208,191.76515,1368.9286,63.23479,600738.3,684.7165,156.64941,156.26852,152.7478,152.7478,-9.030648,1,492.5075,0,0,11.906964,11.90696,0,5,209,78,0,0,1,112,127,217
True,35332343,15999.99,0,8914.527,13.4801445,-5.3980274,0.30500627,-2.4540024,0.056796074,63.36743,-0.067642406,0.3003983,0.17931032,3.0292966,0.06235919,-0.049237806,0.18197921,0.19754815,0.18732238,0.12608327,0.14194211,0.46360117,0.69291645,0.7270074,199.9579,203.61375,207.42204,208.75632,0,0,0,0,0,0,0,0,0.120000005,0,0.120000005,0,0.7123925,0.9051354,0.4802218,0.48804846,0.72639567,1.0169543,0.84305763,0.8756318,-0.0103436485,-0.0084338635,-0.006621346,-0.013902223,164,6,231,2,0,1080.2921,191.40025,1362.2605,63.414955,470276.47,503.34268,156.46613,156.09912,152.70187,152.70187,-11.76,1,499.1063,0,0,12.013877,12.013871,0,4,229,0,0,0,1,112,127,0
True,35332453,15999.99,0,8778.152,24.853817,1.5069822,4.26635,-2.1731558,-0.4731331,63.866367,-0.06574663,0.37495342,0.10105358,3.0693538,0.050956275,-0.031131515,0.4398075,0.16051488,0.40057003,0.21217778,0.39275008,0.48301035,0.12147932,0.22207592,205.069,204.30412,202.43413,200.90082,0,0,0,0,0,0,0,0,0.59999996,0.120000005,0.59999996,0.120000005,0.90088785,0.8277449,0.36955935,0.3570214,0.9827775,0.95836353,0.3890133,0.4204545,0.021283217,-0.012976604,0.01873222,-0.003666222,164,6,231,2,0,1081.1852,190.98944,1355.3354,63.90508,667537.44,726.15717,156.18076,155.84157,152.76033,152.76033,-9.255672,1,506.0002,0,0,12.1236925,12.123686,0,4,234,0,0,0,1,110,127,0
True,35332562,15999.99,0,8980.125,19.476568,0.09424007,5.6040487,-2.9997814,-0.3430853,64.29821,0.061891463,0.39198858,0.19011234,3.112149,0.05416476,-0.01914778,0.11590242,0.07599604,0.2702601,0.17868082,0.34952486,0.36790872,0.45692024,0.6146174,206.14339,204.34642,208.10068,209.00468,0,0,0,0,0,0,0,0,0.59999996,0.120000005,0.59999996,0.120000005,1.0312772,1.0057864,0.61616576,0.621306,1.0888987,1.0709636,0.76709604,0.8739426,-0.018449051,-0.023344222,0.0032393336,-0.0076487623,164,6,231,2,0,1081.8126,190.59381,1348.4073,64.369064,637904,680.3385,155.51999,155.66054,152.3833,152.3833,-11.76,1,512.8953,0,0,12.232307,12.232301,0,4,235,0,0,0,1,110,127,0
True,35332671,15999.99,0,9058.683,21.534286,1.5097775,4.7849965,-3.6329494,-0.30071187,64.58405,-0.15891404,0.44167838,0.069753766,-3.1290944,0.054839212,-0.0046148184,0.4439112,0.049529742,0.16154365,0.11114895,0.34307128,0.25725198,0.43692392,0.8637295,206.86504,203.81447,208.47397,214.11969,0,0,0,0,0,0,0,0,0.59999996,0.120000005,0.59999996,0.120000005,1.1356726,1.0008532,0.6845864,0.7575957,1.18636,1.0333855,0.8121336,1.1489037,0.0217866,-0.026590748,-0.0096862465,-0.015677802,164,6,231,2,0,1082.2316,190.18341,1341.5728,64.686844,622683.56,657.5087,155.08052,155.57649,151.95215,151.95215,-11.76,1,519.7702,0,0,12.338571,12.338564,0,4,241,0,0,0,1,110,127,0
True,35332796,15999.99,0,9015.645,22.162523,1.8766145,5.2690024,-3.7640793,-0.4253316,65.05085,-0.12188245,0.37211794,0.18787906,-3.0811827,0.046800558,-0.0036555422,0.22131772,0.18005061,0.20183547,0.14602642,0.08172126,0.82668245,0.25261578,0.38074532,204.11884,214.28261,204.82979,210.52457,0,0,0,0,0,0,0,0,0.59999996,0.120000005,0.59999996,0.120000005,0.7032142,1.153544,0.45599717,0.6473461,0.7079468,1.4191785,0.52129465,0.7510153,-0.0055181347,-0.010580223,-0.0048958473,-0.0115311295,164,6,231,2,0,1082.3882,189.73845,1333.5428,65.16104,596977.06,630.74097,154.61578,155.47226,151.54642,151.54642,-11.76,1,527.7588,0,0,12.462448,12.462441,0,4,246,0,0,0,1,100,127,0
True,35332906,15999.99,0,9054.542,22.976757,2.0449393,5.9202394,-3.787687,-0.30513644,65.47997,0.09844883,0.30875129,0.19006032,-3.0438,0.045102898,0.004984075,0.15389132,0.14441414,0.42047957,0.22510779,0.19375108,0.35538083,0.44774526,0.28082168,206.94688,206.8667,210.98056,209.62337,0,0,0,0,0,0,0,0,0.59999996,0.120000005,0.59999996,0.120000005,0.47151545,0.46615404,0.7164122,0.6237838,0.5097708,0.5861699,0.8448208,0.6840812,-0.013789089,-0.014951622,0.021099314,-0.00212894,164,6,231,2,0,1082.241,189.38063,1326.5884,65.59013,707932.94,746.9041,154.04013,155.3997,151.26816,151.26816,-9.495331,1,534.6724,0,0,12.569046,12.569038,0,4,253,0,0,0,1,0,127,0
True,35333015,15999.99,0,9067.061,22.289957,10.083388,6.8123903,-3.5393214,-0.32677794,66.0059,0.06024853,0.22128138,-0.06430961,-3.010623,0.026169235,0.015746627,0.50664383,0.344255,0.5087001,0.5671115,0.23809531,0.64612997,0.08124377,0.1645754,209.97592,215.07466,207.29874,208.1188,0,0,0,0,0,0,0,0,0.120000005,0.120000005,0.59999996,0.120000005,-0.36524147,-0.30771,0.35799217,0.5812885,0.43599394,0.7156601,0.36709526,0.60413694,0.029481791,0.009562135,0.031588078,0.038532764,164,6,231,2,0,1081.8298,189.0926,1319.7472,66.10153,752272.6,793.3617,153.61414,155.21797,150.93332,150.93332,-6.437148,1,541.4883,0,0,12.673218,12.673209,0,4,255,0,0,0,1,-127,127,0
True,35333125,15999.99,0,9076.889,10.1657505,4.8197565,6.6573324,-3.481336,-0.20602906,66.63422,-0.03444421,-0.030826788,0.005357283,-3.0010138,0.023167616,0.0072636916,0.41311586,0.57229066,0.5276932,0.54043937,0.1902784,0.10596803,0.14921035,0.09722793,211.04436,208.99347,209.56339,209.26471,0,0,0,0,0,0,0,0,0.120000005,0,0.120000005,0,-0.10888719,-0.06332923,0.45003968,0.40220496,0.21923113,0.123449646,0.4741302,0.4137899,0.018009048,0.037534446,0.033846222,0.035361648,164,6,231,2,0,1081.2792,188.8902,1312.9901,66.72541,752268.2,791.80225,153.48514,155.02982,150.93767,150.93767,-4.1337614,1,548.19275,0,0,12.775365,12.775356,0,4,255,0,0,0,1,-94,127,0
True,35333234,15999.99,0,9216.666,13.034162,0.3777442,6.5929856,-1.2509637,-0.22851586,67.32948,-0.09044565,-0.13894239,0.05443476,-3.0148463,0.024535762,0.018511908,0.5606522,0.3555463,0.35635558,0.41291276,0.06404372,0.24332291,0.30252093,0.17175849,210.1575,213.89009,213.24535,213.36197,0,0,0,0,0,0,0,0,0,0,0.120000005,0,0.18388656,0.24543662,0.16559301,0.16076039,0.19471996,0.3456084,0.34487674,0.23525493,0.036106795,0.010947198,0.013475452,0.020199683,164,6,231,2,0,1080.5846,188.6914,1305.9135,67.341484,752262.6,779.3289,153.37317,154.81342,151.02232,151.02232,-3.6181335,1,555.212,0,0,12.881496,12.881488,0,4,255,0,0,0,1,0,127,0
True,35333343,15999.99,0,9291.496,4.1274586,-0.9227272,6.5088778,0.11235809,-0.31701577,68.08019,0.011616856,-0.087836765,-0.14512469,-3.028849,0.023949841,0.0060948436,0.40187135,0.20422885,0.48706174,0.30957982,0.12266281,0.12218154,0.22573021,0.19141215,213.26999,213.71925,215.21492,215.12712,0,0,0,0,0,0,0,0,0,0,0,0,0.008011238,0.009855455,-0.043460667,-0.023007767,0.12292415,0.12257838,0.22987597,0.19278996,0.016629726,-0.0076143667,0.029015444,0.007914159,164,6,231,2,0,1079.7373,188.4852,1298.4612,68.08102,752257,773.14844,153.24255,154.59738,151.07692,151.07692,0,1,562.6117,0,0,12.9922905,12.992282,0,4,255,0,0,0,1,0,123,0
True,35333468,15999.99,0,9405.554,-2.0306206,-1.3206869,6.393875,0.176723,-0.29800916,68.90134,0.028021336,-0.061430737,-0.13289548,-3.034558,0.025426304,-0.010817561,0.33645025,0.21266937,0.39970538,0.2905979,0.15438999,0.124910064,0.21954228,0.1872309,216.44136,216.20868,217.81088,217.58704,0,0,0,0,0,0,0,0,0,0,0,0,-0.18739419,-0.17763896,-0.03839444,-0.030034125,0.24280208,0.21715921,0.22287428,0.18962452,0.008604754,-0.006578997,0.01862942,0.005657345,164,6,231,2,0,1078.771,188.23947,1289.9001,68.90221,752252.9,763.9124,153.04593,154.36075,151.09631,151.09631,0,1,571.0992,0,0,13.118092,13.118083,0,4,255,0,0,0,1,-99,91,0
True,35333562,15999.99,0,9464.207,-8.085353,0.10038307,6.3419485,0.39367294,-0.3126824,69.45748,-0.010874292,-0.27861512,-0.124086015,-3.0499718,0.02434995,-0.022845307,0.2958746,0.23393206,0.34744233,0.3137225,0.21230546,0.11291729,0.19339706,0.11487919,218.55524,218.19695,218.69008,218.66354,0,0,0,0,0,0,0,0,0,0,0,0,-0.5248932,-0.46565354,-0.10071137,-0.08697277,0.5662036,0.47914875,0.21804862,0.14408849,0.0036274865,-0.0039707795,0.012415733,0.008406691,164,6,231,2,0,1078.1309,188.0563,1283.7657,69.459305,752270,759.2373,152.99057,154.31757,151.11192,151.11192,-10.172256,1,577.182,0,0,13.207263,13.207254,0,4,255,0,0,0,1,-106,70,0
True,35333671,15999.99,0,9606.591,-14.154311,-0.56245935,6.0706286,1.868232,-0.31425774,70.116264,0.021152152,-0.4161674,-0.10753198,-3.097617,0.02269913,-0.039376993,0.20632994,0.20279694,0.23724012,0.2306173,0.31223142,0.11815287,0.30094874,0.152517,222.039,220.73131,222.35028,221.88199,0,0,0,0,0,0,0,0,0,0,0,0,-0.5050196,-0.43756965,-0.34912726,-0.29924032,0.5937451,0.45324087,0.4609338,0.33586636,-0.0073566325,-0.007790014,-0.0006864965,-0.0014738999,164,6,231,2,0,1077.401,187.81169,1275.0834,70.14185,752253.25,747.9565,152.99573,154.37572,151.1809,151.1809,-14.7,1,585.79816,0,0,13.332116,13.332108,0,4,255,0,0,0,1,-45,44,0
True,35333781,15999.99,0,9705.168,-17.698898,-1.6135515,6.0080194,2.4930978,-0.3131032,70.61596,0.061249886,-0.23648171,-0.102013364,-3.132993,0.022966186,-0.05210934,0.17816164,0.20378828,0.26134568,0.27910116,0.45208922,0.12557527,0.3089512,0.17519791,226.642,222.12483,224.46277,223.5421,0,0,0,0,0,0,0,0,0,0,0,0,-0.34493804,-0.29678684,-0.41679147,-0.35471508,0.5686536,0.3222601,0.51881206,0.3956224,-0.010811938,-0.0076684095,0.0021794774,0.004290469,164,6,231,2,0,1076.9989,187.61,1267.9938,70.660645,752250.1,740.54974,152.95998,154.37508,151.29253,151.29253,-14.7,1,592.83295,0,0,13.432996,13.432986,0,4,255,0,0,0,1,0,29,0
True,35333906,15999.99,0,9698.994,-18.427015,-0.75466317,6.4129777,1.7818539,-0.35057867,71.22934,-0.061065543,-0.13972466,-0.09510467,3.13407,0.022855576,-0.061955128,0.19292246,0.27621138,0.21463647,0.2801185,0.18057746,0.078460716,0.18563923,0.11622999,224.06615,222.96198,224.42691,224.0789,0,0,0,0,0,0,0,0,0,0,0,0,-0.41328537,-0.34725124,-0.26945594,-0.22935472,0.45101333,0.35600492,0.3272131,0.25712448,-0.009001281,0.0012154728,-0.0033739023,0.0044114217,164,6,231,2,0,1076.775,187.3888,1260.7302,71.25249,752250.94,740.6443,152.94992,154.40306,151.38947,151.38947,-14.7,1,600.0459,0,0,13.535459,13.535447,0,4,255,0,0,0,1,-127,18,0
True,35334015,15999.99,0,9788.624,-17.382412,-0.10128495,6.2732,1.2897189,-0.29169798,71.82029,0.009092733,-0.10573409,-0.03785056,3.1158767,0.020437764,-0.068095535,0.23372525,0.29746717,0.2894245,0.38152808,0.13899556,0.09141241,0.2150644,0.15394184,225.24557,224.93704,226.79309,226.38556,0,0,0,0,0,0,0,0,0,0,0,0,-0.16040209,-0.1473865,-0.20368755,-0.18062377,0.21224654,0.17343302,0.2962116,0.23732474,-0.0039961487,0.0038228408,0.005517844,0.016468275,164,6,231,2,0,1076.7543,187.17844,1252.7437,71.83245,752258.44,733.9308,152.95532,154.47949,151.48254,151.48254,-14.7,1,607.97906,0,0,13.647134,13.647123,0,4,255,0,0,0,1,0,13,0
True,35334109,15999.99,0,9107.644,-9.985436,0.16998559,-15.150343,0.5851073,0.035550594,70.21977,0.11944794,0.04175138,-0.0045508165,3.1130803,0.023836745,-0.07104751,0.2621842,0.32940924,0.23944165,0.33907616,-0.89574975,-0.43831128,-0.16521737,-0.1532408,198.91551,207.73485,214.15694,214.10028,0,0,0,0,0,0,0,0,0,0,0,0,-0.09972256,-0.09248984,-0.078696385,-0.07656516,0.9012837,0.44796333,0.18300246,0.17130373,-0.00050519034,0.00774106,-0.00042475015,0.011421058,164,6,231,2,0,1076.8601,187.00974,1245.829,70.22221,752269.5,786.60614,152.97574,154.49455,151.50714,151.50714,0,1,614.84973,0,0,13.744296,13.744285,0,4,255,255,0,0,1,0,12,129
True,35334234,15999.99,0,8894.117,-2.3916395,0.08152813,-24.46322,0.049957752,0.39593387,67.367966,-0.02887638,0.031730153,0.005280774,3.1182916,0.032618646,-0.06944519,0.39515427,0.41838163,0.20585324,0.24060449,-0.25366458,-0.24816044,-0.11255609,-0.10647882,203.22462,203.15843,206.62236,206.58293,0,0,0,0,0,0,0,0,0,0,0,0,-0.011269768,-0.014794729,-0.0026009765,-0.0024759164,0.2539148,0.24860105,0.11258614,0.1065076,0.015805766,0.018654983,-0.0044181645,-0.00028649718,164,6,231,2,0,1077.0336,186.79175,1237.7808,67.36914,752250.56,807.06396,153.24791,154.59393,151.53613,151.53613,0,1,622.8482,0,0,13.861298,13.861284,0,4,255,255,0,0,1,0,12,129
True,35334343,15999.99,0,9103.227,0.39721054,-0.3336774,-3.0467086,-0.015812874,0.27020252,66.77627,-0.050390825,0.010746273,-0.0070567187,3.1207569,0.029785352,-0.06986435,0.38312817,0.37983233,0.28659362,0.28353223,0.12765148,0.13063182,0.17371769,0.17794754,209.58858,209.57135,210.56424,210.61316,0,0,0,0,0,0,0,0,0,0,0,0,0.0013359977,-0.00023723909,0.005537804,0.0037882607,0.12765847,0.13063203,0.17380594,0.17798784,0.014330566,0.013926279,0.005181268,0.004817292,164,6,231,2,0,1077.2009,186.59653,1229.9934,66.776825,752251.75,789.1991,153.22556,154.54968,151.53943,151.53943,0,1,630.5872,0,0,13.978131,13.978118,0,4,255,0,0,0,1,0,12,0
True,35334453,15999.99,0,9107.219,1.755621,1.3271359,1.8939745,0.48998553,-0.1344291,67.010704,-0.034989472,0.0938725,-0.0105739115,3.1284122,0.023331735,-0.07190955,0.34469604,0.39022118,0.34389636,0.38141057,0.13071021,0.10914974,0.12158191,0.11927339,210.54356,209.76927,210.59138,210.24646,0,0,0,0,0,0,0,0,0,0,0,0,-0.09771637,-0.093990326,-0.055859137,-0.047945574,0.16319819,0.14404114,0.13379987,0.12854928,0.009616237,0.015200641,0.011994142,0.016454305,164,6,231,2,0,1077.2402,186.38426,1222.3634,67.01263,752253.9,788.98914,153.19269,154.52399,151.6104,151.6104,-1.4868336,1,638.16766,0,0,14.092448,14.092437,0,4,255,0,0,0,1,0,8,0
True,35334546,15999.99,0,9221.747,0.39385974,-1.7031009,5.328061,-0.07021615,-0.18992734,67.59111,0.0101257805,0.060255703,-0.029489433,3.135836,0.025925,-0.07274593,0.2915786,0.26324427,0.32821715,0.3326598,0.12453464,0.14182384,0.1891509,0.20224643,212.15247,212.09457,213.44359,213.41753,0,0,0,0,0,0,0,0,0,0,0,0,-0.0020320357,-0.0010548959,0.020055644,0.023903802,0.124551214,0.14182776,0.19021118,0.20365414,0.0031005107,-0.00037515908,0.010129996,0.010658197,164,6,231,2,0,1077.2847,186.21753,1216.1378,67.59141,752264.6,779.0064,153.14034,154.45888,151.63757,151.63757,0,1,644.35144,0,0,14.184983,14.184972,0,4,255,0,0,0,1,0,6,0
True,35334656,15999.99,0,9322.407,1.7529669,-2.2403414,6.145334,-0.09550437,-0.2619747,68.29749,0.033550207,0.014493529,-0.04114631,3.1393535,0.028195368,-0.07702061,0.30531055,0.22163457,0.32086542,0.28815785,0.1339044,0.10376121,0.19087838,0.23455404,214.38092,213.89601,215.65363,216.19194,0,0,0,0,0,0,0,0,0,0,0,0,0.012362413,0.013219857,0.017016167,0.019380149,0.13447386,0.10459997,0.19163534,0.23535332,0.0047849603,-0.0054792687,0.0092559345,0.005367242,164,6,231,2,0,1077.3252,185.99193,1208.598,68.29805,752263.44,770.80994,153.08244,154.38391,151.68237,151.68237,-0.8122196,1,651.84326,0,0,14.295981,14.29597,0,4,255,0,0,0,1,0,2,0
True,35334765,15999.99,0,9370.719,1.5369712,1.3515065,6.40275,-0.012187384,-0.3464204,69.01476,-0.046541974,0.0047898693,0.011972961,3.1407838,0.025094256,-0.080478124,0.28214172,0.2785267,0.35265464,0.34778494,0.09129453,0.09176101,0.121613815,0.11757585,215.93263,215.93039,216.71835,216.62602,0,0,0,0,0,0,0,0,0,0,0,0,0.00014212794,0.0009272185,-0.00054093375,0.0044744434,0.09129464,0.091765694,0.121615015,0.117660955,0.0019429252,0.0014994815,0.0130354315,0.012456462,164,6,231,2,0,1077.3447,185.74991,1201.0388,69.01564,752268.56,766.78656,153.04257,154.34389,151.74,151.74,-14.7,1,659.3543,0,0,14.406118,14.406106,0,4,255,0,0,0,1,0,255,123
True,35334890,15999.99,0,9052.43,0.6746647,5.7952347,-7.10287,0.031298578,-0.07871127,68.50247,-0.0049221897,0.0029413921,0.013859485,-3.1414988,0.018913716,-0.07949775,0.37557527,0.39524782,0.36043417,0.3764398,-0.26781046,-0.25994742,-0.079261124,-0.07814151,206.28798,206.40733,210.5251,210.53333,0,0,0,0,0,0,0,0,0,0,0,0,-0.004829006,-0.005257968,-0.0061101844,-0.0012402639,0.267854,0.2600006,0.079496294,0.07815135,0.0134040825,0.01581724,0.0139603615,0.015863314,164,6,231,2,0,1077.3484,185.52652,1192.4072,68.502525,752271.7,792.81195,153.05983,154.34766,151.80333,151.80333,-14.7,1,667.9329,0,0,14.530967,14.530953,0,3,255,255,0,0,1,0,253,0
True,35334984,15999.99,0,8672.147,0.38336635,1.1264203,-20.581345,0.04792244,0.33465457,66.12986,0.011370016,0.002242329,0.0017251447,-3.1415715,0.023667764,-0.07848338,0.3905851,0.40730664,0.29307333,0.31434566,-0.32560983,-0.32550701,-0.18980508,-0.18837757,198.14458,198.15155,201.433,201.43008,0,0,0,0,0,0,0,0,0,0,0,0,-0.0059175645,-0.0082457205,-0.00616866,-0.006853989,0.3256636,0.32561144,0.1899053,0.18850222,0.015245281,0.017296452,0.005951658,0.008480784,164,6,231,2,0,1077.3424,185.40004,1185.5325,66.13072,725817.2,798.8531,153.17314,154.44931,151.81274,151.81274,-14.7,1,674.76215,0,0,14.633131,14.633118,0,3,247,255,0,0,1,0,251,0
True,35335109,15999.99,0,8286.938,0.3040099,0.60220325,-23.018215,0.054374114,0.43168473,63.358402,0.018657539,0.003990593,-0.012001257,-3.1411881,0.023561683,-0.07823492,0.41354156,0.3597422,0.2610954,0.2744993,-0.33228984,-0.48054388,-0.20098102,-0.1685694,189.73595,187.27298,192.72443,193.15465,0,0,0,0,0,0,0,0,0,0,0,0,-0.006793248,-0.009833593,-0.006808867,-0.0082899425,0.33235928,0.48064446,0.20109633,0.16877311,0.01806127,0.011461895,0.0021497197,0.0037433468,164,6,231,2,0,1077.331,185.2686,1177.9426,63.359894,669990.94,771.4169,153.3125,154.57541,151.81601,151.81601,-14.7,1,682.3037,0,0,14.750447,14.750434,0,3,230,255,0,0,1,0,250,255
True,35335218,15999.99,0,7958.808,0.4819669,0.9894737,-24.260698,0.08261816,0.4250571,60.865036,-0.0144176185,0.017294291,-0.051401187,-3.1405365,0.022098849,-0.0832281,0.4464542,0.40897533,0.2750511,0.2464676,-0.39308214,-0.41767186,-0.1814261,-0.17884368,181.23724,180.60587,185.40445,185.32388,0,0,0,0,0,0,0,0,0,0,0,0,0.096205786,0.09546086,-0.006235359,-0.0076093054,0.40468398,0.42844203,0.18153322,0.17900547,0.022098541,0.017501146,0.0038089454,0.00041058287,164,6,231,2,0,1077.3171,185.16512,1171.6039,60.866577,451789.06,541.40076,153.43785,154.70113,151.81955,151.81955,-14.7,1,688.60046,0,0,14.852541,14.852528,0,3,155,255,0,0,1,2,248,252
True,35335328,15999.99,0,7494.1665,4.6683373,-0.15379846,-26.340029,0.011625588,0.45258945,58.039085,0.006951311,0.19595164,-0.037482716,-3.131021,0.023883821,-0.088246435,0.44259626,0.33152515,0.2775425,0.19585963,-0.41491035,-0.6370954,-0.3092908,-0.3288457,172.54402,168.11389,175.06686,174.05084,0,0,0,0,0,0,0,0,0,0,0,0,0.31416535,0.33730122,0.04092238,0.04236741,0.52043295,0.7208763,0.3119863,0.3315637,0.021625303,0.008000612,0.004105158,-0.005606331,164,6,231,2,0,1077.278,185.06783,1165.31,58.040844,273928.16,348.648,153.61388,154.89088,151.86005,151.86005,-14.7,1,694.8524,0,0,14.95845,14.958436,0,3,107,255,0,0,1,94,245,232
True,35335437,15999.99,0,7000.2456,11.190499,0.00235641,-26.486685,-0.86638,0.4710468,54.844193,0.0061326153,0.41635132,-0.012630502,-3.0919547,0.027579809,-0.08930313,0.45391816,0.3437197,0.26153696,0.17658955,-0.44816542,-1.0701476,-0.37991813,-0.42791864,162.47789,155.94443,164.07263,161.91866,0,0,0,0,0,0,0,0,0,0,0,0,0.45649573,0.509016,0.24216095,0.26884544,0.6397192,1.1850373,0.4505327,0.50536346,0.02301412,0.009496473,0.0022022165,-0.007897399,164,6,231,2,0,1077.1262,184.95488,1158.5718,54.853058,253115.33,345.45676,153.92932,155.24226,151.96762,151.96762,-14.7,1,701.557,0,0,15.077965,15.0779505,0,3,99,255,0,0,1,94,241,184
True,35335546,15999.99,0,6651.016,14.478285,-0.77306455,-22.98588,-1.7341926,0.443874,52.521454,0.016473604,0.43810475,0.00905395,-3.0490828,0.032514375,-0.08802703,0.4187007,0.313452,0.2528994,0.14710963,-0.5801488,-0.8415317,-0.43952906,-0.55386454,153.89787,147.08426,156.66852,153.90044,0,0,0,0,0,0,0,0,0,0,0,0,0.6069754,0.68108815,0.41609064,0.48014402,0.8396379,1.0826156,0.6052415,0.73301035,0.018694121,0.0057836436,0.0011752769,-0.011402344,164,6,231,2,0,1076.8729,184.8521,1153.2556,52.55195,250940.81,359.17,154.27068,155.53938,152.15192,152.15192,-14.7,1,706.8469,0,0,15.177169,15.177154,0,3,97,255,0,0,1,94,233,132
True,35335656,15999.99,0,6219.9697,15.060754,-1.2895355,-21.508009,-2.5598674,0.39963597,50.120243,0.045322996,0.40459663,0.001008519,-3.0031738,0.038215354,-0.0851103,0.3952798,0.28607652,0.24832544,0.15082139,-0.9022992,-0.9888591,-0.6005507,-0.73140836,141.96571,137.02296,147.2662,144.52019,0,0,0,0,0,0,0,0,0,0,0,0,0.809628,0.92627037,0.59128624,0.6682707,1.2122877,1.3549241,0.8427814,0.990729,0.015821163,0.0024255924,0.0006314665,-0.010961043,164,6,231,2,0,1076.4718,184.72647,1147.8942,50.18716,248980.56,380.49594,154.83002,156.0917,152.4635,152.4635,-14.7,1,712.1852,0,0,15.281972,15.281957,0,3,95,255,0,0,1,96,219,129
True,35335765,15999.99,0,6015.6685,15.859265,-1.163626,-19.89314,-3.2824526,0.46736282,47.60314,-0.026878608,0.5029291,-0.014502181,-2.9517944,0.04803954,-0.08643265,0.41546476,0.23813611,0.21786405,0.07713296,-0.65386426,-0.26746598,-0.6792875,-0.62436736,138.28362,142.84778,140.6747,135.41277,0,0,0,0,0,0,0,0,0,0,0,0,0.8695413,1.0088338,0.7897626,0.9189324,1.0879524,1.0436876,1.0417085,1.1109776,0.01829718,-0.0034550838,-0.0029901676,-0.019722052,164,6,231,2,0,1075.852,184.54832,1141.9518,47.718464,235473.47,372.93335,156.16586,157.32942,153.3413,153.3413,0,1,718.106,0,0,15.404032,15.404015,0,3,90,255,0,0,1,96,206,129
True,35335890,15999.99,0,5675.1816,24.56094,3.4554367,-21.814098,-3.354426,0.5109888,44.69433,-0.10933595,0.5760005,0.006221719,-2.886521,0.044844307,-0.08216772,0.57504284,0.36652812,0.3210466,0.10417443,-0.5110047,-0.19813779,-0.43874848,-0.8622796,131.46677,134.18158,133.32726,126.90163,0,0,0,0,0,0,0,0,0,0,0,0,0.8683752,1.0445509,0.7827678,0.9950787,1.007572,1.063177,0.89734364,1.3167033,0.037872046,0.0122943,0.00927747,-0.016507022,164,6,231,2,0,1075.029,184.38123,1136.5211,44.82294,223305.86,375.49594,157.6508,158.29459,154.08362,154.08362,0,1,723.9906,0,0,15.522825,15.522808,0,3,85,255,0,0,1,97,200,129
True,35335984,15999.99,0,5305.3276,25.490814,4.1233535,-21.955023,-3.26192,0.49005544,42.21217,-0.102788076,0.5443079,-0.0015890412,-2.8299038,0.039238088,-0.079965204,0.5969725,0.3961902,0.37411082,0.14679933,-0.61344534,-0.22153907,-0.53650135,-1.0187577,122.84962,126.38561,124.7421,118.041214,0,0,0,0,0,0,0,0,0,0,0,0,0.90816665,1.0619093,0.82258874,1.027364,1.0959388,1.0847723,0.9820824,1.4468393,0.04056208,0.01593284,0.015586417,-0.011439238,164,6,231,2,0,1074.1176,184.27525,1132.2281,42.340847,177010.23,318.18155,158.93054,159.23291,154.70874,154.70874,0,1,728.3654,0,0,15.623655,15.623638,0,3,69,255,0,0,1,96,194,129
True,35336093,15999.99,0,4900.663,22.604076,3.109951,-21.925539,-3.214139,0.42629802,39.758232,-0.058037087,0.4732537,-0.006951021,-2.7777038,0.034710396,-0.07822629,0.582919,0.4085929,0.377077,0.17417899,-0.87928027,-0.33345762,-0.771461,-1.1562183,112.35015,117.814285,114.59954,109.69809,0,0,0,0,0,0,0,0,0,0,0,0,1.0247775,1.1902376,0.8743358,1.0448556,1.3502973,1.2360662,1.1660254,1.5583851,0.038838185,0.017454237,0.015939075,-0.008183997,164,6,231,2,0,1073.0557,184.19638,1128.2561,39.890217,138134.3,268.8038,160.59058,160.35815,155.60571,155.60571,0,1,732.4676,0,0,15.723783,15.723763,0,3,55,255,0,0,1,97,188,129
True,35336218,15999.99,0,4612.391,18.031828,0.8956044,-19.834936,-3.164175,0.38416937,37.12871,-0.031593543,0.46741286,-0.011284454,-2.7262063,0.03570656,-0.07834824,0.5242274,0.37172526,0.3357566,0.18513566,-0.17090437,-1.7682415,-0.8112123,-0.6775179,113.72447,97.321785,106.048775,108.07237,0,0,0,0,0,0,0,0,0,0,0,0,1.1116873,1.319066,0.96824664,1.110112,1.1247475,2.2060401,1.2631576,1.3005303,0.031638697,0.012931813,0.011026382,-0.00688133,164,6,231,2,0,1071.6658,184.11475,1123.8881,37.265274,124363.43,258.14087,163.53278,162.12637,157.8693,157.8693,0,1,737.0348,0,0,15.842933,15.842915,0,3,50,255,0,0,1,97,186,129
True,35336328,15999.99,0,4345.4614,19.458935,1.4832513,-17.398462,-3.0752563,0.33326212,35.077065,-0.060655605,0.5341425,0.004496984,-2.6732488,0.034348324,-0.077685505,0.5211894,0.36842507,0.33646342,0.19692692,-0.88811636,-0.32601035,-0.60558355,-1.0659254,98.95754,104.34816,102.213844,97.096436,0,0,0,0,0,0,0,0,0,0,0,0,1.154301,1.3319825,0.96637154,1.174364,1.4564208,1.3712987,1.140441,1.5859784,0.031266034,0.012526993,0.011110418,-0.0054794364,164,6,231,2,0,1070.3435,184.04433,1120.3317,35.21319,119118.2,260.44406,165.47137,164.40167,159.8372,159.8372,-3.8175392,1,740.80115,0,0,15.947757,15.947738,0,3,50,255,0,0,1,95,189,129
True,35336421,15999.99,0,4141.8276,18.13644,0.77354974,-16.479198,-3.1917477,0.3086899,33.08159,0.00066710915,0.5871294,-0.014776199,-2.6153538,0.03600542,-0.07666861,0.47575986,0.31168577,0.33532238,0.18111849,-1.0336385,-0.7311409,-0.3698278,-1.0191426,90.88476,94.29768,101.60948,93.009895,0,0,0,0,0,0,0,0,0,0,0,0,1.2099822,1.4273425,1.0996468,1.3116586,1.5913723,1.6037064,1.1601706,1.6610539,0.025693364,0.005566988,0.010974761,-0.007358942,164,6,231,2,0,1068.9099,183.97821,1117.0089,33.23664,113433.94,262.8625,167.45232,166.57727,162.02692,162.02692,-8.699766,1,745.25586,0,0,16.053654,16.053633,0,3,50,255,0,0,1,98,197,129
True,35336546,15999.99,0,3864.24,18.290607,0.018437058,-12.457165,-3.3617382,0.26923916,31.342571,-0.017430205,0.6302068,-0.036827385,-2.5423691,0.04120769,-0.077351384,0.4785148,0.2638944,0.29434666,0.13431674,-0.13459304,-0.45855016,-1.036304,-1.1726079,96.328476,91.34686,87.68901,85.82631,0,0,0,0,0,0,0,0,0,0,0,0,1.2697176,1.5414325,1.2700835,1.4774733,1.2768313,1.6081923,1.6392188,1.8862493,0.0260313,-0.00029540807,0.0061030462,-0.0129233245,164,6,231,2,0,1067.1542,183.8926,1113.4872,31.52349,115503.53,283.93103,169.79904,169.24554,164.34596,164.34596,-13.259284,1,749.10504,0,0,16.175316,16.175291,0,3,53,255,0,0,1,100,210,129
True,35336656,15999.99,0,3700.4087,18.24665,0.5661713,-13.432482,-3.6868124,0.22578114,29.666908,-0.020745754,0.7162857,-0.041246958,-2.4727669,0.04392967,-0.079138696,0.46929905,0.2549501,0.32549754,0.16259316,-0.3139423,-0.7358392,-0.9053967,-0.93075645,90.181046,83.84026,85.96635,83.27374,0,0,0,0,0,0,0,0,0,0,0,0,1.3741975,1.6531359,1.4584931,1.6752187,1.4096022,1.8095075,1.7166669,1.9164199,0.024900839,-0.0013925731,0.009806659,-0.009561468,164,6,231,2,0,1065.608,183.81334,1110.785,29.895967,112748.11,292.09122,172.0376,171.74525,167.3918,167.3918,0,1,752.18066,0,0,16.276741,16.276716,0,3,54,130,0,0,1,102,221,191
True,35336765,15999.99,0,4143.6943,20.43242,0.65831035,-0.4262972,-3.67873,0.2073817,29.394169,-0.039003402,0.7026424,-0.057416417,-2.3990495,0.047334425,-0.080399714,0.44209072,0.22239654,0.32464585,0.14325741,0.22803108,0.8812832,0.3087858,0.879857,94.33532,95.55487,95.85728,96.34884,0,0,0,0,0,0,0,0,0,0,0,0,1.4297993,1.7177345,1.3929961,1.7174752,1.4478688,1.9306144,1.4268099,1.9297329,0.021563292,-0.005385801,0.009705398,-0.011860345,164,6,231,2,0,1063.9187,183.72742,1108.224,29.624197,191141.83,440.56586,173.96625,173.49886,169.832,169.832,0,1,755.23303,0,0,16.380394,16.380367,0,3,127,0,0,0,1,100,232,0
True,35336875,15999.99,0,4201.9297,21.316662,0.96529937,5.27098,-3.5623608,0.08925235,29.697304,-0.052627355,0.6537334,-0.021195754,-2.3134198,0.0473677,-0.08145922,0.45791864,0.21596791,0.38691407,0.19164026,0.2786161,0.9400405,0.34237942,0.87489843,95.64877,97.233315,97.10823,97.62435,0,0,0,0,0,0,0,0,0,0,0,0,1.4086466,1.6779314,1.2974153,1.5891421,1.435936,1.9233123,1.3418308,1.8140616,0.023504846,-0.006174378,0.017108627,-0.0061079822,164,6,231,2,0,1061.644,183.60753,1105.3196,29.910337,248681.44,565.29364,176.12946,175.84698,172.38289,172.38289,0,1,758.91504,0,0,16.50448,16.504452,0,3,173,0,0,0,1,100,240,0
True,35336984,15999.99,0,4261.997,20.829184,0.83795184,6.380292,-3.3480968,0.0059663653,30.044964,-0.04273736,0.5961967,-0.024338892,-2.2475228,0.047333345,-0.0816365,0.43159044,0.21891446,0.42913425,0.20502557,0.2909867,1.1273657,0.36250746,0.8379965,96.74365,99.877655,98.29118,98.69408,0,0,0,0,0,0,0,0,0,0,0,0,1.3601004,1.6370193,1.1970525,1.4482107,1.3908798,1.9876584,1.2507383,1.6731863,0.020275258,-0.0058129355,0.022128291,-0.004516568,164,6,231,2,0,1059.5354,183.49576,1103.0448,30.230936,273893.16,613.76355,177.67662,177.67188,174.0297,174.0297,0,1,761.9995,0,0,16.607737,16.607706,0,3,211,0,0,0,1,109,242,0
True,35337109,15999.99,0,4840.791,-3.583869,0.7959356,32.086807,-5.710351,0.12982267,33.80638,0.06454551,0.4419133,-0.040780585,-2.187302,0.054922428,-0.08108591,0.3536742,0.17764837,0.41527003,0.22969583,0.50332063,1.1228033,0.5913998,1.0601739,109.541275,112.1906,111.61247,112.98471,0,0,0,0,0,0,0,0,0,0,0,0,2.0966434,2.3097668,1.7662077,2.0698304,2.156211,2.5682113,1.8625904,2.3255465,0.010717556,-0.010874897,0.020479944,-0.001583457,164,6,231,2,0,1056.7556,183.34975,1100.2461,34.28551,328250.94,649.4069,180.11717,180.38397,176.19572,176.19572,0,1,766.0065,0,0,16.728577,16.728548,0,3,250,0,0,0,1,16,246,0
True,35337203,15999.99,0,4894.5845,11.93008,-1.3104368,10.439774,-5.7625895,0.00015604496,34.057693,0.0052830297,0.48865035,0.02602908,-2.1396737,0.062110815,-0.07968392,0.27832943,0.1938833,0.34311736,0.17918232,0.41143882,0.9027541,0.59557587,1.0667273,110.98068,112.703384,113.19481,114.17501,0,0,0,0,0,0,0,0,0,0,0,0,1.4585317,1.6315323,1.7128721,2.0375018,1.5154526,1.8646348,1.8134613,2.2998524,0.0014752857,-0.008883417,0.01190152,-0.007589139,164,6,231,2,0,1054.1837,183.19531,1097.7974,34.54177,283412.6,553.03174,181.99551,182.4473,179.49602,179.49602,0,1,769.52545,0,0,16.83191,16.83188,0,3,255,0,0,0,1,0,253,0
True,35337328,15999.99,0,4945.311,16.285175,-1.0246668,6.711706,-5.6483755,-0.07359266,34.426132,-0.0011660615,0.46677497,0.051652044,-2.0824876,0.06669476,-0.0710144,0.2450235,0.19250712,0.28615275,0.18322189,0.388667,1.0062021,0.5884646,1.0248054,111.90441,114.750534,114.2643,115.10895,0,0,0,0,0,0,0,0,0,0,0,0,1.4243845,1.6038983,1.6686034,1.9633683,1.4764596,1.8933917,1.7693298,2.2147326,-0.0026102327,-0.009052228,0.005128853,-0.0071088634,164,6,231,2,0,1051.0077,182.97696,1095.0988,34.886505,275216.16,531.5065,183.41483,184.13925,183.23396,183.23396,0,1,773.6721,0,0,16.952143,16.952114,0,3,255,0,0,0,1,0,4,0
True,35337437,15999.99,0,4995.875,16.554256,-1.4773946,6.23819,-5.309761,-0.05685824,34.803467,0.060759924,0.34541053,0.01955827,-2.0419822,0.073486716,-0.06432271,0.21726434,0.12603278,0.2955966,0.16986942,0.36450934,1.1105376,0.58268905,1.0096482,112.48242,117.052895,115.08103,116.33303,0,0,0,0,0,0,0,0,0,0,0,0,1.3632107,1.5660424,1.5453867,1.8343744,1.4111025,1.9198393,1.651589,2.0938766,-0.006015349,-0.017206395,0.0062516592,-0.008696374,164,6,231,2,0,1048.1249,182.7589,1092.9203,35.20622,273584.1,523.17505,184.36064,185.44559,186.01164,186.01164,0,1,777.27045,0,0,17.055433,17.055405,0,3,255,0,0,0,1,0,5,0
True,35337531,15999.99,0,5046.5093,16.261896,-1.5742484,6.6021867,-4.971713,-0.09150401,35.251404,0.01073832,0.3836427,0.053091224,-2.004163,0.07922359,-0.058010098,0.20378576,0.1686332,0.2644625,0.15874198,0.37032098,0.88537717,0.5724127,0.9885905,114.12411,116.73427,116.582565,117.71959,0,0,0,0,0,0,0,0,0,0,0,0,1.2295065,1.3863428,1.4275023,1.6889639,1.2840654,1.6449435,1.5379919,1.9570156,-0.0076687187,-0.011980759,0.0025500432,-0.010019343,164,6,231,2,0,1045.1161,182.50665,1090.8699,35.600388,327283.16,619.4601,184.96066,186.31184,187.96748,187.96748,0,1,780.88995,0,0,17.15855,17.158522,0,3,255,0,0,0,1,0,2,0
True,35337640,15999.99,0,5102.4565,17.47447,-0.88052773,7.119195,-4.476243,-0.1149573,35.772804,0.009665099,0.3402398,0.048949778,-1.9665703,0.08187997,-0.04951206,0.25008604,0.19349886,0.29809248,0.18976139,0.34763616,0.9563846,0.49335882,0.9069213,115.41849,119.10301,117.47759,118.825134,0,0,0,0,0,0,0,0,0,0,0,0,1.1236693,1.2784326,1.2311053,1.4926465,1.1762158,1.596578,1.3262818,1.7465681,-0.0019892305,-0.008930575,0.006548401,-0.0063313656,164,6,231,2,0,1041.9928,182.22897,1088.9697,36.051952,355800.72,666.10046,185.34567,186.9788,189.41023,189.41023,0,1,784.51105,0,0,17.260902,17.260874,0,3,255,0,0,0,1,4,246,0
True,35337765,15999.99,0,5180.0903,17.168125,-1.0625986,7.715625,-3.752738,-0.10526244,36.439827,0.024192188,0.26810777,0.04414158,-1.9357156,0.08575947,-0.041814476,0.31676593,0.2224748,0.32973468,0.22474389,0.29099405,0.9321396,0.4994332,0.8329686,116.792,121.24023,119.35214,120.57705,0,0,0,0,0,0,0,0,0,0,0,0,0.906083,1.0392897,1.0437974,1.2149782,0.95166373,1.3960685,1.1571286,1.4730949,0.006190151,-0.005376201,0.010310423,-0.0021722056,164,6,231,2,0,1038.6521,181.92102,1087.1747,36.632706,391329.66,721.66064,184.84723,187.01636,189.89716,189.89716,-3.23944,1,788.2484,0,0,17.365612,17.365582,0,3,255,0,0,0,1,0,226,0
True,35337875,15999.99,0,5278.874,19.410973,0.041292302,9.391403,-2.5050144,-0.14675835,37.49811,-0.028377978,0.19550654,0.035773486,-1.9022819,0.08541911,-0.033778954,0.2976058,0.18526663,0.37105182,0.2531562,0.19842891,0.94519156,0.35519752,0.6444066,119.045235,125.16152,121.124504,122.495674,0,0,0,0,0,0,0,0,0,0,0,0,0.57095444,0.6810413,0.65713286,0.7810753,0.60445267,1.1649911,0.7469865,1.01259,0.0038398504,-0.009940393,0.0152227245,0.0012058057,164,6,231,2,0,1034.3417,181.51166,1085.1797,37.581978,507757.97,918.87616,183.97801,186.10468,189.10886,189.10886,-11.73634,1,792.87933,0,0,17.494164,17.494135,0,3,255,0,0,0,1,0,193,0
True,35338000,15999.99,0,5405.4644,15.605909,-0.6992193,10.388405,-0.7445326,-0.2063019,38.73744,0.038994603,-0.058254465,-0.06679753,-1.895871,0.085809566,-0.034309644,0.32232112,0.15678565,0.3772899,0.22930431,0.21084568,0.9981832,0.3182787,0.37919804,122.270424,130.21263,123.72793,124.42553,0,0,0,0,0,0,0,0,0,0,0,0,0.22805381,0.2546872,0.17467816,0.1910106,0.31058726,1.0301627,0.3630617,0.42458946,0.006871585,-0.013434054,0.015964381,-0.0016300045,164,6,231,2,0,1030.0228,181.10274,1083.5197,38.74514,580727.25,1026.5203,183.02327,185.03482,187.82918,187.82918,-14.7,1,797.31647,0,0,17.615934,17.615908,0,3,255,0,0,0,1,0,156,0
True,35338109,15999.99,0,5553.9995,5.718418,-1.6476277,11.424802,-0.03696823,-0.2396928,39.934677,0.020687759,-0.056089893,-0.13420968,-1.9031923,0.09025738,-0.045697518,0.28975922,0.13662821,0.3590018,0.24506328,0.21330342,0.57854986,0.3896748,0.34408596,126.12491,131.16498,128.28871,127.83623,0,0,0,0,0,0,0,0,0,0.120000005,0,0.120000005,0.03914637,0.050280083,-0.0021114615,0.002337761,0.21686582,0.5807306,0.38968053,0.34409392,0.002877336,-0.015906693,0.013790064,0.00024361908,164,6,231,2,0,1026.214,180.72354,1082.184,39.935413,749569.2,1291.7344,182.15016,184.01367,186.65259,186.65259,-4.519472,1,801.1541,0,0,17.718973,17.718948,0,3,255,0,0,0,1,0,129,0
True,35338218,15999.99,0,5678.5767,-1.3467059,1.3649141,11.94145,0.007905006,-0.42982084,41.171886,-0.023754299,-0.11099227,-0.018703822,-1.9099863,0.08103375,-0.06045879,0.27726364,0.2743329,0.3576187,0.29138756,0.23906596,0.5612429,0.26857722,0.15151395,129.75803,134.89317,130.65349,130.35635,0,0,0,0,0,0,0,0,0,0.120000005,0,0.120000005,-0.3217035,-0.35890052,-0.037252937,-0.024088291,0.40080628,0.6661855,0.27114847,0.15341683,0.0013445467,0.000985045,0.0136256255,0.00575123,164,6,231,2,0,1022.2192,180.3176,1080.7902,41.17413,735989.56,1239.5493,181.34312,182.98962,185.55536,185.55536,-4.9157915,1,806.44415,0,0,17.823797,17.823774,0,3,255,0,0,0,1,-91,129,0
True,35338343,15999.99,0,5888.31,-4.612575,3.084742,11.830224,0.30584908,-0.20972937,42.621593,-0.005570921,-0.14370671,-0.009064398,-1.9338169,0.07670428,-0.072789416,0.30864364,0.32737854,0.3799282,0.31425354,0.57000256,0.38763428,0.20016949,0.12919898,138.74275,137.6936,135.18286,134.37979,0,0,0,0,0,0,0,0,0.120000005,0.59999996,0.120000005,0.59999996,-0.024068927,-0.029578509,-0.122571595,-0.08192957,0.5705105,0.38876113,0.23471604,0.15298638,0.0051938184,0.007491961,0.016278062,0.008469831,164,6,231,2,0,1017.2583,179.85384,1078.9857,42.623203,752301.7,1225.5369,180.45576,181.58905,184.2865,184.2865,-3.3986835,1,811.7214,0,0,17.950207,17.950182,0,3,255,0,0,0,1,0,129,0
True,35338453,15999.99,0,6046.695,-2.2966127,4.43277,10.394251,0.3770857,-0.40950298,43.66986,-0.040171057,0.05520247,-0.08110169,-1.9377866,0.060014173,-0.07799719,0.37483168,0.32771736,0.4876287,0.28255683,1.0348114,0.38912094,0.1436874,0.14737199,147.23364,139.09645,137.6934,137.79059,0,0,0,0,0,0,0,0,0.120000005,0.120000005,0.120000005,0.59999996,0.18908146,0.19159122,-0.06483017,-0.058102377,1.0519441,0.4337307,0.15763572,0.15841208,0.013312865,0.007533524,0.02908285,0.0047013275,164,6,231,2,0,1013.0324,179.50748,1077.4075,43.67341,597423.3,943.0668,179.73932,180.41843,183.29529,183.29529,-6.2270594,1,816.22986,0,0,18.055058,18.055033,0,3,255,0,0,0,1,121,129,0
True,35338562,15999.99,0,6104.9795,5.6405687,1.4546201,9.4298,0.27793694,-0.3267309,44.64914,-0.11415452,0.3057647,0.0017509665,-1.9184227,0.05837167,-0.07626595,0.24425738,0.20341054,0.4079379,0.26053134,0.38391235,0.11883095,0.16055186,0.11634914,143.76575,139.51912,141.37683,139.90222,0,0,0,0,0,0,0,0,0,0.120000005,0.120000005,0.120000005,0.42615038,0.36089766,0.017881189,0.013344411,0.57357895,0.37995777,0.16154453,0.11711189,-0.0027042106,-0.0077147447,0.019608207,0.002082657,164,6,231,2,0,1008.72546,179.19595,1075.824,44.651196,747406.9,1168.4104,179.15843,179.59927,182.36551,182.36551,-5.57812,1,820.81213,0,0,18.15924,18.159216,0,3,255,0,0,0,1,121,129,0
True,35338656,15999.99,0,5856.723,10.353817,2.1648638,4.508395,-0.32133102,-0.4246018,44.933556,-0.0103529245,0.4208274,-0.10800914,-1.8824989,0.055125248,-0.071873054,0.26514453,0.21412258,0.3638721,0.29153612,-0.56154627,-0.57026,-0.18074109,-0.2490102,131.74075,132.2836,136.95718,137.07025,0,0,0,0,0,0,0,0,0,0.120000005,0,0.120000005,0.5191564,0.612067,0.18000188,0.18553191,0.76475984,0.8365539,0.25508434,0.31052884,-0.00014206022,-0.006400738,0.0143691115,0.005768895,164,6,231,2,0,1004.9534,178.94077,1074.5298,44.936703,650419.3,1062.8446,178.74603,178.97786,181.65398,181.65398,-6.7499137,1,827.2693,0,0,18.248112,18.248087,0,3,213,239,0,0,1,122,129,137
True,35338765,15999.99,0,5641.463,17.506853,3.03598,-16.178068,-0.6124964,0.1865322,43.004288,0.09833669,0.4529071,0.0609309,-1.8324069,0.06560691,-0.074095555,0.4805279,0.21703137,0.33273458,0.22110102,-0.24776134,-0.31916866,-0.17022438,-0.11750809,130.18118,127.33815,131.71089,130.51476,0,0,0,0,0,0,0,0,0,0.120000005,0,0.120000005,0.45807892,0.49072272,0.24443974,0.24062707,0.5207898,0.5853866,0.297871,0.26778635,0.026278242,-0.006043926,0.010667086,-0.0026053153,164,6,231,2,0,1000.11206,178.6235,1073.0404,43.009052,245464.89,415.2103,178.41441,178.35268,180.80774,180.80774,0,1,832.0797,0,0,18.363165,18.363138,0,3,0,255,0,0,1,121,129,129
True,35338875,15999.99,0,5386.101,21.620089,3.3144653,-18.159134,-0.9218521,0.5648196,40.644516,-0.06969426,0.62859833,-0.047070105,-1.7687441,0.06804144,-0.06862459,0.5603781,0.35292584,0.30067533,0.12905163,-0.13281685,-0.26122123,-0.2130294,-0.025770986,125.61173,121.283134,125.54237,124.25532,0,0,0,0,0,0,0,0,0,0,0,0,0.50831395,0.6044865,0.3930687,0.4742665,0.5253793,0.65851384,0.4470845,0.47496617,0.03607317,0.010625757,0.0068554804,-0.013549307,164,6,231,2,0,995.4439,178.35875,1071.8662,40.658886,116526.17,206.84712,178.20454,177.84319,180.08781,180.08781,0,1,836.7197,0,0,18.47884,18.478815,0,3,81,88,0,0,1,114,170,212
True,35339015,15999.99,0,5692.281,23.120308,3.0876536,4.0715065,-1.5105572,0.16650441,41.04219,-0.16212958,0.6798414,-0.030962233,-1.6787932,0.05569637,-0.068177156,0.555827,0.31363428,0.41878128,0.19384743,0.15841429,0.5340173,0.17387588,0.50921375,130.85675,131.4395,131.56558,131.69322,0,0,0,0,0,0,0,0,0,0,0,0,0.63384163,0.7552308,0.47308025,0.5922232,0.6533378,0.9249584,0.5040216,0.7810423,0.035514906,0.0058060028,0.020897403,-0.0058455653,164,6,231,2,0,990.33875,178.09218,1070.9265,41.070316,565638.7,949.31824,177.94807,177.29008,179.48021,179.48021,0,1,841.7987,0,0,18.606543,18.60652,0,3,231,0,0,0,1,112,214,0
True,35339125,15999.99,0,5849.409,23.51504,3.1989555,9.1912565,-1.678565,-0.08356744,41.940178,-0.07600652,0.53033155,-0.075684555,-1.610541,0.045638792,-0.069169246,0.54237556,0.27508307,0.48184916,0.24573293,0.20047334,1.0123955,0.18622133,0.4674296,133.64085,139.39087,134.13089,134.50456,0,0,0,0,0,0,0,0,0,0,0,0,0.7422199,0.9048144,0.45902005,0.57486933,0.7688173,1.3578048,0.49535623,0.74092185,0.033864863,0.0010770634,0.028395705,0.000323236,164,6,231,2,0,985.84827,177.88176,1070.4283,41.973835,542035,885.2883,177.82048,176.9791,179.12483,179.12483,-14.7,1,846.3233,0,0,18.715435,18.715414,0,3,242,0,0,0,1,115,248,0
True,35339234,15999.99,0,5986.673,18.54428,0.20001936,9.134352,-1.69653,-0.1418286,42.80064,0.034431018,0.3845669,-0.058430444,-1.5619863,0.048029635,-0.07457987,0.41644943,0.24013875,0.53765917,0.313254,0.33256584,0.9256893,0.26499245,0.51675516,137.34592,141.60614,137.25279,137.94972,0,0,0,0,0,0,0,0,0,0,0,0,0.8414177,0.9435736,0.44762686,0.5406047,0.9047562,1.321829,0.52018344,0.7478565,0.018417966,-0.003209427,0.035031103,0.008350994,164,6,231,2,0,981.2218,177.66995,1070.1836,42.83448,524507.44,837.03204,177.69397,176.98132,178.75287,178.75287,-14.7,1,850.7669,0,0,18.824776,18.824753,0,3,251,0,0,0,1,115,26,10
True,35339343,15999.99,0,6115.1675,14.502529,-2.4360762,8.293842,-1.8127602,-0.17400056,43.60317,0.050053902,0.3610323,-0.0068693683,-1.5235921,0.057626873,-0.075461864,0.26654053,0.14657412,0.3762001,0.2435465,0.29924846,0.90119493,0.32701886,0.60164493,139.4443,144.1201,140.42223,141.43071,0,0,0,0,0,0,0,0,0,0,0,0,0.8307263,0.95211124,0.48895174,0.5589023,0.88298124,1.3109798,0.58823055,0.82118726,2.9183924E-05,-0.014686663,0.015834816,6.328523E-05,164,6,231,2,0,976.4275,177.41365,1070.1255,43.641174,507846.6,793.2746,177.58804,177.06677,178.36801,178.36801,-14.7,1,855.41595,0,0,18.935797,18.935774,0,3,255,0,0,0,1,112,61,55
True,35339468,15999.99,0,6242.8145,12.975505,-3.4567602,7.697624,-1.9375737,-0.17449617,44.44665,0.082029544,0.31319833,0.01675377,-1.4837787,0.070290096,-0.073435776,0.27879378,0.16946585,0.30732155,0.17628336,0.32628986,0.71185726,0.38804692,0.6967008,142.2388,144.89665,143.76028,145.24588,0,0,0,0,0,0,0,0,0,0,0,0,0.86841905,0.96355826,0.5081568,0.58632153,0.92769426,1.1979922,0.6393776,0.910585,0.0015322454,-0.011878617,0.0076456666,-0.007933803,164,6,231,2,0,970.938,177.05858,1070.2648,44.4892,503714.84,770.88116,177.49493,177.38434,178.00186,178.00186,-14.7,1,860.7876,0,0,19.060646,19.060621,0,3,255,0,0,0,1,112,100,15
True,35339562,15999.99,0,6303.8125,13.165659,-3.2923138,7.4579496,-2.0002518,-0.20528448,45.14687,0.08177101,0.29395384,0.028228756,-1.449931,0.07802264,-0.06530716,0.25314027,0.1763359,0.3306528,0.26673406,0.23630954,1.1440183,0.20282575,0.51418394,143.23375,151.9448,143.99713,145.00032,0,0,0,0,0,0,0,0,0.120000005,0,0.120000005,0,0.77755296,0.9574973,0.3939227,0.564637,0.812669,1.4918374,0.44307265,0.7636754,-0.0016145781,-0.011035893,0.010419577,0.0028201155,164,6,231,2,0,966.28217,176.70439,1070.5435,45.191628,453212.34,685.13367,177.30238,177.37512,177.68158,177.68158,-14.7,1,865.07654,0,0,19.164951,19.164927,0,3,255,0,0,0,1,102,127,0
True,35339671,15999.99,0,6514.0254,12.689991,-3.7143648,6.7126102,-2.0832868,-0.28439522,45.75504,0.03469441,0.30140832,0.13730879,-1.4188364,0.08600267,-0.06005311,0.19778349,0.15753748,0.25649938,0.19948767,0.8605284,0.61958057,0.6100821,0.8542221,153.18376,148.86278,147.57149,152.67229,0,0,0,0,0,0,0,0,0.120000005,0.120000005,0.120000005,0,0.9665116,0.9361237,0.42546162,0.59059596,1.2940842,1.1225897,0.7437861,1.038508,-0.008404996,-0.013341831,0.0016032867,-0.0051749833,164,6,231,2,0,961.6214,176.31273,1070.9803,45.803318,298216.34,434.58377,177.14749,177.42453,177.3106,177.3106,-11.76,1,869.6536,0,0,19.268156,19.268135,0,3,255,0,0,0,1,103,127,0
True,35339796,15999.99,0,6597.1353,14.543899,-1.4627111,6.756853,-1.813582,-0.11433536,46.449493,-0.056667462,0.32263827,-0.06117286,-1.3854938,0.09034074,-0.047968972,0.14702639,0.19392577,0.3180102,0.16665006,0.05050926,0.7561363,0.6336073,1.0620735,145.6527,152.91464,152.3344,155.70592,0,0,0,0,0,0,0,0,0.59999996,0.120000005,0.120000005,0.120000005,0.49078006,0.93181694,0.47733954,0.4941346,0.49337232,1.2000103,0.7932914,1.1713961,-0.014631186,-0.008878209,0.008916471,-0.009079132,164,6,231,2,0,956.7406,175.87129,1071.6088,46.48502,357989.06,516.01117,176.77762,177.09064,177.02853,177.02853,-11.76,1,874.49805,0,0,19.375122,19.3751,0,3,255,0,0,0,1,102,127,0
True,35339890,15999.99,0,6615.837,12.779106,-1.458967,6.2432895,-1.8269677,-0.11563352,47.013466,0.15306604,0.22809196,0.048005283,-1.3573045,0.09208568,-0.04126328,0.14724368,0.11816783,0.26490057,0.1957941,0.8395418,0.9799633,0.07508825,0.6892694,155.3503,156.01778,147.6266,154.82162,0,0,0,0,0,0,0,0,0.59999996,0.120000005,0.59999996,0.120000005,0.8346262,0.8734389,0.36585888,0.5323052,1.1838206,1.3127161,0.37348488,0.87088525,-0.014604531,-0.018171161,0.0026021264,-0.0056141205,164,6,231,2,0,952.4435,175.47688,1072.3163,47.04909,388332.66,561.42596,176.21783,176.8742,176.42432,176.42432,-11.76,1,878.80725,0,0,19.468569,19.468544,0,3,255,0,0,0,1,97,127,0
True,35340015,15999.99,0,6702.773,12.618402,-2.0168486,6.819993,-2.0179825,-0.27102825,47.632927,0.06444965,0.27268052,0.11953893,-1.3257773,0.096512556,-0.018957833,0.096931666,0.16471072,0.06680982,0.08380259,0,1.1262926,0.31119624,0.30321673,159.56322,160.42102,152.39977,151.57574,0,0,0,0,0,0,0,0,0,0.120000005,0.59999996,0.120000005,0,0.95899725,0.4036699,0.5206399,0,1.4792602,0.5096984,0.6025,-0.020776125,-0.012461914,-0.020949397,-0.018929083,164,6,231,2,0,947.2415,174.95277,1073.3016,47.676426,585551.9,834.6836,175.57556,176.57748,175.70306,175.70306,-10.699047,1,884.0646,0,0,19.581003,19.58098,0,3,255,0,0,0,1,100,127,0
True,35340125,15999.99,0,7092.8984,12.20543,-2.823752,6.647853,-1.9958849,0.10253557,48.367054,0.15352628,0.2650458,0.7402012,-1.2963421,0.10721709,0.03690729,0.07936911,0.5559165,0.07680221,0.27706093,0,0.24258526,1.0062611,1.357064,170.13359,153.06178,164.2663,165.7376,0,0,0,0,0,0,0,0,0,0.120000005,0.59999996,0.120000005,0,0.91752815,0.442496,0.5288067,0,0.9490551,1.0992562,1.4564543,-0.02293046,0.03552588,-0.019761376,0.004047904,164,6,231,2,0,941.8309,174.37529,1074.5049,48.408325,598100.5,808.7742,174.99353,176.35103,174.93134,174.93134,-10.730754,1,889.7477,0,0,19.696869,19.696846,0,3,255,0,0,0,1,98,127,0
True,35340218,15999.99,0,7484.0005,5.666097,-5.6690664,4.728595,-2.8856335,-0.08434796,48.71639,-0.17131327,0.36628026,1.5612683,-1.2685022,0.10860475,0.14074239,0.17095265,0.8925506,0.0598231,0.2747237,0,0.092728056,0,1.9040368,182.32277,151.75658,175.96811,175.98395,0,0,0,0,0,0,0,0,0.120000005,0.120000005,0.59999996,0.120000005,0,0.27733198,0,0.61096287,0,0.29242352,0,1.9996579,-0.011696238,0.07681957,-0.021780066,0.0037700236,164,6,231,2,0,937.4475,173.86111,1075.5674,48.80185,449572.72,574.2099,174.57289,176.15549,174.3712,174.3712,-10.228071,1,894.2514,0,0,19.790272,19.790249,0,3,255,0,0,0,1,0,127,0
True,35340343,15999.99,0,6823.606,25.656643,13.505959,2.6820097,-0.8792038,-0.29740095,49.354088,-0.6558116,0.16295539,-0.74575776,-1.2440513,0.042035785,0.20704931,0.9733518,0.4079944,0.7887733,0.69859546,0.0018365124,0.060094617,0.59915346,0.19539945,154.81384,154.05684,162.45816,156.12756,0,0,0,0,0,0,0,0,0.120000005,0.120000005,0.59999996,0.120000005,0.065010786,0.09006259,0.12279826,0.2572907,0.06503672,0.108271115,0.6116079,0.32307807,0.086731166,0.017380819,0.06488671,0.054165237,164,6,231,2,0,931.32214,173.34186,1077.3492,49.36281,752255,1055.9031,174.13702,175.8606,173.7504,173.7504,-4.0894136,1,900.6079,0,0,19.9204,19.92038,0,3,255,0,0,0,1,0,127,0
True,35340453,15999.99,0,7287.2188,7.1369996,13.126223,6.430825,0.15395641,-0.91055626,50.050774,0.19893083,-0.18305603,-1.6138363,-1.2563109,-0.004446103,0.051713508,0.27512515,0.23711124,0.7444084,0.39686093,0,0,1.3779681,0.2126656,172.28369,173.13657,172.60509,159.20856,0,0,0,0,0,0,0,0,0,0,0,0.120000005,0,0,-0.13070859,0.03397049,0,0,1.3841534,0.21536168,0.0010822266,-0.0035808012,0.059612058,0.018291239,164,6,231,2,0,926.19885,173.22421,1079.017,50.05929,688687.06,904.02057,174.0475,175.39693,173.34534,173.34534,-6.5055485,1,905.8931,0,0,20.02881,20.028788,0,3,255,0,0,0,1,0,127,0
True,35340546,15999.99,0,8553.068,1.9621018,-6.8548503,1.2645121,1.2482815,-0.7685102,50.06112,0.24955639,-0.2171812,-1.2842228,-1.2759614,0.018203957,-0.07171129,0.056584604,0.051889602,0.12746692,0.11736718,0,0,0,0,195.92317,195.93056,199.03502,197.7559,0,0,0,0,0,0,0,0,0,0,0,0,0,0,0,0,0,0,0,0,-0.025725354,-0.026301272,-0.013737718,-0.014938502,164,6,231,2,0,921.904,173.11653,1080.4336,50.082577,752263.06,843.62317,173.57115,174.8144,173.16693,173.16693,-5.5043545,1,910.382,0,0,20.119093,20.11907,0,3,255,0,0,0,1,2,127,0
