IsRaceOn,TimestampMS,EngineMaxRpm,EngineIdleRpm,CurrentEngineRpm,AccelerationX,AccelerationY,AccelerationZ,VelocityX,VelocityY,VelocityZ,AngularVelocityX,AngularVelocityY,AngularVelocityZ,Yaw,Pitch,Roll,NormalizedSuspensionTravelFrontLeft,NormalizedSuspensionTravelFrontRight,NormalizedSuspensionTravelRearLeft,NormalizedSuspensionTravelRearRight,TireSlipRatioFrontLeft,TireSlipRatioFrontRight,TireSlipRatioRearLeft,TireSlipRatioRearRight,WheelRotationSpeedFrontLeft,WheelRotationSpeedFrontRight,WheelRotationSpeedRearLeft,WheelRotationSpeedRearRight,WheelOnRumbleStripFrontLeft,WheelOnRumbleStripFrontRight,WheelOnRumbleStripRearLeft,WheelOnRumbleStripRearRight,WheelInPuddleDepthFrontLeft,WheelInPuddleDepthFrontRight,WheelInPuddleDepthRearLeft,WheelInPuddleDepthRearRight,SurfaceRumbleFrontLeft,SurfaceRumbleFrontRight,SurfaceRumbleRearLeft,SurfaceRumbleRearRight,TireSlipAngleFrontLeft,TireSlipAngleFrontRight,TireSlipAngleRearLeft,TireSlipAngleRearRight,TireCombinedSlipFrontLeft,TireCombinedSlipFrontRight,TireCombinedSlipRearLeft,TireCombinedSlipRearRight,SuspensionTravelMetersFrontLeft,SuspensionTravelMetersFrontRight,SuspensionTravelMetersRearLeft,SuspensionTravelMetersRearRight,CarOrdinal,CarClass,CarPerformanceIndex,DrivetrainType,NumCylinders,PositionX,PositionY,PositionZ,Speed,Power,Torque,TireTempFl,TireTempFr,TireTempRl,TireTempRr,Boost,Fuel,Distance,BestLapTime,LastLapTime,CurrentLapTime,CurrentRaceTime,Lap,RacePosition,Accelerator,Brake,Clutch,Handbrake,Gear,Steer,NormalDrivingLine,NormalAiBrakeDifference
True,36896218,15999.99,0,787.5017,-2.3460178,-0.02118171,12.784884,-0.38341403,-0.035072144,5.0397263,-0.0027986052,-0.31253392,-0.011842513,2.9089816,-0.0093409745,0.007877309,0.16187117,0.21594995,0.28712928,0.31304482,1.1532607,0.16804269,2.1924336,-0.0015100159,17.081333,17.225971,18.523855,18.967789,0,0,0,0,0,0,0,0,0,0,0,0,-0.12419569,-0.09123781,-0.025829688,-0.021070754,1.1599288,0.19121371,2.1925857,0.021124791,-0.012810232,-0.0061765797,0.0052449554,0.008326124,164,6,231,2,0,-5076.55,178.17674,-200.37245,5.054412,121066.54,1546.6406,119.50252,109.50674,121.46599,121.46599,0,1,146.60742,159.95755,159.95755,0,225.90742,1,12,255,0,0,0,1,-34,215,0
True,36948625,15999.99,0,121.08128,0.28631163,0.011747688,5.489667,0.011826575,-0.0023211539,0.59920925,-0.025181983,0.00058317254,-0.0096391775,2.2961397,0.10530646,-0.058993928,0.25567257,0.26640287,0.24448644,0.2481735,0.82495666,-0.052672762,1.328203,-0.050867606,1.767932,3.1635518,1.7676635,4.182531,0,0,0,0,0,0,0,0,0,0,0,0,0.0037175843,0.0036776066,-0.029349072,-0.02934192,0.82496506,0.052800994,1.3285272,0.058723602,-0.0013039485,1.2297183E-05,0.00017503649,0.0006134026,164,6,231,2,0,-3876.8936,313.68073,4061.6243,0.59933037,8969.418,722.0656,100.521164,100.55892,103.554245,103.554245,0,1,-59.23623,0,0,0.09346269,0.09346268,0,7,255,0,0,0,1,0,49,0
True,36948718,15999.99,0,307.8304,-0.034819126,0.044478,12.155443,0.0075364113,0.00020959973,1.8991411,-0.03723164,-0.0015869662,-0.017710235,2.2962456,0.10221037,-0.060456518,0.237166,0.25894085,0.27911368,0.29475036,1.4510553,0.4737112,0.6355809,0.44900915,8.511163,6.3383613,7.068021,6.809031,0,0,0,0,0,0,0,0,0,0,0,0,-0.009636284,-0.008282971,-0.018894656,-0.018895205,1.4510872,0.4737836,0.6358617,0.44940656,-0.0035740845,-0.0009030439,0.004291963,0.0061510466,164,6,231,2,0,-3876.8054,313.66812,4061.5452,1.899156,47002.156,1484.5374,100.68103,100.72801,103.78766,103.78766,0,1,-59.14806,0,0,0.19198838,0.19198835,0,7,255,0,0,0,1,0,49,0
True,36948843,15999.99,0,590.9255,0.072743416,0.07236141,14.149347,0.009001613,0.013899833,3.6140552,-0.011888181,-0.008267246,-0.004195616,2.295988,0.09965385,-0.062234413,0.20951225,0.24348463,0.30455953,0.3335369,1.5831584,0.48176658,2.2770102,0.8832996,14.332598,12.023812,14.814724,12.98678,0,0,0,0,0,0,0,0,0,0,0,0,0.0048590614,0.00632201,-0.046195116,-0.042498954,1.5831658,0.48180807,2.2774787,0.8843214,-0.0069662705,-0.0027990006,0.0073172823,0.010762479,164,6,231,2,0,-3876.5618,313.63672,4061.328,3.6140933,94651.57,1546.6406,103.73126,100.85666,104.27992,104.27992,0,1,-58.90528,0,0,0.31037834,0.31037828,0,7,255,0,0,0,1,0,49,0
True,36948953,15999.99,0,774.646,0.10348797,-0.21651173,13.743538,0.009281397,-0.020341516,5.1191196,-0.00080583966,-0.0009562584,-0.0029854635,2.2954323,0.09932004,-0.062497225,0.17061178,0.2090835,0.28093478,0.316266,1.1132542,0.14373085,1.6349212,0.13742837,17.610064,17.003857,17.690931,18.719952,0,0,0,0,0,0,0,0,0,0,0,0,-0.0040742597,-0.002340712,-0.031766605,-0.029389177,1.1132617,0.14374991,1.6352298,0.1405357,-0.011738051,-0.007018864,0.0045084767,0.008709099,164,6,231,2,0,-3876.1846,313.58594,4060.9924,5.1191683,120239.305,1546.6406,104.217285,101.01014,106.16701,106.16701,0,1,-58.529705,0,0,0.42649505,0.42649496,0,7,255,0,0,0,1,0,49,0
True,36949078,15999.99,0,1044.5917,0.079661846,-0.17153263,15.858152,0.010929108,-0.051407635,7.2042866,-0.010035182,-0.0072101536,0.0010584807,2.2947774,0.09820315,-0.062369898,0.14439726,0.17849693,0.2818521,0.31532645,1.8976228,0.48945627,0.8060504,0.51836145,26.108171,23.31849,24.108442,23.50314,0,0,0,0,0,0,0,0,0,0,0,0,-0.0033486928,-0.0014148178,-0.028841179,-0.026680311,1.8976258,0.48945832,0.80656624,0.5190476,-0.0149536915,-0.010770811,0.0046175346,0.008597389,164,6,231,2,0,-3875.584,313.5015,4060.4597,7.2044787,167954.72,1546.6406,106.02936,101.18063,107.0202,107.0202,0,1,-57.932125,0,0,0.5573975,0.5573974,0,7,255,0,0,0,1,0,49,0
True,36949187,15999.99,0,1272.8208,0.2161498,-0.2146014,15.827665,0.010432243,-0.07659763,8.769967,0.0023084986,-0.0063027297,0.013733283,2.294098,0.09770898,-0.061803438,0.12344459,0.16534361,0.28213966,0.31608835,1.96824,0.49726084,0.7349908,0.6167927,31.95657,28.41006,29.104706,28.833164,0,0,0,0,0,0,0,0,0,0,0,0,-0.008461033,-0.006277832,-0.025029162,-0.023168135,1.9682583,0.49730048,0.7354168,0.6172277,-0.017523881,-0.012384279,0.004651729,0.008687977,164,6,231,2,0,-3875.0046,313.41925,4059.9468,8.770308,204928,1546.6406,108.50014,101.33327,107.22762,107.22762,0,1,-57.356087,0,0,0.6544224,0.65442234,0,7,255,0,0,0,1,0,49,0
True,36949312,15999.99,0,1576.177,0.119565964,-0.12689841,16.662348,0.013561726,-0.098395824,11.004601,-0.008601444,0.0011956166,0.018348204,2.2935667,0.097542875,-0.05930281,0.14161538,0.17917591,0.28176636,0.2955746,1.2154536,0.53192717,0.61789584,0.6599281,37.712685,35.748592,36.165,36.280567,0,0,0,0,0,0,0,0,0,0,0,0,-0.020992856,-0.018535351,-0.015734503,-0.015239084,1.215635,0.53225005,0.6180961,0.660104,-0.015294937,-0.010687521,0.004607346,0.006249044,164,6,231,2,0,-3874.0168,313.27805,4059.0742,11.005048,254482.6,1546.6406,111.449165,101.55177,107.50667,107.50667,0,1,-56.374813,0,0,0.78832644,0.7883263,0,7,255,0,0,0,1,0,49,0
True,36949437,15999.99,0,1842.247,-0.04973793,-0.13446188,16.993912,0.016860962,-0.13072008,12.967287,-0.013817059,0.0054923953,0.012639178,2.294162,0.09607692,-0.057606135,0.15666153,0.1839676,0.28646967,0.29265204,0.9104373,0.53201103,0.5506973,0.5798932,43.449226,42.120575,42.38256,42.45041,0,0,0,0,0,0,0,0,0,0,0,0,-0.02481204,-0.02156453,-0.010463211,-0.009754339,0.9107753,0.5324479,0.5507967,0.5799752,-0.013449278,-0.010099739,0.0051665306,0.0059015676,164,6,231,2,0,-3872.972,313.12924,4058.151,12.967958,297361,1546.6406,111.370544,101.75666,107.72053,107.72053,0,1,-55.33669,0,0,0.90508,0.9050799,0,7,255,0,0,0,1,0,49,0
True,36949546,15999.99,0,2103.1074,-0.010825157,-0.10632765,16.747961,0.017248154,-0.15520251,14.873376,-0.004143344,0.0055985763,0.014131155,2.2948585,0.09502843,-0.055975243,0.16510008,0.18422611,0.30774292,0.32010397,0.68699855,0.5663502,0.53375506,0.53454024,48.926014,48.434223,48.523243,48.498405,0,0,0,0,0,0,0,0,0,0,0,0,-0.022734778,-0.019202713,-0.010697426,-0.0073767793,0.68737465,0.56667566,0.53386223,0.53459114,-0.012414152,-0.010068029,0.007695768,0.009165399,164,6,231,2,0,-3871.7925,312.96182,4057.1074,14.874195,339611.03,1546.6406,111.21317,101.96901,107.92613,107.92613,0,1,-54.16434,0,0,1.0186559,1.0186557,0,7,255,0,0,0,1,0,49,0
True,36949656,15999.99,0,2370.0237,0.23768711,-0.13170028,16.655771,0.017985344,-0.17139363,16.753826,0.0020215893,0.005194283,0.01422811,2.2954686,0.095021166,-0.05439584,0.15237913,0.1825703,0.32718801,0.33098155,0.6984791,0.549725,0.5393154,0.5492146,55.18943,54.47223,54.672634,54.692326,0,0,0,0,0,0,0,0,0,0,0,0,-0.020417348,-0.01689784,-0.011494394,-0.006434279,0.6987775,0.54998463,0.5394379,0.5492523,-0.0139745865,-0.010271143,0.010007642,0.010458667,164,6,231,2,0,-3870.466,312.77454,4055.9321,16.754713,382818.84,1546.6406,111.03931,102.187996,108.13837,108.13837,0,1,-52.845108,0,0,1.1311772,1.131177,0,7,255,0,0,0,1,0,49,0
True,36949750,15999.99,0,2602.0886,0.08181,-0.2276727,16.679775,0.018328667,-0.18746495,18.362665,0.008558633,0.0062886477,0.013035931,2.2959814,0.095499456,-0.052888952,0.12061682,0.15400606,0.3358864,0.3315523,0.8167798,0.5481051,0.5313952,0.56137145,61.04302,59.70055,59.891495,59.995945,0,0,0,0,0,0,0,0,0,0,0,0,-0.019382808,-0.016296012,-0.0103691565,-0.004991606,0.81700975,0.5483473,0.53149635,0.5613936,-0.017870752,-0.013775015,0.011041813,0.010526523,164,6,231,2,0,-3869.203,312.5958,4054.8123,18.36363,420414.5,1546.6406,110.94938,102.36943,108.331375,108.331375,0,1,-51.58843,0,0,1.2277256,1.2277254,0,7,255,0,0,0,1,0,49,0
True,36949875,15999.99,0,2858.9307,0.2252388,-0.13707638,16.927435,0.018940926,-0.19158244,20.289831,-0.0029455442,0.0049084364,0.013010362,2.2966328,0.09644198,-0.05137485,0.15796676,0.17289421,0.29069382,0.3131864,0.49831033,0.49732596,0.54485637,0.5355331,65.72077,65.697174,66.23046,66.16329,0,0,0,0,0,0,0,0,0,0,0,0,-0.016661875,-0.014172389,-0.008421223,-0.006284218,0.49858883,0.49752784,0.54492146,0.53556997,-0.0132891685,-0.011458073,0.0056687556,0.008342952,164,6,231,2,0,-3867.5493,312.36047,4053.3442,20.290745,462026.12,1546.6406,110.86215,102.59349,108.57387,108.57387,0,1,-49.942276,0,0,1.342653,1.3426527,0,7,255,0,0,0,1,0,49,0
True,36949968,15999.99,0,3087.5232,0.1276617,0.008586049,16.786072,0.018108368,-0.23087037,21.948925,-0.028061053,0.004547881,0.01765049,2.29714,0.09445925,-0.049922187,0.16663179,0.20990168,0.30264702,0.30715054,0.63957185,0.4346719,0.4670965,0.49873468,71.96939,70.74451,71.20147,71.35186,0,0,0,0,0,0,0,0,0,0,0,0,-0.015916023,-0.012611421,-0.008717554,-0.006461123,0.63976985,0.43485484,0.46717787,0.49877653,-0.012226261,-0.006918501,0.0070899017,0.007625334,164,6,231,2,0,-3865.9844,312.1387,4051.9536,21.950146,499045.7,1546.6406,110.752335,102.76582,108.78548,108.78548,0,1,-48.383797,0,0,1.4422342,1.4422337,0,7,255,0,0,0,1,0,49,0
True,36950093,15999.99,0,3353.0308,0.09021664,0.05413544,16.410873,0.015335083,-0.24334955,23.877747,0.0060526934,0.006013845,0.02535014,2.2978888,0.09320731,-0.0475142,0.14273657,0.17971832,0.3300136,0.35715646,0.5917049,0.4844349,0.4581182,0.46901911,77.905464,77.22228,77.35278,77.382805,0,0,0,0,0,0,0,0,0,0,0,0,-0.015626287,-0.012196106,-0.008638037,-0.0021233424,0.5919112,0.4845884,0.45819962,0.4690239,-0.015157402,-0.010620985,0.010343585,0.01357067,164,6,231,2,0,-3863.989,311.8601,4050.179,23.878992,521592,1487.8047,110.70498,102.961365,109.01607,109.01607,0,1,-46.396225,0,0,1.5592685,1.5592681,0,7,255,0,0,0,1,0,49,0
True,36950187,15999.99,0,3556.0955,-0.030935764,-0.5042602,15.519449,0.014382362,-0.24943376,25.406796,0.037185848,0.0059511815,0.02404125,2.2983866,0.09536921,-0.045012265,0.116101004,0.15220596,0.30593,0.3227142,0.5570535,0.4643935,0.42940477,0.44094416,82.59376,81.953735,82.025085,82.06804,0,0,0,0,0,0,0,0,0,0,0,0,-0.014263078,-0.010786918,-0.006478732,-0.0033352568,0.5572361,0.46451876,0.42945364,0.44095677,-0.018424692,-0.013995828,0.007480219,0.009475742,164,6,231,2,0,-3862.1653,311.6049,4048.5552,25.408024,510495.16,1372.8839,110.656395,103.13884,109.20439,109.20439,0,1,-44.578712,0,0,1.6587689,1.6587684,0,7,255,0,0,0,1,0,49,0
True,36950312,15999.99,0,3782.0994,-0.08165598,-0.7182653,14.874332,0.013150215,-0.23591089,27.113054,0.014313402,0.004582748,0.018371547,2.2988744,0.09955382,-0.042520445,0.10336335,0.12770815,0.264693,0.28259444,0.36063766,0.36021367,0.44908345,0.44717652,86.79415,86.77547,87.66399,87.63426,0,0,0,0,0,0,0,0,0,0,0,0,-0.010458201,-0.008748614,-0.005173493,-0.004331617,0.36078927,0.36031988,0.44911325,0.4471975,-0.019987173,-0.017000884,0.0025774501,0.004705794,164,6,231,2,0,-3859.893,311.27805,4046.53,27.114086,540021.1,1365.5374,110.588234,103.32545,109.41644,109.41644,0,1,-42.311466,0,0,1.7752459,1.7752454,0,7,255,0,0,0,1,0,49,0
True,36950421,15999.99,0,3986.6047,0.046431065,0.28158164,15.151636,0.013685226,-0.2684542,28.67089,-0.05723639,0.002946793,0.015484583,2.2993228,0.09687541,-0.04102675,0.15168828,0.18583013,0.2552778,0.2650023,0.35408127,0.31211594,0.37785602,0.39132127,91.825554,91.48584,92.24918,92.33497,0,0,0,0,0,0,0,0,0,0,0,0,-0.008695085,-0.007299381,-0.0055927513,-0.0042295065,0.35418802,0.31220126,0.37789738,0.3913441,-0.014059329,-0.0098712705,0.0014580525,0.0026142262,164,6,231,2,0,-3857.7786,310.97165,4044.6436,28.672152,607521.9,1457.0844,110.51476,103.46907,109.607635,109.607635,0,1,-40.20155,0,0,1.8773942,1.8773937,0,7,255,0,0,0,1,0,49,0
True,36950515,15999.99,0,4211.654,0.11773634,0.8423182,15.376314,0.01295948,-0.30343127,30.276436,-0.01592836,0.0040856875,0.01789084,2.299932,0.092029184,-0.039361537,0.18517476,0.20845345,0.30545273,0.33269066,0.42162836,0.42296475,0.35515326,0.34981164,97.44858,97.44212,97.197655,97.14066,0,0,0,0,0,0,0,0,0,0,0,0,-0.010002603,-0.006661157,-0.005107553,-0.0015964996,0.42174697,0.4230172,0.35519,0.34981528,-0.009951662,-0.007096149,0.0074234754,0.0106618665,164,6,231,2,0,-3855.501,310.6535,4042.6099,30.277956,620520,1408.7554,110.47105,103.617325,109.79608,109.79608,0,1,-37.928974,0,0,1.981458,1.9814576,0,7,255,0,0,0,1,0,48,0
True,36950640,15999.99,0,4464.7905,0.16184044,-0.56647944,14.377642,0.014755249,-0.28164923,32.007126,0.03895603,0.004400048,0.015239497,2.3003259,0.09499012,-0.03744586,0.16691288,0.17685725,0.32562062,0.33270925,0.42716953,0.40322602,0.4224295,0.42610368,102.959435,102.75434,103.24999,103.2505,0,0,0,0,0,0,0,0,0,0,0,0,-0.010156649,-0.0067748544,-0.006367092,-0.0016795754,0.42729026,0.4032829,0.42247748,0.426107,-0.01219178,-0.010971943,0.009821288,0.010664079,164,6,231,2,0,-3852.735,310.27228,4040.1372,32.008366,623797.4,1335.7184,110.46077,103.81363,110.012024,110.012024,0,1,-35.168137,0,0,2.1011136,2.1011136,0,7,255,0,0,0,1,0,48,0
True,36950750,15999.99,0,4666.799,0.21567678,-0.5665007,14.825495,0.014152527,-0.29094052,33.5237,-0.004519565,0.002889217,0.012064158,2.3006425,0.096915655,-0.03598246,0.15875597,0.17412677,0.3023092,0.30171692,0.36711633,0.35981193,0.4042438,0.40414536,107.40383,107.307724,108.01172,107.99929,0,0,0,0,0,0,0,0,0,0,0,0,-0.007902976,-0.005621903,-0.005099149,-0.0031250454,0.3672014,0.35985586,0.40427595,0.40415743,-0.013192361,-0.011306878,0.007049732,0.00697932,164,6,231,2,0,-3850.217,309.9162,4037.8848,33.524967,681177.7,1395.2448,110.459915,103.97772,110.21452,110.21452,0,1,-32.653316,0,0,2.2047489,2.2047489,0,7,255,0,0,0,1,0,48,0
True,36950843,15999.99,0,4867.959,0.19278765,0.00039607286,14.7143345,0.011098862,-0.31583714,35.04029,-0.012198951,0.004311455,0.019783704,2.301039,0.095780715,-0.034321863,0.12611213,0.16102438,0.28685844,0.30359066,0.3805895,0.33669963,0.3647194,0.3706459,112.36508,111.97125,112.55078,112.57135,0,0,0,0,0,0,0,0,0,0,0,0,-0.007829021,-0.0057637612,-0.0033757477,-0.0021344367,0.38067,0.33674896,0.36473504,0.37065208,-0.017196663,-0.0129141025,0.005212754,0.0072020926,164,6,231,2,0,-3847.6301,309.54935,4035.569,35.041718,704983.1,1384.2844,110.473785,104.12991,110.412155,110.412155,0,1,-30.068855,0,0,2.3065245,2.3065245,0,7,255,0,0,0,1,0,47,0
True,36950953,15999.99,0,5074.434,-0.043106556,-0.2294668,14.336464,0.009469986,-0.33396697,36.530167,0.01666646,0.0038406071,0.011624916,2.3014615,0.0958489,-0.03239544,0.10563611,0.11697338,0.25758454,0.27524215,0.36856905,0.39678985,0.36321297,0.36001626,116.99332,117.22279,117.255875,117.21763,0,0,0,0,0,0,0,0,0,0,0,0,-0.0063863914,-0.0041589057,-0.0026903686,-0.0017835087,0.36862436,0.39681163,0.36322293,0.36002067,-0.019708382,-0.01831768,0.0017323047,0.0038316622,164,6,231,2,0,-3844.8694,309.15994,4033.0964,36.531696,696487.4,1311.8987,110.49833,104.29128,110.6077,110.6077,0,1,-27.310667,0,0,2.4105873,2.4105873,0,7,255,0,0,0,1,0,47,0
True,36951078,15999.99,0,5291.538,0.07408762,-0.24928975,14.11796,0.010858536,-0.34038138,38.210167,-0.020073572,0.0029116038,0.012151299,2.3018363,0.096823186,-0.031232597,0.18554135,0.20482796,0.2530443,0.26495758,0.2920502,0.27056077,0.35105523,0.35467905,121.67713,121.4308,122.54217,122.57364,0,0,0,0,0,0,0,0,0,0,0,0,-0.006073723,-0.0038236827,-0.0033828728,-0.002062546,0.29211336,0.27058777,0.35107154,0.35468504,-0.009906694,-0.007540874,0.0011925064,0.0026089028,164,6,231,2,0,-3841.5515,308.68707,4030.122,38.211685,747018.4,1349.4065,110.53783,104.47279,110.832664,110.832664,0,1,-23.993591,0,0,2.530448,2.5304482,0,7,255,0,0,0,1,0,46,0
True,36951187,15999.99,0,5485.0635,-0.90032005,0.5130926,13.8319,0.010448456,-0.3475337,39.65249,0.004578742,-0.050066262,0.028509516,2.299023,0.094671175,-0.029953899,0.17661986,0.21770069,0.33268282,0.35134152,0.34715185,0.3072516,0.31988907,0.30300143,126.63168,126.49885,126.70154,126.76683,0,0,0,0,0,0,0,0,0,0,0,0,0.013034293,0.015891705,-0.021595879,-0.015795255,0.34739646,0.3076623,0.32061723,0.30341285,-0.0110010635,-0.005961824,0.0106609315,0.012879316,164,6,231,2,0,-3838.5842,308.26968,4027.4683,39.654015,748895.25,1305.0016,110.58894,104.619064,111.02361,111.02361,0,1,-21.030493,0,0,2.6331942,2.6331942,0,7,255,0,0,0,1,0,46,0
True,36951281,15999.99,0,5684.1177,-0.7412052,-0.41937512,13.379381,0.059415817,-0.3316152,41.074127,0.012670395,-0.011083726,0.023089346,2.2961042,0.096411474,-0.027344638,0.11192263,0.14631662,0.27436996,0.3133539,0.2992846,0.29411933,0.34969252,0.335176,130.73836,130.74792,131.59465,131.52124,0,0,0,0,0,0,0,0,0,0,0,0,-0.013901136,-0.012069001,-0.019811751,-0.017765773,0.29960728,0.29436684,0.35025328,0.33564648,-0.018937238,-0.014718249,0.0037279688,0.008362867,164,6,231,2,0,-3835.3809,307.82263,4024.6165,41.07551,744797.44,1252.1926,110.64861,104.76945,111.21861,111.21861,0,1,-17.838335,0,0,2.7399662,2.7399662,0,7,255,0,0,0,1,0,46,0
True,36951390,15999.99,0,5859.603,-0.41829824,-0.18553543,12.988232,0.027339935,-0.35770988,42.449883,-0.006171788,0.0017852718,0.03119487,2.2957385,0.09630834,-0.02505642,0.10429005,0.1504862,0.22514907,0.23748559,0.31701654,0.24685076,0.29516435,0.3089378,135.37044,134.59991,135.45062,135.56606,0,0,0,0,0,0,0,0,0,0,0,0,-0.0107581485,-0.00868559,-0.00883877,-0.0071720625,0.31719902,0.24700351,0.29529667,0.30902103,-0.019873498,-0.014206784,-0.0021240339,-0.0006573126,164,6,231,2,0,-3832.1233,307.36465,4021.7253,42.451397,752304.25,1226.9172,110.70703,104.91496,111.40831,111.40831,0,1,-14.596414,0,0,2.844784,2.844784,0,7,255,0,0,0,1,0,46,0
True,36951515,15999.99,0,6037.7188,-0.21069384,-0.12712634,12.560958,-0.005672455,-0.3767612,43.79822,0.01065434,0.0047977534,0.06259695,2.2961717,0.096024856,-0.019650333,0.10734771,0.18147548,0.27558738,0.3137176,0.29113507,0.2848213,0.28295395,0.27526584,139.32146,139.27995,139.57109,139.45401,0,0,0,0,0,0,0,0,0,0,0,0,-0.00581259,-0.0034913342,-0.0018703045,-0.00025964683,0.2911931,0.2848427,0.28296012,0.27526596,-0.019498426,-0.01040544,0.0038727075,0.008406114,164,6,231,2,0,-3828.7085,306.88565,4018.699,43.799843,752295.7,1190.6548,110.77595,105.05525,111.592224,111.592224,-0.32370377,1,-11.200147,0,0,2.9511209,2.9511209,0,7,255,0,0,0,1,0,46,0
True,36951609,15999.99,0,6203.2236,0.39493275,-0.76939553,13.608866,-0.01335144,-0.36694193,44.956036,0.017650682,0.0023342406,0.035177447,2.2964728,0.09796885,-0.014897248,0.06632142,0.10941646,0.21444415,0.26048148,0.26190358,0.28500023,0.30801845,0.30666146,142.69073,142.91096,143.51927,143.49881,0,0,0,0,0,0,0,0,0,0,0,0,-0.0006171605,0.00081637775,0.00030477735,0.0019347147,0.2619043,0.2850014,0.3080186,0.30666757,-0.024530973,-0.01924466,-0.0033967681,0.0020767301,164,6,231,2,0,-3825.584,306.44443,4015.93,44.957535,752496.56,1158.7769,110.83905,105.18556,111.752075,111.752075,0,1,-8.092394,0,0,3.045682,3.045682,0,7,255,0,0,0,1,0,46,0
True,36951718,15999.99,0,6368.979,0.161407,0.5677943,13.222848,-0.0111961365,-0.3796742,46.37477,-0.0016258778,0.0015047928,0.026209693,2.2967422,0.096298575,-0.011209271,0.18049528,0.20414858,0.27706167,0.30373302,0.2283027,0.2410684,0.23872025,0.2378759,146.78827,146.93256,147.21825,147.20538,0,0,0,0,0,0,0,0,0,0,0,0,-0.0008376692,0.001571978,0.00093027396,0.001997594,0.22830424,0.24107352,0.23872207,0.23788428,-0.010525677,-0.0076242127,0.0040479936,0.0072190203,164,6,231,2,0,-3821.579,305.8769,4012.3787,46.376324,752607.6,1128.8883,110.91855,105.34023,111.95082,111.95082,0,1,-4.1078367,0,0,3.1634881,3.163488,0,7,255,0,0,0,1,0,46,0
True,36951828,15999.99,0,6556.412,-2.956173,0.06233406,11.413427,-0.023548126,-0.3465333,47.612457,0.009132743,-0.16236237,-0.016710319,2.290016,0.09697804,-0.011840471,0.16432989,0.21200684,0.30579853,0.31760475,0.37586004,0.20764098,0.28753677,0.23397397,152.13522,150.82898,151.32664,151.43745,0,0,0,0,0,0,0,0,0,0,0,0,-0.3448238,-0.3125325,-0.0347901,-0.03136878,0.51007277,0.37522173,0.2896338,0.2360674,-0.012508627,-0.0066602677,0.0074645877,0.008868262,164,6,231,2,0,-3817.7666,305.3448,4009.0134,47.613724,752293.75,1096.5006,111.01571,105.50122,112.1258,112.1258,-1.1215582,1,-0.32286444,0,0,3.2722383,3.272238,0,7,255,0,0,0,1,-127,46,0
True,36951953,15999.99,0,6726.7363,-3.2041893,-0.41351634,11.357944,0.2647438,-0.33984756,49.016747,-0.033416823,-0.05136613,0.02382075,2.2757914,0.09849782,-0.011752696,0.14367197,0.2038764,0.21644033,0.25993505,0.20562851,0.16014434,0.27128664,0.2423512,154.73738,154.44391,155.80383,155.71976,0,0,0,0,0,0,0,0,0,0,0,0,-0.04245874,-0.040141705,-0.06949811,-0.066056535,0.20996626,0.16509865,0.28004718,0.2511923,-0.015042659,-0.0076575987,-0.0031594373,0.0020117648,164,6,231,2,0,-3813.248,304.71347,4005.0942,49.018642,752280.7,1068.2543,111.1434,105.67821,112.339134,112.339134,-3.3977604,1,4.129602,0,0,3.3966916,3.3966913,0,7,255,0,0,0,1,0,47,0
True,36952062,15999.99,0,6894.3115,-2.3343153,0.51617193,10.907494,0.08701706,-0.35751343,50.15494,0.0420848,0.005275416,0.04300216,2.2740645,0.096239366,-0.008246973,0.2076661,0.25274763,0.2981958,0.33628595,0.30470234,0.26641458,0.2365645,0.23368114,159.69241,159.19904,159.12296,159.0753,0,0,0,0,0,0,0,0,0,0,0,0,-0.02555431,-0.021688601,-0.018964129,-0.016198894,0.30577204,0.26729593,0.23732342,0.23424193,-0.007192731,-0.0016627423,0.006560687,0.011089321,164,6,231,2,0,-3809.2793,304.16937,4001.7036,50.156292,752265.8,1042.7878,111.22557,105.80921,112.5109,112.5109,-5.9156065,1,8.014185,0,0,3.5024772,3.5024772,0,7,255,0,0,0,1,0,49,0
True,36952171,15999.99,0,7050.785,-0.6340065,-1.17107,10.830677,-0.0070228577,-0.3342104,51.45395,-0.030327195,0.004876053,0.043454327,2.2749252,0.10094903,-0.0026967777,0.15792301,0.21410555,0.24853453,0.3120215,0.16204843,0.16240053,0.24295703,0.24453805,161.98903,161.97375,163.29326,163.29842,0,0,0,0,0,0,0,0,0,0,0,0,-0.002575452,-0.0020050337,-0.0005746971,0.0013581557,0.1620689,0.16241291,0.24295771,0.24454182,-0.0132945385,-0.006402828,0.00065632537,0.008204453,164,6,231,2,0,-3804.6099,303.51657,3997.7363,51.455036,752287.7,1019.1103,111.340454,105.97188,112.70563,112.70563,-9.1313,1,12.574821,0,0,3.6237545,3.6237545,0,6,255,0,0,0,1,0,52,0
True,36952281,15999.99,0,7191.043,0.004333973,1.2691507,10.230121,-0.0175457,-0.33403087,52.521126,0.026096523,0.00033238344,0.03916579,2.2752035,0.09717775,0.0010552668,0.1761938,0.21645652,0.30366793,0.34619382,0.2199313,0.20917103,0.20308658,0.1984291,166.03197,165.92291,166.16296,166.08841,0,0,0,0,0,0,0,0,0,0,0,0,5.2239182E-05,0.0023098763,0.00068321195,0.003853983,0.21993132,0.20918378,0.20308773,0.19846651,-0.011053324,-0.006114442,0.007211279,0.012267292,164,6,231,2,0,-3800.5164,302.94995,3994.2603,52.52219,752267,999.5867,111.42575,106.099846,112.8755,112.8755,-11.895414,1,16.57217,0,0,3.7275834,3.7275836,0,6,255,0,0,0,1,0,54,0
True,36952406,15999.99,0,7346.8267,-0.030159473,0.20825344,10.112284,-0.021055222,-0.3495729,53.723927,-0.018269017,9.0193935E-05,0.049124412,2.2751997,0.09752218,0.006126059,0.20589247,0.2607839,0.26220357,0.30514404,0.18215455,0.1769895,0.19448735,0.19657226,169.39142,169.33363,169.82745,169.84949,0,0,0,0,0,0,0,0,0,0,0,0,0.00022876293,0.0022792835,0.0009077803,0.001893698,0.1821547,0.17700417,0.19448946,0.19658138,-0.0074102953,-0.00067695975,0.002281472,0.0073867775,164,6,231,2,0,-3795.694,302.28775,3990.1646,53.72507,752284.25,978.2337,111.53071,106.25021,113.06066,113.06066,-14.7,1,21.28029,0,0,3.8473046,3.8473048,0,6,255,0,0,0,1,0,57,0
True,36952500,15999.99,0,7497.9375,1.2222285,-0.63659835,9.636122,0.010696411,-0.33229196,54.681686,0.022985328,0.06007568,0.06654413,2.2766175,0.09903527,0.011669792,0.14864467,0.20592949,0.2663726,0.3194174,0.19147874,0.23570102,0.22234559,0.24664314,172.61029,172.97588,173.34235,173.37833,0,0,0,0,0,0,0,0,0,0,0,0,0.18979584,0.19949037,0.006915521,0.008902954,0.26960447,0.3087902,0.2224531,0.24680378,-0.014432676,-0.007405754,0.0027771406,0.009083774,164,6,231,2,0,-3791.6094,301.727,3986.6924,54.682697,752624.3,959.0059,111.61961,106.3737,113.215355,113.215355,-14.7,1,25.269722,0,0,3.9467223,3.9467225,0,6,255,0,0,0,1,85,59,0
True,36952609,15999.99,0,7631.9087,3.2036667,-1.0190659,9.604765,-0.3713112,-0.35491621,55.78535,-0.009416096,0.10196998,0.054493614,2.291893,0.1008149,0.020496018,0.12771574,0.1572618,0.21538174,0.22131068,0.14554955,0.17937009,0.19597389,0.24068621,175.58092,175.55882,176.57858,176.67325,0,0,0,0,0,0,0,0,0,0,0,0,0.03696839,0.03882398,0.08105982,0.0865658,0.15017101,0.18352365,0.21207654,0.25578016,-0.016999954,-0.013375644,-0.0032852963,-0.0025803894,164,6,231,2,0,-3786.8064,301.04938,3982.558,55.78772,752516.06,941.8511,111.76315,106.55808,113.3978,113.3978,-14.7,1,29.985601,0,0,4.062093,4.0620933,0,6,255,0,0,0,1,0,60,0
True,36952734,15999.99,0,7774.804,3.5252547,0.92357075,9.22553,-0.2051239,-0.35979235,56.866753,0.03377308,-0.0030900263,0.029140841,2.2966602,0.09785162,0.026184404,0.17964114,0.19355689,0.28024757,0.29596984,0.18129139,0.21499175,0.18321797,0.19250266,179.18423,179.66483,179.5742,179.67796,0,0,0,0,0,0,0,0,0,0,0,0,0.036252335,0.03920625,0.03307163,0.03388277,0.1848805,0.21853738,0.18617883,0.19546181,-0.010630451,-0.008923456,0.00442677,0.006296031,164,6,231,2,0,-3781.8828,300.35626,3978.248,56.86826,752720.3,925.02374,111.875595,106.70331,113.59856,113.59856,-14.7,1,34.856663,0,0,4.1788683,4.178869,0,6,255,0,0,0,1,0,61,0
True,36952843,15999.99,0,7917.029,1.1661353,-0.99928284,9.136678,-0.05185318,-0.34452474,57.89498,0.022544926,-0.0100030415,0.01585903,2.295716,0.10099094,0.027909128,0.17759547,0.20896253,0.2865445,0.28914094,0.18301482,0.16260068,0.20484902,0.21115842,182.4347,182.19556,183.0725,183.1751,0,0,0,0,0,0,0,0,0,0,0,0,0.010407079,0.0119674085,0.0061430987,0.006221929,0.1833105,0.16304049,0.20494111,0.21125007,-0.010881389,-0.007033702,0.0051754303,0.0054841302,164,6,231,2,0,-3777.0237,299.66782,3973.9553,57.89603,752570.44,908.0804,111.98096,106.84514,113.77289,113.77289,0,1,39.68338,0,0,4.2924743,4.292475,0,6,255,0,0,0,1,0,62,0
True,36952937,15999.99,0,8003.9346,-0.008957863,0.9120607,9.010793,-0.018825531,-0.35031438,58.756172,-0.05526178,-0.0050460733,0.02772265,2.294959,0.09914821,0.030193346,0.19940697,0.23729236,0.24861503,0.26533088,0.12030824,0.1168834,0.15739042,0.15837863,184.30908,184.27919,185.12918,185.16289,0,0,0,0,0,0,0,0,0,0,0,0,0.0028525754,0.003304477,0.0003985159,0.00097150385,0.12034205,0.1169301,0.15739092,0.15838161,-0.00820585,-0.0035585836,0.00066589564,0.0026532896,164,6,231,2,0,-3772.8706,299.07437,3970.2822,58.757214,752477.5,898.07166,112.07612,106.96791,113.91908,113.91908,0,1,43.811165,0,0,4.3880525,4.3880534,0,6,255,0,0,0,1,0,62,0
True,36953062,15999.99,0,8176.051,-0.19957066,-0.61672837,8.446949,-0.020601273,-0.30789196,59.699257,0.046656907,-0.0027678302,0.035385534,2.294553,0.10009403,0.033324517,0.19014627,0.22862172,0.32433984,0.33565965,0.20002298,0.16734083,0.22949111,0.24203265,188.3809,187.92392,189.10658,189.26152,0,0,0,0,0,0,0,0,0,0,0,0,0.0014122941,0.0032949853,-0.00058828644,0.0033830889,0.20002796,0.16737327,0.22949187,0.2420563,-0.009341825,-0.00462218,0.009669017,0.011014856,164,6,231,2,0,-3767.9124,298.38364,3965.9004,59.700047,752578.44,879.2284,112.17848,107.10354,114.09478,114.09478,0,1,48.737793,0,0,4.5003514,4.500353,0,6,255,0,0,0,1,0,62,0
True,36953156,15999.99,0,8254.382,-0.38481236,-0.14479823,8.54858,-0.034440994,-0.33606267,60.563126,-0.027360287,-0.0020594122,0.046899635,2.2943106,0.10017656,0.038240284,0.19821002,0.25454617,0.23192647,0.2668679,0.12208455,0.12644035,0.16847348,0.17015842,189.9738,190.05182,190.9575,190.97302,0,0,0,0,0,0,0,0,0,0,0,0,0.0034008983,0.0044059996,0.002118222,0.003102176,0.122131914,0.12651709,0.1684868,0.1701867,-0.008352675,-0.0014421232,-0.0013182499,0.00283603,164,6,231,2,0,-3763.463,297.7516,3961.9712,60.564068,752518.75,870.8661,112.27825,107.22987,114.24556,114.24556,0,1,53.156857,0,0,4.5996027,4.599604,0,6,255,0,0,0,1,0,62,0
True,36953265,15999.99,0,8413.975,-0.22018051,-0.44856673,8.352158,-0.033706665,-0.31509924,61.534508,0.042660575,-0.0051393965,0.03476739,2.293914,0.10038434,0.042641137,0.17953409,0.2294011,0.28119874,0.33102277,0.17040095,0.17010501,0.2126458,0.21166034,193.67076,193.70984,194.65164,194.65921,0,0,0,0,0,0,0,0,0,0,0,0,0.004437489,0.006096513,0.0027176817,0.004803143,0.17045872,0.17021422,0.21266317,0.21171483,-0.010643585,-0.004526578,0.0045398585,0.010463569,164,6,231,2,0,-3758.0378,296.9908,3957.1846,61.53532,752259.7,854.13043,112.38941,107.371956,114.429344,114.429344,0,1,58.542076,0,0,4.718731,4.718733,0,6,255,0,0,0,1,0,62,0
True,36953390,15999.99,0,8508.245,-0.07035732,0.6036736,8.277174,-0.024929047,-0.35575116,62.499626,-0.02611366,0.008628039,0.027896516,2.29365,0.09938148,0.04569997,0.23144646,0.2626793,0.27566177,0.28840274,0.13463148,0.13041194,0.13971832,0.1463187,196.26244,196.1511,196.6157,196.68236,0,0,0,0,0,0,0,0,0,0,0,0,0.044433672,0.045820232,0.0039541386,0.003976709,0.14177443,0.13822722,0.13977426,0.14637274,-0.0042756796,-0.00044446066,0.0038815513,0.0053963587,164,6,231,2,0,-3752.673,296.2289,3952.4543,62.500633,752515.4,844.88947,112.51,107.52037,114.602646,114.602646,0,1,63.865887,0,0,4.8346863,4.834688,0,6,255,0,0,0,1,9,63,0
True,36953484,15999.99,0,8629.757,0.23175907,-0.1449172,8.052518,-0.09098244,-0.32244194,63.294456,-0.0067181047,0.010225072,0.0481288,2.2953305,0.10011232,0.050233833,0.169417,0.20636177,0.2652842,0.2953992,0.12321862,0.13354743,0.17665316,0.18031883,198.56535,198.67972,199.66438,199.66864,0,0,0,0,0,0,0,0,0,0,0,0,0.009314611,0.010232076,0.013389596,0.01398166,0.12357018,0.13393883,0.17715988,0.18086009,-0.011884613,-0.0073527284,0.002647739,0.006228186,164,6,231,2,0,-3747.982,295.56964,3948.314,63.29534,752468.4,832.9056,112.60574,107.642784,114.755035,114.755035,0,1,68.523415,0,0,4.934702,4.9347034,0,6,255,0,0,0,1,0,63,0
True,36953609,15999.99,0,8762.683,0.20256948,-0.5371315,7.8147645,-0.07134628,-0.33072662,64.1932,0.029854935,-0.0037553147,0.01809648,2.2955682,0.10050368,0.053517938,0.21430437,0.2547032,0.27962723,0.3086379,0.15759371,0.14745909,0.18571898,0.19598004,201.8578,201.67868,202.62286,202.7677,0,0,0,0,0,0,0,0,0,0,0,0,0.010585934,0.012388703,0.009343942,0.010521456,0.15794885,0.14797859,0.18595389,0.19626227,-0.0063784383,-0.0014228597,0.0043530203,0.00780217,164,6,231,2,0,-3742.535,294.8033,3943.501,64.19409,752273.7,820.10834,112.71796,107.78061,114.92766,114.92766,0,1,73.93415,0,0,5.0493364,5.049338,0,6,255,0,0,0,1,0,63,0
True,36953718,15999.99,0,8866.647,0.15377259,0.9046721,7.784864,-0.042598724,-0.34217578,65.13517,0.0027286755,-0.0056622755,0.033613786,2.2949483,0.099040926,0.05731071,0.21658471,0.24319728,0.28250757,0.30794552,0.14087448,0.14275748,0.14046736,0.14132449,204.58453,204.63388,204.8436,204.87317,0,0,0,0,0,0,0,0,0,0,0,0,0.005485524,0.0073593385,0.0038238438,0.004395968,0.14098124,0.14294703,0.1405194,0.14139284,-0.0060987175,-0.0028342493,0.0046954677,0.0077198558,164,6,231,2,0,-3736.7798,293.99002,3938.413,65.13608,752272.3,810.5289,112.84157,107.93541,115.10994,115.10994,0,1,79.64902,0,0,5.168763,5.1687646,0,6,255,0,0,0,1,0,64,0
True,36953828,15999.99,0,8982.653,-0.20322561,-0.12967405,7.887575,-0.03891754,-0.34626037,66.01656,-0.035468027,-0.004377717,0.03797179,2.2943728,0.10010425,0.061329342,0.18283269,0.2282449,0.23943539,0.2574947,0.113197826,0.11354089,0.1469494,0.14865565,206.90266,206.93698,207.72636,207.74725,0,0,0,0,0,0,0,0,0,0,0,0,0.0047351415,0.0054013487,0.0026015933,0.0034331523,0.11329682,0.11366929,0.14697243,0.14869529,-0.010238957,-0.0046684034,-0.0004254952,0.0017216206,164,6,231,2,0,-3731.1594,293.19754,3933.448,66.01749,752402.8,800.0419,112.95482,108.077484,115.2778,115.2778,0,1,85.23155,0,0,5.283751,5.283752,0,6,255,0,0,0,1,0,64,0
True,36953937,15999.99,0,9111.987,-0.277138,-0.7325564,7.547242,-0.03776169,-0.33449435,66.85222,0.0021425365,-0.0043522473,0.01910118,2.2939215,0.10107416,0.06333357,0.20976725,0.24176158,0.27788386,0.3185059,0.13187076,0.11979244,0.17634545,0.18009648,209.80002,209.63512,210.797,210.85501,0,0,0,0,0,0,0,0,0,0,0,0,0.0051368005,0.0062764506,0.0038404842,0.005385223,0.13197076,0.119956754,0.17638727,0.18017697,-0.0069349892,-0.0030103624,0.004145745,0.008975405,164,6,231,2,0,-3725.5767,292.4109,3928.5212,66.853065,752373.9,788.61273,113.065414,108.21464,115.446884,115.446884,0,1,90.795975,0,0,5.3964357,5.3964367,0,6,255,0,0,0,1,0,65,0
True,36954062,15999.99,0,8782.715,-5.432927,1.3996845,-0.33058023,0.07500458,-0.25074428,66.932495,0.022617476,-0.21635473,-0.018731024,2.2832017,0.10039304,0.06294892,0.2635227,0.31281078,0.30010659,0.33570573,-0.47786918,-0.3287665,-0.10943317,-0.11742003,196.957,200.71852,204.6003,205.38576,0,0,0,0,0,0,0,0,0,0,0,0,-0.34690043,-0.31563097,-0.047549814,-0.042548638,0.59050727,0.4557525,0.11931723,0.124891356,-0.0003410019,0.005704988,0.006787859,0.011020336,164,6,231,2,0,-3720.0742,291.6375,3923.7007,66.93301,751148.06,815.57043,113.217766,108.40914,115.59363,115.59363,0,1,96.24183,0,0,5.5059676,5.5059695,0,5,255,255,0,0,1,-127,66,129
True,36954156,15999.99,0,8608.753,-10.889217,-0.7916037,-12.2588415,0.90904045,0.13992637,65.40456,0.07071494,-0.4067199,-0.030329475,2.2528372,0.10911645,0.05743068,0.22900374,0.28831637,0.22855338,0.29165092,-0.1339928,-0.09298404,-0.26287964,-0.24074003,198.83919,201.32677,197.22333,199.035,0,0,0,0,0,0,0,0,0,0,0,0,-0.6963717,-0.6001743,-0.2334642,-0.20810856,0.70914567,0.60733455,0.3515839,0.31822154,-0.0045753196,0.0027003475,-0.0017192848,0.0057825446,164,6,231,2,0,-3715.224,290.9707,3919.5737,65.411026,752192.1,834.37445,113.51053,108.80921,115.68622,115.68622,0,1,100.981766,0,0,5.602871,5.602873,0,5,255,255,0,0,1,-127,67,129
True,36954265,15999.99,0,8843.628,-19.520275,0.37714037,-1.6117477,2.3597317,0.17023134,64.90092,-0.044116262,-0.47085172,0.014027514,2.1949587,0.11226818,0.049059853,0.2330431,0.3986853,0.15115601,0.29890162,0.17717476,0.06462946,0.25192082,0.09664352,203.30396,203.73962,204.71811,204.53662,0,0,0,0,0,0,0,0,0,0,0,0,-0.280645,-0.24129523,-0.47909993,-0.39094573,0.33189234,0.24980064,0.5412955,0.40271398,-0.004079826,0.016238905,-0.01092126,0.006644599,164,6,231,2,0,-3709.4153,290.16525,3914.8862,64.944016,527051.5,569.2764,113.83769,109.307175,115.866455,115.866455,0,1,106.673134,0,0,5.7185097,5.718511,0,5,246,0,0,0,1,0,69,0
True,36954375,15999.99,0,8992.263,-21.488598,0.29823345,6.5055485,2.2965221,-0.10296911,65.60033,-0.031153407,-0.19639051,0.015809914,2.1574805,0.10938289,0.046363194,0.18932922,0.35734212,0.19873081,0.36875263,0.29085454,0.117604144,0.29323664,0.16368425,208.07663,206.27321,208.35954,207.52199,0,0,0,0,0,0,0,0,0,0,0,0,-0.33755046,-0.29476056,-0.4073767,-0.335759,0.44557455,0.3173555,0.5019398,0.37353265,-0.00944205,0.011167485,-0.0052649677,0.014949366,164,6,231,2,0,-3703.579,289.37244,3910.5361,65.64059,752366.4,799.0874,114.01849,109.59918,116.148254,116.148254,0,1,112.09288,0,0,5.8306923,5.8306947,0,5,255,0,0,0,1,0,74,0
True,36954500,15999.99,0,9062.562,-17.683619,0.50725615,7.452477,1.0548515,-0.28849268,66.44449,-0.038234442,-0.108361855,0.028111096,2.1462462,0.10632239,0.04689811,0.16746859,0.33286154,0.18204364,0.36286318,0.21811494,0.106212884,0.19568427,0.13605401,209.67155,208.35745,209.61218,209.28265,0,0,0,0,0,0,0,0,0,0,0,0,-0.44177824,-0.38714078,-0.18334128,-0.15800527,0.4926887,0.40144634,0.2681536,0.20850985,-0.012123616,0.008164544,-0.0072489493,0.014249153,164,6,231,2,0,-3697.5818,288.56793,3906.3848,66.45349,752432.5,793.03186,114.21233,109.88934,116.36986,116.36986,0,1,117.51653,0,0,5.9417872,5.94179,0,5,255,0,0,0,1,-68,80,0
True,36954609,15999.99,0,9161.181,-11.974547,0.27516076,7.5259876,0.69052887,-0.31101346,67.155,0.033273883,-0.043693136,0.056500778,2.135143,0.10593804,0.05021026,0.14927423,0.28561944,0.22729294,0.36379853,0.18953425,0.12827274,0.19236584,0.15983509,211.58144,210.7588,211.90347,211.67847,0,0,0,0,0,0,0,0,0,0,0,0,-0.10420479,-0.09652102,-0.11593811,-0.10571566,0.21629116,0.160531,0.22460245,0.1916326,-0.014355453,0.002369523,-0.001869142,0.014360361,164,6,231,2,0,-3692.1917,287.8586,3902.8396,67.15926,752271.75,784.4306,114.35939,110.09708,116.5306,116.5306,-0.36163807,1,122.5754,0,0,6.0389237,6.038926,0,5,255,0,0,0,1,0,85,0
True,36954718,15999.99,0,9236.152,-6.057131,1.3322961,7.5681467,0.18064499,-0.34831083,67.97661,-0.030098598,0.0072579444,0.081947625,2.1336918,0.10405488,0.058525283,0.22194254,0.3472142,0.26162827,0.38444433,0.11018423,0.10854952,0.1258056,0.12051133,212.99883,212.94444,213.52477,213.44424,0,0,0,0,0,0,0,0,0,0,0,0,-0.039060693,-0.03752693,-0.027781561,-0.0230699,0.11690296,0.11485325,0.12883657,0.12269964,-0.0054414906,0.009925131,0.0022130758,0.016814996,164,6,231,2,0,-3686.0457,287.04987,3898.9016,67.97773,752269.44,777.9993,114.477264,110.25459,116.687935,116.687935,-2.9383774,1,128.01306,0,0,6.147597,6.1475987,0,5,255,0,0,0,1,-1,87,0
True,36954828,15999.99,0,9406.905,-6.182355,-0.32842988,7.045159,0.18736458,-0.28792766,68.81467,0.060778573,-0.21367271,0.010075735,2.1234024,0.105452046,0.062413234,0.19864716,0.28200313,0.27031192,0.34039336,0.26898226,0.15634125,0.22277331,0.16058102,217.63335,216.71722,217.32422,217.25015,0,0,0,0,0,0,0,0,0,0,0,0,-0.46480307,-0.42264703,-0.06525164,-0.059298147,0.53702265,0.45063633,0.23213299,0.17117983,-0.008299053,0.0019259229,0.0032454953,0.011577662,164,6,231,2,0,-3678.9875,286.1438,3894.4636,68.81552,752251.6,764.0469,114.634865,110.45061,116.863235,116.863235,-7.3043084,1,134.47946,0,0,6.2701783,6.2701807,0,5,255,0,0,0,1,-127,85,0
True,36954921,15999.99,0,9467.456,-15.169418,1.0997101,6.839628,0.921566,-0.29179808,69.46673,-0.048579488,-0.45809636,-0.031053364,2.0891523,0.10638799,0.05672953,0.24580206,0.35416147,0.2653322,0.3638795,0.26156643,0.099351496,0.19668543,0.09474698,218.9765,218.35489,218.46886,218.8028,0,0,0,0,0,0,0,0,0,0,0,0,-0.6975608,-0.574668,-0.20242007,-0.1720122,0.7449886,0.58319294,0.28223935,0.1963802,-0.0025147311,0.010777328,0.0026534423,0.014369987,164,6,231,2,0,-3673.086,285.3772,3890.8857,69.47346,752457.6,759.1887,114.92526,110.8455,117.01487,117.01487,-11.573415,1,139.61627,0,0,6.3705893,6.370591,0,5,255,0,0,0,1,-127,82,0
True,36955062,15999.99,0,9572.463,-22.662468,1.4977298,5.3402944,2.8856373,-0.15747178,69.96076,0.03033026,-0.5402831,0.027721588,2.0169356,0.10836215,0.045819577,0.22833261,0.42962667,0.26191342,0.43205437,0.46670052,0.11542068,0.25848895,0.104343206,223.24048,219.96442,220.80852,220.75983,0,0,0,0,0,0,0,0,0,0,0,0,-1.1118088,-0.8754198,-0.51928425,-0.43226776,1.2057894,0.8829959,0.5800626,0.44468293,-0.004657645,0.020034373,0.002246976,0.022475474,164,6,231,2,0,-3665.0376,284.3712,3886.3862,70.02043,578214.44,577.1486,115.39614,111.563934,117.31277,117.31277,-14.7,1,146.48395,0,0,6.503482,6.5034833,0,5,219,0,0,0,1,-127,78,0
True,36955171,15999.99,0,9704.247,-22.558477,-0.5056223,6.039726,4.3768063,-0.08509957,70.296875,-0.017035637,-0.5621345,-0.0037466218,1.9634118,0.11367785,0.04378168,0.16312362,0.36932296,0.20220357,0.38836786,0.49477327,0.18584248,0.4109417,0.19205852,224.96765,222.43054,224.70364,223.97583,0,0,0,0,0,0,0,0,0,0,0,0,-1.2666721,-1.0241977,-0.7488085,-0.6078322,1.3598746,1.0409219,0.8541588,0.63745314,-0.012656596,0.012637131,-0.0048520826,0.017281473,164,6,231,2,0,-3658.7698,283.58917,3883.188,70.433044,698761.3,687.611,116.28317,112.37906,117.61646,117.61646,-14.7,1,151.95496,0,0,6.6043153,6.604316,0,5,255,0,0,0,1,-127,76,0
True,36955281,15999.99,0,9777.446,-26.503666,1.202551,6.2344418,5.3777103,-0.05062311,70.60362,0.036418114,-0.43447694,0.06411977,1.9071826,0.11403567,0.03941961,0.19800952,0.44483927,0.22699913,0.4861257,0.676268,0.24285078,0.40787017,0.2103599,228.77644,223.85661,225.97754,225.08035,0,0,0,0,0,0,0,0,0,0,0,0,-1.5199744,-1.2595571,-0.8822173,-0.7108376,1.6636287,1.2827551,0.971939,0.74131054,-0.008377269,0.021900445,-0.0019040741,0.028904155,164,6,231,2,0,-3652.0413,282.76102,3880.0796,70.80815,643549.75,628.7643,117.83009,114.13957,118.06098,118.06098,0,1,157.47711,0,0,6.709906,6.709907,0,5,255,0,0,0,1,-127,75,0
True,36955390,15999.99,0,9821.147,-25.330692,0.2242429,6.1414475,6.125736,-0.06068144,70.92767,-0.01547759,-0.42434385,0.02020307,1.8545965,0.11734199,0.038818784,0.15171495,0.37225342,0.1769778,0.37799037,0.6307589,0.23997305,0.40742186,0.2141191,229.1704,224.84587,227.1295,226.29042,0,0,0,0,0,0,0,0,0,0,0,0,-1.6100646,-1.3105819,-0.96560043,-0.78088117,1.7292093,1.3323709,1.0480347,0.80970514,-0.014056057,0.012996603,-0.007851239,0.016047668,164,6,231,2,0,-3644.1506,281.78708,3876.8147,71.19174,650487.94,632.5568,120.27612,116.88936,118.57897,118.57897,0,1,164.06783,0,0,6.8309584,6.8309593,0,5,255,0,0,0,1,-127,75,0
True,36955515,15999.99,0,9846.405,-27.76308,1.2649379,6.6771903,5.9163437,-0.040193662,71.34012,-0.04272383,-0.31490368,0.0015352182,1.8120548,0.11761116,0.035610855,0.19446576,0.43269855,0.17989875,0.4384269,0.43342862,0.12931754,0.37942314,0.19591345,228.9011,225.08113,228.17345,227.0625,0,0,0,0,0,0,0,0,0,0,0,0,-0.8428437,-0.6695928,-0.9100522,-0.70596015,0.9477583,0.68196595,0.98598015,0.7326403,-0.008811969,0.020411186,-0.0075039603,0.023233123,164,6,231,2,0,-3636.3755,280.8318,3873.9941,71.58504,743295.44,720.94104,122.271286,119.28509,119.11688,119.11688,0,1,170.23283,0,0,6.947622,6.9476223,0,5,255,0,0,0,1,0,77,0
True,36955609,15999.99,0,9891.476,-28.197325,0.6432423,7.229404,4.519348,-0.08746363,71.90733,-0.04378344,-0.12921402,0.028985962,1.7915206,0.11709563,0.036495827,0.16875821,0.44257778,0.18417114,0.43261397,0.32475388,0.117460035,0.3511042,0.19680569,229.0827,226.08086,229.60881,228.1959,0,0,0,0,0,0,0,0,0,0,0,0,-0.64703363,-0.5303601,-0.69480306,-0.54057753,0.7239597,0.54321146,0.77847636,0.57528824,-0.01196542,0.021623038,-0.006996006,0.022542007,164,6,231,2,0,-3629.5828,280.00784,3871.868,72.04927,752067.8,725.9165,122.340744,119.56561,119.515976,119.515976,0,1,175.53482,0,0,7.0474153,7.0474157,0,5,255,0,0,0,1,0,80,0
True,36955734,15999.99,0,9908.1045,-23.436249,0.5558278,7.211402,1.5597401,-0.23635492,72.740875,-0.03905692,0.09224682,0.09528985,1.7921826,0.11365761,0.041538198,0.17633268,0.43069068,0.18790524,0.44796738,0.16609918,0.083861366,0.18199834,0.14712396,229.0772,227.28984,229.53267,228.80467,0,0,0,0,0,0,0,0,0,0,0,0,-0.25056183,-0.21814084,-0.21414256,-0.17675576,0.3006163,0.23370528,0.28103456,0.22997403,-0.011036288,0.020164888,-0.006552048,0.024367414,164,6,231,2,0,-3621.4104,279.02618,3869.6902,72.75798,752173.1,724.8871,122.32274,119.74173,119.81206,119.81206,0,1,182.08015,0,0,7.1650295,7.1650295,0,5,255,0,0,0,1,0,86,0
True,36955843,15999.99,0,9982.943,-8.005265,1.2076917,6.693909,-0.03784752,-0.29951054,73.50896,-0.041828744,0.07170756,0.119373515,1.8028723,0.10982085,0.05708366,0.21702722,0.36961767,0.2499836,0.4090863,0.08661586,0.08711018,0.12599985,0.13658339,230.04599,229.71881,230.97197,230.85393,0,0,0,0,0,0,0,0,0,0,0,0,-0.013962532,-0.013586972,0.009954524,0.017467009,0.08773403,0.08816342,0.12639247,0.13769574,-0.0060444362,0.012673285,0.00082860887,0.019744743,164,6,231,2,0,-3613.364,278.07257,3867.7634,73.509575,752319.56,719.71436,122.21562,119.69945,119.971436,119.971436,0,1,188.24492,0,0,7.278893,7.2788935,0,5,255,0,0,0,1,0,91,0
True,36955937,15999.99,0,10074.256,-1.5661488,1.6783028,6.3573065,-0.17262459,-0.25537527,74.13579,0.006230355,-0.038289588,0.029327638,1.8044785,0.10734103,0.064013556,0.27269056,0.3591159,0.33700424,0.40603155,0.10379099,0.08975077,0.1403732,0.14086132,232.01665,231.91547,232.96739,233.10342,0,0,0,0,0,0,0,0,0,0,0,0,-0.06040872,-0.057006914,0.013828323,0.022943683,0.12009073,0.10632492,0.14105268,0.14271764,0.000783585,0.011385068,0.011174716,0.019381553,164,6,231,2,0,-3606.3296,277.26102,3866.1033,74.13642,752518.8,713.4859,122.13057,119.62625,120.12036,120.12036,0,1,193.89825,0,0,7.3773966,7.377397,0,5,255,0,0,0,1,-22,90,0
True,36956062,15999.99,0,10171.398,-8.739029,2.8097286,5.861483,0.26008797,-0.2504661,74.81866,0.0036326516,-0.3033528,-0.005552399,1.7849004,0.10434279,0.06345675,0.2981758,0.37501597,0.33815628,0.41552764,0.18592525,0.108034804,0.15391174,0.090765975,234.91658,234.89183,234.81273,234.9935,0,0,0,0,0,0,0,0,0,0,0,0,-0.53367746,-0.4783978,-0.07984101,-0.06378084,0.56513697,0.49044466,0.17338803,0.11093447,0.0039097704,0.013335474,0.0113116875,0.02051057,164,6,231,2,0,-3598.1387,276.33942,3864.2205,74.81953,752585.1,706.84717,122.11405,119.68066,120.28142,120.28142,-2.9279823,1,200.15309,0,0,7.4908886,7.4908886,0,5,255,0,0,0,1,-127,86,0
True,36956171,15999.99,0,10301.64,-15.133638,-0.70324314,5.8967476,1.822938,-0.22448003,75.31267,-0.015508222,-0.5329675,-0.03559182,1.7427496,0.10913589,0.057219397,0.22149825,0.31634203,0.26256824,0.34259334,0.2967956,0.11773509,0.28611195,0.13097222,237.83286,237.05698,238.28954,238.03777,0,0,0,0,0,0,0,0,0,0,0,0,-0.80887157,-0.6749955,-0.3361035,-0.28211603,0.8616036,0.68518645,0.44139054,0.31103563,-0.0054959916,0.0061381534,0.0023248307,0.011839218,164,6,231,2,0,-3590.8218,275.52017,3862.6765,75.33506,752318.44,697.4505,122.24109,119.9175,120.427505,120.427505,-7.1865234,1,205.72182,0,0,7.5910826,7.591083,0,5,255,0,0,0,1,-127,80,0
True,36956281,15999.99,0,10392.598,-24.689285,1.0928142,6.192218,3.8953648,-0.18509725,75.76061,-0.04389543,-0.5994506,-0.07971756,1.6739444,0.11019409,0.041887566,0.2389741,0.3736763,0.2503496,0.39542073,0.31776696,0.09180203,0.33757353,0.14432038,239.79416,238.50896,240.72142,240.2333,0,0,0,0,0,0,0,0,0,0,0,0,-0.6421277,-0.5166369,-0.6264248,-0.50076246,0.71645224,0.5247297,0.7115925,0.52114433,-0.0033522919,0.01317114,0.000872124,0.01812001,164,6,231,2,0,-3582.0356,274.53027,3861.1165,75.86091,752254.6,691.198,122.55626,120.475494,120.72798,120.72798,-12.381784,1,212.59236,0,0,7.7098346,7.7098336,0,5,255,0,0,0,1,0,72,0
True,36956390,15999.99,0,10196.53,-39.052757,-0.04198122,-15.9829855,3.3331447,-0.106808364,73.54242,0.035799425,-0.37894902,0.04208695,1.6242973,0.112013526,0.032248218,0.19860713,0.4008716,0.23190288,0.43963194,0.6262256,0.112180755,0.42936832,0.2451142,238.85481,231.89507,235.78154,235.3042,0,0,0,0,0,0,0,0,0,0,0,0,-0.43447688,-0.37443918,-0.5711928,-0.4706717,0.76218677,0.3908826,0.71457565,0.5306721,-0.008303963,0.01650709,-0.001321055,0.02337639,164,6,231,2,0,-3574.6235,273.7015,3860.2017,73.618,663779.2,621.32446,122.68434,120.733826,121.058586,121.058586,0,1,218.15518,0,0,7.8109627,7.8109617,0,5,255,0,0,0,1,0,68,0
True,36956500,15999.99,0,10076.219,-30.871302,1.0678278,-0.59037197,2.4773188,-0.2447555,73.614,-0.013202909,-0.1751866,0.04018823,1.5943936,0.10995926,0.032080673,0.20269501,0.43342152,0.2496326,0.46232975,0.34096903,0.10082584,0.21142672,0.1260744,234.77965,231.31955,232.7811,232.25739,0,0,0,0,0,0,0,0,0,0,0,0,-0.36146688,-0.3045209,-0.3845182,-0.30966198,0.49690863,0.32077846,0.43881148,0.33434308,-0.007802516,0.02049987,0.00078687817,0.02607499,164,6,231,2,0,-3567.0913,272.84885,3859.6143,73.656075,752264.2,713.0602,122.78265,120.93657,121.33489,121.33489,0,1,223.9758,0,0,7.914243,7.914242,0,5,255,0,0,0,1,0,67,0
True,36956593,15999.99,0,9372.696,-20.253803,-1.536196,-12.69849,0.9109926,-0.22636999,72.27095,0.04110103,0.011264239,0.07806279,1.5881448,0.11343202,0.038692534,0.108548254,0.28178874,0.15525779,0.31906652,-0.6752631,-0.36853725,-0.3127788,-0.2699815,210.04558,216.05333,218.04774,218.55484,0,0,0,0,0,0,0,0,0,0,0,0,-0.14764118,-0.1377367,-0.15821616,-0.14598449,0.69121504,0.393435,0.3505181,0.3069226,-0.01935116,0.0018996261,-0.010433588,0.009042054,164,6,231,2,0,-3559.2544,271.95306,3859.2861,72.27704,752263.94,765.85065,122.83371,121.04172,121.50154,121.50154,0,1,229.82018,0,0,8.022149,8.022148,0,5,255,255,0,0,1,0,66,129
True,36956718,15999.99,0,9082.532,-9.424939,5.663882,-27.677599,-0.24606359,0.43380976,68.66738,-0.056180585,0.0029900027,0.117460705,1.5894333,0.113698624,0.053221874,0.40311825,0.52384394,0.16202329,0.2954979,-0.20903079,-0.22358595,-0.11250362,-0.120610856,208.12106,207.85822,210.7697,210.65503,0,0,0,0,0,0,0,0,0,0,0,0,0.019017257,0.013875579,0.016648093,0.019305129,0.20989408,0.22401609,0.113728724,0.122146085,0.016782679,0.03159166,-0.00962922,0.006239921,164,6,231,2,0,-3550.7405,270.99008,3859.1113,68.66918,751419.06,789.23914,123.05032,121.263885,121.636284,121.636284,0,1,236.16518,0,0,8.143925,8.143925,0,5,255,255,0,0,1,0,64,129
True,36956828,15999.99,0,8920.57,-3.038984,12.874901,-23.628145,-0.263175,0.6011146,66.0136,-0.30192694,-0.026770141,0.052268103,1.5864886,0.09376893,0.062692665,0.7775008,0.7987328,0.46064833,0.4732075,0.025940854,0.026854198,0.056180924,0.057360534,205.49077,205.62746,206.26683,206.26015,0,0,0,0,0,0,0,0,0,0,0,0,0.039575562,0.030890098,0.020108154,0.036656413,0.047319688,0.040930994,0.059671048,0.06807293,0.06270683,0.06531128,0.025875084,0.027368277,164,6,231,2,0,-3543.0076,270.22696,3859.0222,66.01685,752534,805.8122,123.27577,121.48306,121.78791,121.78791,0,1,241.99747,0,0,8.259935,8.259936,0,5,255,7,0,0,1,0,63,253
True,36956937,15999.99,0,8920.084,3.5685344,8.813388,-7.0783854,-0.18484914,0.078226246,65.54525,-0.12600882,0.16008776,0.031362493,1.5901502,0.069432944,0.06631416,0.68084735,0.64619565,0.63363343,0.5926146,0.07121627,0.093751244,0.07669733,0.10944001,205.87361,205.472,206.26514,206.10432,0,0,0,0,0,0,0,0,0,0,0,0,0.30987713,0.33109912,0.00085091626,0.075387746,0.31795534,0.34411615,0.07670205,0.13289255,0.050850697,0.046600103,0.046441734,0.041564897,164,6,231,2,0,-3535.4675,269.66138,3858.9294,65.54555,656152.25,702.583,123.40347,121.59737,122.01806,122.01806,-1.4631157,1,247.59444,0,0,8.374772,8.374773,0,5,226,0,0,0,1,123,59,0
True,36957062,15999.99,0,8794.258,15.9798155,8.868069,-2.5902333,-0.46736956,0.17373109,65.2786,-0.13312483,0.435004,0.042935528,1.6236658,0.053050566,0.07392805,0.66464525,0.5614889,0.63795024,0.5367469,0.014598697,0.041745935,0.00496592,0.067832336,203.6776,202.07674,203.63124,202.80711,0,0,0,0,0,0,0,0,0,0,0,0,0.3475085,0.39459422,0.08075335,0.16206154,0.347815,0.39679632,0.08090589,0.17568485,0.048863247,0.036209434,0.046954967,0.034922644,164,6,231,2,0,-3527.9333,269.20502,3858.7048,65.2805,188434.23,204.61281,123.760254,121.8769,122.21166,122.21166,-14.7,1,253.17647,0,0,8.490463,8.490465,0,5,79,0,0,0,1,1,53,63
True,36957156,15999.99,0,8786.966,14.9340105,5.2749224,-0.09016693,-1.3870726,0.121334285,65.26107,-0.04567363,0.24794175,0.0039745355,1.6585143,0.04215927,0.076872915,0.5641251,0.45512414,0.5420915,0.43542275,0.012559535,0.032568906,0.0122629795,0.056084517,203.20312,202.34438,203.23047,202.80077,0,0,0,0,0,0,0,0,0,0,0,0,0.14772631,0.16550726,0.20646311,0.2694867,0.14825925,0.16868131,0.20682698,0.2752609,0.036532804,0.023162052,0.035558075,0.02287595,164,6,231,2,0,-3521.5437,268.91418,3858.3467,65.27592,123192.75,133.87978,123.86241,121.92938,122.4004,122.4004,-14.7,1,257.91022,0,0,8.588601,8.588604,0,5,65,0,0,0,1,0,45,127
True,36957281,15999.99,0,8840.299,13.583261,4.8460917,1.8022223,-0.7711897,0.008972764,65.41046,-0.14374274,0.044317834,-0.052486673,1.672714,0.03249514,0.07445473,0.53389245,0.375239,0.4911272,0.35455152,0.0371505,0.05029903,0.058296386,0.07593394,203.82326,203.81969,204.3323,204.3613,0,0,0,0,0,0,0,0,0,0,0,0,0.098510034,0.105710804,0.09688174,0.124005124,0.10528241,0.11706736,0.113068745,0.14540714,0.03282427,0.013362832,0.029498793,0.013260961,164,6,231,2,0,-3514.0044,268.62146,3857.7498,65.41501,425348.1,459.5287,123.982544,121.98747,122.60596,122.60596,-14.7,1,263.4933,0,0,8.704488,8.704492,0,5,159,0,0,0,1,0,33,126
True,36957390,15999.99,0,8242.839,5.3408337,3.8120031,-18.429619,-0.1790924,0.21091393,63.326153,0.032965746,-0.018144544,-0.062175304,1.6719191,0.027674902,0.06701762,0.45473236,0.37357607,0.44661218,0.35180882,-0.4087941,-0.44647518,-0.229172,-0.24096008,188.03316,187.41985,191.81573,191.76627,0,0,0,0,0,0,0,0,0,0,0,0,0.034297112,0.033541087,0.017490674,0.030671734,0.4102303,0.44773328,0.22983849,0.24290434,0.023113996,0.013158847,0.024206288,0.012934875,164,6,231,2,0,-3506.6328,268.41864,3857.0427,63.32676,313146.72,362.23883,124.15294,122.15584,122.763954,122.763954,-14.7,1,268.94568,0,0,8.819041,8.819044,0,5,111,255,0,0,1,0,19,253
True,36957484,15999.99,0,7667.45,1.1172596,0.19492343,-27.519861,-0.031749725,0.4061567,60.475445,0.02369217,-0.014149255,-0.074019864,1.6703805,0.0317319,0.060399856,0.44903326,0.34636226,0.32683533,0.22698992,-0.5084415,-0.7980796,-0.54584026,-0.52840513,177.66231,172.93036,177.86986,178.20729,0,0,0,0,0,0,0,0,0,0,0,0,0.012810892,0.009774618,0.0058947774,0.006413078,0.50860286,0.79813945,0.5458721,0.52844405,0.022414908,0.009820625,0.00996571,-0.0019051693,164,6,231,2,0,-3500.6135,268.2692,3856.4478,60.47682,-75366.87,-93.75889,124.38748,122.47734,122.87857,122.87857,-14.7,1,273.4045,0,0,8.916768,8.916771,0,5,0,255,0,0,1,0,8,249
True,36957609,15999.99,0,7338.4497,0.17781377,3.468364,-31.987715,-0.01204443,0.57211864,56.621414,-0.036253925,-0.0023198859,-0.037308563,1.6696124,0.027678223,0.053823024,0.5492231,0.4857858,0.3286296,0.26087224,-0.5179379,-0.5144515,-0.24442823,-0.24235901,166.11635,166.14313,171.25633,171.32117,0,0,0,0,0,0,0,0,0,0,0,0,0.0066602766,0.0017891381,0.0034618855,0.0023689205,0.5179807,0.5144546,0.24445274,0.24237059,0.034704834,0.02692321,0.010179039,0.0021231882,164,6,231,2,0,-3493.8623,268.12073,3855.7812,56.624302,-69219.164,-89.881454,124.67178,122.81631,123.07429,123.07429,-14.7,1,278.40515,0,0,9.032828,9.032831,0,5,0,255,0,0,1,0,251,237
True,36957718,15999.99,0,6808.2217,1.2162545,1.8545856,-31.847853,0.019381523,0.56252754,53.00096,-0.0382772,0.07267456,-0.02476417,1.6710905,0.024327945,0.05059774,0.4977177,0.4183218,0.26252216,0.23211537,-0.42308643,-0.73996764,-0.34258246,-0.37779388,157.12433,151.75545,159.15567,158.33026,0,0,0,0,0,0,0,0,0,0,0,0,0.18769252,0.1950912,0.014912107,0.013601277,0.46285054,0.7652533,0.34290686,0.37803864,0.028386854,0.018647641,0.0023193508,-0.0012957901,164,6,231,2,0,-3487.6355,268.0227,3855.1672,53.00395,-59506.27,-83.31332,124.97386,123.15173,123.22398,123.22398,-14.7,1,283.0231,0,0,9.147072,9.147074,0,5,0,255,0,0,1,63,240,225
True,36957828,15999.99,0,6304.5073,5.215744,0.99416655,-30.21381,-0.41445065,0.5189355,49.660286,-0.0022645472,0.24662822,-0.006610343,1.6913077,0.020317465,0.04895348,0.47548497,0.41543496,0.27786687,0.21566023,-0.7548963,-0.29445678,-0.42536637,-0.7749349,142.73317,149.7549,148.38425,142.11769,0,0,0,0,0,0,0,0,0,0,0,0,0.31106138,0.32972053,0.14463806,0.15111458,0.81647265,0.4420638,0.44928467,0.7895313,0.025659643,0.018293526,0.004143726,-0.0032521859,164,6,231,2,0,-3481.958,267.95645,3854.565,49.664722,-50895.945,-77.01159,125.30724,124.1387,123.369354,123.369354,-14.7,1,287.23123,0,0,9.258447,9.25845,0,4,0,255,0,0,1,67,227,213
True,36957953,15999.99,0,5560.8022,6.175724,0.26902497,-29.230133,-1.1293259,0.48602828,45.98433,-0.017202422,0.18878871,-0.006420144,1.7225046,0.018103858,0.04835592,0.4482661,0.3726857,0.21926615,0.16544892,-0.5493442,-2.437075,-0.75588495,-0.9698991,134.75182,110.77677,132.27888,130.69112,0,0,0,0,0,0,0,0,0,0,0,0,0.17563815,0.17699847,0.29912344,0.32228893,0.57673895,2.4434938,0.8129188,1.0220443,0.0223208,0.013049629,-0.0028234683,-0.0092219375,164,6,231,2,0,-3475.8828,267.89688,3853.835,46.000763,-39085.6,-67.35485,125.711235,127.31528,123.60231,123.60231,-14.7,1,291.73447,0,0,9.38632,9.386323,0,4,0,255,0,0,1,0,213,200
True,36958062,15999.99,0,4691.116,6.320761,0.3351184,-57.49189,-1.0440025,0.40101606,38.4844,-0.029552475,0.03580089,-0.0061818706,1.7315454,0.014850879,0.049002416,0.4761183,0.3898588,0.25018126,0.16753985,-0.4608887,-2.4729254,-0.40869153,-1.0403194,113.60554,88.8426,114.57105,109.8031,0,0,0,0,0,0,0,0,0,0,0,0,0.24196453,0.2521962,0.28198472,0.31098446,0.5205432,2.485752,0.4965321,1.0858065,0.02573733,0.015156191,0.000852108,-0.008973341,164,6,231,2,0,-3471.943,267.8645,3853.3481,38.50065,-28037.436,-57.115204,125.998344,129.77359,123.847046,123.847046,-14.7,1,294.65485,0,0,9.484933,9.484936,0,4,0,255,0,0,1,0,206,189
True,36958171,15999.99,0,4317.5825,4.5678897,0.4865942,-31.531279,-0.3334322,0.378711,35.24309,-0.023564016,-0.05531676,-0.04882092,1.7290335,0.012448438,0.045094017,0.4867841,0.3954708,0.23157482,0.15290274,-0.91206425,-1.1910958,-0.9600076,-0.84895825,99.03145,100.05482,99.40705,100.20108,0,0,0,0,0,0,0,0,0,0,0,0,0.1187627,0.11691868,0.08589651,0.09089057,0.919764,1.1968205,0.96384275,0.85380983,0.027045667,0.015844595,-0.0013600588,-0.010713587,164,6,231,2,0,-3467.652,267.8497,3852.731,35.246704,-23787.12,-52.627396,126.33374,133.89334,124.06119,124.06119,-14.7,1,298.10953,0,0,9.60262,9.602623,0,4,0,255,0,0,1,0,199,177
True,36958281,15999.99,0,3829.0393,1.3907533,0.46125638,-29.386198,-0.04962063,0.34240597,32.304783,-0.012755666,-0.051897023,-0.033153217,1.7236367,0.010174721,0.0415595,0.4953774,0.43848163,0.25462797,0.20262158,-1.943322,-2.9926417,-0.55676526,-0.5611966,79.89196,73.118904,94.66118,95.0966,0,0,0,0,0,0,0,0,0,0,0,0,0.041088562,0.038074635,0.0002974929,-0.00014800347,1.9437562,2.992884,0.5567653,0.5611966,0.028099775,0.021120578,0.00138079,-0.0048023835,164,6,231,2,0,-3464.289,267.84732,3852.222,32.306637,-18780.58,-46.766342,127.03578,134.94885,124.30644,124.30644,-14.7,1,300.63123,0,0,9.703474,9.703478,0,4,0,255,0,0,1,0,194,168
True,36958390,15999.99,0,3692.9255,3.2260072,-0.58192164,-23.320587,0.22414303,0.2913323,29.526665,0.014090193,0.112127155,0.007929394,1.7245978,0.010801152,0.04058742,0.4523358,0.41242424,0.2587355,0.22732073,-1.2025183,-0.41369534,-0.94991875,-0.29341355,80.05154,88.78321,84.48539,87.027176,0,0,0,0,0,0,0,0,0,0,0,0,0.46131644,0.49617562,-0.029703043,-0.03186458,1.2879686,0.646014,0.950383,0.29513872,0.022820018,0.017924212,0.0018691458,-0.0018658377,164,6,231,2,0,-3460.699,267.84796,3851.6655,29.52895,-17619.045,-45.30031,129.4691,136.7541,124.75479,124.75479,0,1,303.3245,0,0,9.821403,9.821404,0,4,0,255,0,0,1,103,190,129
True,36958500,15999.99,0,3469.4863,7.3010006,-0.54348177,-19.446924,0.2804222,0.22202086,27.34987,-0.010018954,0.38151383,0.015787492,1.7539432,0.009708982,0.042799804,0.4401557,0.36859083,0.25894094,0.19637895,-0.14483508,-0.9502687,-0.6095428,-0.5991983,84.14917,73.14386,81.38796,80.46467,0,0,0,0,0,0,0,0,0,0,0,0,0.6862555,0.80157197,0.06849271,0.074824244,0.7013728,1.2431928,0.6133789,0.60385203,0.021325931,0.012547325,0.0018935688,-0.005544588,164,6,231,2,0,-3457.4255,267.84396,3851.0828,27.35221,-15500.333,-42.559937,130.01736,137.0672,124.994644,124.994644,0,1,305.78754,0,0,9.938411,9.938415,0,4,0,255,0,0,1,103,188,129
True,36958609,15999.99,0,3085.1106,10.308313,0.108144194,-18.908981,-0.017838001,0.18382058,25.432701,-0.022712145,0.574065,-0.009679486,1.8028806,0.005130458,0.043593146,0.44697478,0.3423749,0.2669519,0.19534838,-1.0051442,-1.8770231,-0.44352406,-1.3577198,76.2878,60.381046,75.927895,69.72311,0,0,0,0,0,0,0,0,0,0,0,0,0.78579533,0.9406467,0.28165543,0.30613285,1.2758484,2.0995314,0.5253983,1.3918047,0.0221624,0.0093315095,0.00284601,-0.005667113,164,6,231,2,0,-3454.8604,267.84546,3850.5308,25.43337,-12135.788,-37.685116,130.32567,137.59616,125.178955,125.178955,0,1,307.72714,0,0,10.037904,10.037908,0,5,0,255,0,0,1,102,186,129
True,36958718,15999.99,0,2806.639,12.044036,0.059853137,-17.73413,-0.4889965,0.19945067,23.316029,0.006187035,0.7246668,-0.005471623,1.8786933,0.0021051378,0.04292992,0.423038,0.2903135,0.26391962,0.1749762,-0.17041586,-0.49461064,-1.0314,-2.1487627,72.343636,66.967735,66.34499,58.058163,0,0,0,0,0,0,0,0,0,0,0,0,1.0266713,1.2607096,0.5836898,0.66598773,1.0407187,1.3542631,1.1851075,2.2496047,0.019226164,0.00294533,0.0024855025,-0.008089215,164,6,231,2,0,-3452.1206,267.85657,3849.8064,23.32201,-10048.968,-34.20894,131.40353,139.53967,125.54596,125.54596,0,1,309.8119,0,0,10.154326,10.154329,0,5,0,255,0,0,1,100,185,129
True,36958843,15999.99,0,2546.5303,13.022286,-0.4563657,-14.47517,-1.1395817,0.14752203,21.470463,0.020965463,0.84493744,-0.01341467,1.9715846,-0.00172713,0.041370336,0.3953827,0.27033183,0.24556117,0.13342638,-0.27258232,-1.8781719,-1.7167593,-0.9653767,66.12245,54.123928,56.618336,59.58395,0,0,0,0,0,0,0,0,0,0,0,0,1.3524638,1.6116974,0.9828518,1.1529922,1.3796592,2.4748936,1.9781963,1.5037763,0.015833788,0.00049424917,0.00030281395,-0.0130291805,164,6,231,2,0,-3449.6562,267.87335,3848.9976,21.50119,-8279.242,-31.047314,133.42758,142.33676,126.96748,126.96748,0,1,312.65894,0,0,10.2703705,10.270374,0,4,0,255,0,0,1,102,183,129
True,36958937,15999.99,0,2364.1973,13.120792,-0.8206208,-11.948958,-1.6498022,0.14964965,20.116552,0.043492697,0.8602949,-0.02921626,2.0559382,-0.00097578403,0.039166886,0.41727415,0.24338478,0.23893303,0.1326282,-1.454594,-0.97970986,-1.3565273,-1.0887116,52.50569,54.477947,54.876366,55.522293,0,0,0,0,0,0,0,0,0,0,0,0,1.5512413,1.9131026,1.31965,1.5418693,2.126545,2.1493704,1.8925228,1.8874993,0.01851913,-0.0028112493,-0.0004852228,-0.0131240785,164,6,231,2,0,-3447.719,267.886,3848.2341,20.184647,-7351.568,-29.413105,136.50157,145.58105,128.68425,128.68425,0,1,314.2062,0,0,10.370483,10.370487,0,5,0,255,0,0,1,102,182,129
True,36959046,15999.99,0,2762.914,15.826439,-0.46742207,-3.6396298,-1.9500151,0.12636769,19.344135,-0.015850697,0.9209156,-0.02700429,2.1567266,-0.0024194405,0.035748158,0.43512043,0.24795651,0.27377513,0.13721286,0.26855275,1.2132125,0.3103013,1.3671378,62.96289,62.81192,64.16277,64.4495,0,0,0,0,0,0,0,0,0,0,0,0,1.6705731,2.0930662,1.4560394,1.8253281,1.692021,2.4192584,1.488737,2.2805457,0.02070827,-0.0022504516,0.0036572441,-0.012578998,164,6,231,2,0,-3445.7139,267.8962,3847.2898,19.442585,110038.32,380.09497,140.05919,148.45502,131.41531,131.41531,0,1,315.86084,0,0,10.483478,10.483482,0,5,255,0,0,0,1,102,180,0
True,36959171,15999.99,0,2820.0896,16.59622,-0.16742462,3.4177542,-1.9666147,0.07183537,19.562954,-0.018449485,0.8495289,-0.01931982,2.2556274,-0.0075657703,0.032786023,0.35917887,0.19811417,0.3251488,0.168503,0.401813,1.4239676,0.39298588,1.4035915,64.19789,64.67747,65.25664,65.7479,0,0,0,0,0,0,0,0,0,0,0,0,1.7849005,2.1465597,1.4006597,1.7501853,1.8295692,2.5759275,1.4547458,2.2434833,0.011392795,-0.008364432,0.009765193,-0.00885883,164,6,231,2,0,-3443.8313,267.91092,3846.1694,19.661688,147537.28,499.72797,143.3541,152.06013,134.1149,134.1149,-4.937299,1,317.49503,0,0,10.595598,10.595603,0,5,255,0,0,0,1,102,177,0
True,36959281,15999.99,0,2846.7312,16.194,-0.14920792,4.727757,-1.9555264,-0.008710235,19.859486,-0.018768312,0.7654374,-0.008908739,2.348578,-0.013523707,0.03108715,0.34073693,0.18812107,0.30642787,0.18424125,0.35516495,1.8030384,0.33486888,1.0543065,64.6267,67.58915,65.600975,65.49302,0,0,0,0,0,0,0,0,0,0,0,0,1.804833,2.2774296,1.345854,1.586933,1.8394468,2.9047604,1.3868887,1.9052346,0.009130586,-0.0095902495,0.007539414,-0.0069876686,164,6,231,2,0,-3442.019,267.93085,3844.839,19.955532,152719.58,512.7442,146.63393,155.78065,136.5584,136.5584,-8.980192,1,319.1551,0,0,10.709112,10.709118,0,5,255,0,0,0,1,102,174,0
True,36959390,15999.99,0,2870.2327,16.055279,-0.68534553,4.258064,-1.6816416,-0.031735092,20.121271,0.09368643,0.57555777,-0.024062835,2.426787,-0.01223497,0.026359024,0.3047208,0.11386395,0.32330966,0.21860106,0.36296812,2.105445,0.3132213,0.84250927,64.95264,70.09965,65.68335,65.54918,0,0,0,0,0,0,0,0,0,0,0,0,1.8476125,2.292453,1.1247804,1.2851584,1.882928,3.1125937,1.1675781,1.5367023,0.004712619,-0.018699102,0.009546533,-0.0029025413,164,6,231,2,0,-3440.3005,267.95288,3843.3086,20.191444,136683.14,454.78577,149.95518,159.81726,138.19244,138.19244,-11.352255,1,322.62262,0,0,10.823817,10.823822,0,4,255,0,0,0,1,102,174,0
True,36959500,15999.99,0,2937.1104,13.959913,-1.512648,4.8768706,-1.3630838,0.0036343336,20.468666,0.082891084,0.5262017,-0.046766993,2.478714,-0.0032542208,0.022267664,0.2727727,0.097544126,0.29523432,0.16919272,0.42366776,1.3518575,0.4492895,1.220607,66.38836,68.17253,67.55485,68.703125,0,0,0,0,0,0,0,0,0,0,0,0,1.7038331,2.0319507,0.9598059,1.1397463,1.7557169,2.440562,1.0597587,1.6700009,0.0007936619,-0.020700997,0.0062085837,-0.008776829,164,6,231,2,0,-3438.922,267.96378,3841.864,20.514004,183935.2,598.75305,152.32382,162.87547,138.55711,138.55711,0,1,324.05838,0,0,10.921966,10.921969,0,4,255,0,0,0,1,102,176,0
True,36959609,15999.99,0,3002.116,14.963626,-0.9566848,5.696339,-1.0036879,-0.052507013,21.005047,-0.0085117705,0.6179108,-0.046264425,2.5472417,-0.0018483712,0.017326321,0.3635499,0.14007236,0.2651533,0.1321781,0.3124146,1.7016037,0.34675893,0.97657967,67.95915,71.88974,68.89398,69.13047,0,0,0,0,0,0,0,0,0,0,0,0,1.4267254,1.8256189,0.8036552,0.94222504,1.4605302,2.4956641,0.87527335,1.3570173,0.011928972,-0.01548421,0.002632171,-0.013177592,164,6,231,2,0,-3437.4033,267.9639,3840.003,21.029076,199563.22,635.0337,154.33952,165.2662,138.53372,138.53372,0,1,325.82156,0,0,11.037638,11.037642,0,4,255,0,0,0,1,102,184,0
True,36959718,15999.99,0,3084.6116,15.362778,-0.45093626,6.8120627,-0.58048344,-0.07578683,21.689178,0.032907806,0.5112201,-0.037842996,2.6113887,-0.0015600008,0.013268724,0.31440645,0.13981912,0.3627813,0.2013983,0.38453358,1.6562048,0.28640562,0.82346964,70.343094,74.4098,70.41253,70.83086,0,0,0,0,0,0,0,0,0,0,0,0,1.3448677,1.6625818,0.52973914,0.6228027,1.398762,2.346741,0.60220575,1.0324657,0.005900722,-0.015515275,0.0142394155,-0.0049478225,164,6,231,2,0,-3436.0256,267.95944,3837.978,21.697077,242565.62,751.33417,155.4155,167.38101,138.42294,138.42294,0,1,327.6473,0,0,11.152354,11.152357,0,4,255,0,0,0,1,102,196,0
True,36959828,15999.99,0,3194.033,13.956981,-0.7324012,7.885112,-0.2904358,-0.08043754,22.490139,0.03016198,0.5383659,-0.039780833,2.6686153,0.0016223382,0.008922753,0.3055063,0.15547074,0.33232078,0.20384088,0.35839972,1.5553626,0.29217494,0.7988947,72.92812,76.85873,73.043594,73.26475,0,0,0,0,0,0,0,0,0,0,0,0,1.1964678,1.5000613,0.41113812,0.47170654,1.2489938,2.1608648,0.50438154,0.92776066,0.0048089735,-0.013595348,0.010617889,-0.0046574175,164,6,231,2,0,-3434.8115,267.9506,3835.8545,22.492157,276284.62,826.64557,155.8173,168.68277,138.23212,138.23212,0,1,329.4844,0,0,11.263096,11.2631,0,4,255,0,0,0,1,102,207,0
True,36959937,15999.99,0,3287.0684,13.399362,-0.6511441,7.95063,-0.19939518,-0.09269963,23.203133,0.022412404,0.56931365,-0.032704644,2.7219,0.0037370974,0.005392991,0.31067228,0.11051639,0.32076898,0.23935615,0.29462257,1.6034809,0.26665667,0.7114741,74.98378,79.55218,75.231285,75.12985,0,0,0,0,0,0,0,0,0,0,0,0,1.0839689,1.376267,0.37685108,0.42520446,1.1232947,2.1131165,0.46165195,0.82885116,0.005442664,-0.019109735,0.009244468,-0.00043491647,164,6,231,2,0,-3433.8467,267.93588,3833.8877,23.204174,293748.4,854.1894,155.74277,169.5792,138.0511,138.0511,0,1,331.5516,0,0,11.35896,11.358965,0,4,255,0,0,0,1,102,218,0
True,36960062,15999.99,0,3431.6475,14.499949,0.057671018,8.982317,-0.21782398,-0.10860333,24.201012,-0.032975066,0.67588836,-0.025698759,2.7961123,0.0027683494,0.0021486508,0.31225434,0.1508199,0.34652683,0.18653613,0.28086302,1.1699665,0.28044277,0.8946335,78.52077,80.56256,78.86455,79.326866,0,0,0,0,0,0,0,0,0,0,0,0,0.8785471,1.0760862,0.40258616,0.4807416,0.9223497,1.5895858,0.49063608,1.0156188,0.0056367293,-0.01416585,0.012306884,-0.0067148246,164,6,231,2,0,-3432.7734,267.91333,3831.282,24.202234,339401.5,945.21826,155.15132,169.7734,137.8725,137.8725,0,1,333.56763,0,0,11.47789,11.477893,0,4,255,0,0,0,1,93,230,0
True,36960156,15999.99,0,3570.4724,11.222292,0.64456743,12.176756,-0.5993762,-0.15130192,25.400633,-0.042418018,0.48350957,-0.021087185,2.8566713,-0.0015766512,-0.0013247515,0.28799477,0.1494467,0.3612596,0.25093582,0.210828,0.6515702,0.33422264,0.7256229,81.56001,81.99263,82.725395,82.92898,0,0,0,0,0,0,0,0,0,0,0,0,-0.020510662,-0.02195749,0.43271068,0.49069726,0.21182336,0.6519401,0.5467571,0.8759637,0.0026608966,-0.014334297,0.014058504,0.00094182044,164,6,231,2,0,-3431.9622,267.89764,3828.9133,25.408154,484894.12,1298.36,154.23758,168.30899,137.80113,137.80113,0,1,335.38486,0,0,11.578927,11.578931,0,4,255,0,0,0,1,0,240,0
True,36960265,15999.99,0,3752.4087,10.243378,0.78769296,13.623492,-0.395926,-0.2128866,26.90986,-0.049849983,0.20236503,-0.01693709,2.895724,-0.007415411,-0.0037168562,0.22921632,0.14286895,0.3733932,0.2613349,0.25716996,0.5285002,0.30165458,0.5174114,85.97759,86.84648,86.58614,87.00225,0,0,0,0,0,0,0,0,0,0,0,0,0.048638,0.053375933,0.22477107,0.25343072,0.26172894,0.5311887,0.37618816,0.5761438,-0.0045492426,-0.015141163,0.015501101,0.0021781959,164,6,231,2,0,-3431.1228,267.8907,3826.0244,26.913616,530279.3,1351.1327,153.16791,166.31425,137.73605,137.73605,0,1,337.5872,0,0,11.693891,11.693895,0,4,255,0,0,0,1,0,251,0
True,36960375,15999.99,0,3935.9978,5.718976,0.65736586,13.935553,-0.1135149,-0.24640995,28.295029,-0.030311512,0.026396558,-0.039138947,2.905096,-0.010977135,-0.006806475,0.2405835,0.15210906,0.3337932,0.2618476,0.29791865,0.44259012,0.36426473,0.39503914,90.22924,91.127945,90.98568,91.05368,0,0,0,0,0,0,0,0,0,0,0,0,0.032490563,0.035879154,0.053696763,0.057545297,0.2996851,0.44404203,0.36820123,0.39920846,-0.0031548738,-0.0140077155,0.010792948,0.002239149,164,6,231,2,0,-3430.4517,267.89365,3823.376,28.296328,585286.94,1421.9717,152.32239,164.69756,137.61716,137.61716,-3.5003471,1,339.59695,0,0,11.79282,11.792825,0,4,255,0,0,0,1,0,5,0
True,36960500,15999.99,0,4179.0396,1.5544119,0.7772516,14.429519,-0.0033502579,-0.2755819,30.069633,-0.03455388,0.001412008,-0.026258033,2.9060323,-0.01507627,-0.0111459065,0.26014596,0.22849038,0.364698,0.32314047,0.35915694,0.3476098,0.36943415,0.36772487,96.27785,96.22238,96.67205,96.637985,0,0,0,0,0,0,0,0,0,0,0,0,0.001943226,0.0049371747,2.6576845E-05,0.006277664,0.35916218,0.34764484,0.36943415,0.36777845,-0.0007552169,-0.004638292,0.014467299,0.00952642,164,6,231,2,0,-3429.6123,267.90796,3819.9048,30.070896,637060.94,1457.5338,151.37796,162.79117,137.48566,137.48566,-8.170894,1,342.2273,0,0,11.915129,11.915133,0,4,255,0,0,0,1,0,18,0
True,36960609,15999.99,0,4396.139,0.26423025,0.4291114,14.196912,0.007791519,-0.28014836,31.585957,0.0047411574,-0.00069089374,-0.012262905,2.9060652,-0.016604587,-0.012947323,0.25695127,0.2441582,0.39888194,0.37982097,0.42427996,0.37141997,0.37927318,0.38622528,101.629135,101.205986,101.56742,101.604034,0,0,0,0,0,0,0,0,0,0,0,0,-0.0056347833,-0.0017066059,-0.008511447,0.0033991917,0.42431736,0.37142387,0.37936866,0.38624024,-0.0011470951,-0.0027163774,0.018531516,0.01626531,164,6,231,2,0,-3428.8472,267.9312,3816.7163,31.5872,643607,1399.5739,150.63121,161.25668,137.39375,137.39375,-10.095781,1,344.64288,0,0,12.021417,12.02142,0,4,255,0,0,0,1,0,30,0
True,36960718,15999.99,0,4631.82,0.18545699,-0.4238115,13.859384,0.0077762604,-0.27448428,33.254963,0.016124113,0.00028546137,0.005826177,2.905958,-0.014499666,-0.013377229,0.22108,0.22401814,0.3580564,0.34981954,0.40850505,0.35169446,0.40534794,0.41407984,106.84826,106.36101,107.139145,107.19496,0,0,0,0,0,0,0,0,0,0,0,0,-0.004909422,-0.0015264436,-0.0065090237,0.0007207033,0.40853453,0.35169777,0.4054002,0.41408047,-0.0055472963,-0.0051868856,0.013677668,0.0126983635,164,6,231,2,0,-3427.9304,267.95914,3812.8945,33.256096,669201.5,1381.0463,149.86304,159.6348,137.31729,137.31729,0,1,347.3899,0,0,12.142574,12.142577,0,4,255,0,0,0,1,0,46,0
True,36960812,15999.99,0,4812.317,0.10485506,-0.52838767,13.8754635,0.0011000633,-0.29457542,34.601818,0.016167473,0.0021025368,0.020619879,2.9060483,-0.013495805,-0.01193458,0.18650053,0.21577367,0.35733142,0.3523255,0.43922746,0.35810947,0.36542842,0.3814312,111.44533,110.7184,111.11336,111.22374,0,0,0,0,0,0,0,0,0,0,0,0,-0.0048777005,-0.0015282667,-0.0049011856,0.0020829353,0.43925455,0.35811272,0.3654613,0.38143688,-0.009789035,-0.006198205,0.013591468,0.012996305,164,6,231,2,0,-3427.1497,267.97778,3809.6418,34.603073,683081.3,1356.8379,149.2861,158.4053,137.2754,137.2754,0,1,349.81113,0,0,12.2411,12.241104,0,4,255,0,0,0,1,0,61,0
True,36960937,15999.99,0,4883.976,32.27039,-1.0846878,-5.1868987,1.9415116,-0.29893142,34.87744,0.025796723,0.17173283,0.007722697,2.9116912,-0.010485375,-0.006242161,0.17360643,0.2079431,0.3114789,0.30956015,0.3129667,0.6183485,0.6622186,0.41624242,111.87217,112.343094,114.766045,111.56146,0,0,0,0,0,0,0,0,0,0,0,0,-0.064304024,-0.043604665,-0.5026168,-0.49209008,0.31950456,0.619884,0.8313586,0.6445234,-0.011370707,-0.0071587525,0.008139949,0.007911816,164,6,231,2,0,-3426.301,267.99133,3805.7888,34.932716,385341.6,749.62463,148.68475,157.1214,137.23679,137.23679,0,1,352.67792,0,0,12.353781,12.353783,0,4,255,0,0,0,1,107,79,0
True,36961031,15999.99,0,4904.278,15.625765,-0.45742223,1.7009752,2.4862986,-0.24941263,34.910805,0.001330542,0.45838264,0.013141329,2.9439764,-0.008972356,-0.004717259,0.20696655,0.23612653,0.3032369,0.31147793,0.3574669,0.34414908,0.48297244,0.5726846,113.42037,111.05471,114.420715,113.21115,0,0,0,0,0,0,0,0,0,0,0,0,0.20122443,0.25464633,-0.5344943,-0.5219396,0.41021195,0.42811605,0.7203794,0.77484745,-0.007278543,-0.0037015937,0.007160034,0.008139826,164,6,231,2,0,-3425.8665,267.99887,3802.4756,35.000114,609905.8,1188.0424,148.21812,156.16182,137.40268,137.40268,0,1,355.138,0,0,12.450231,12.450233,0,4,255,0,0,0,1,110,88,0
True,36961156,15999.99,0,5070.9697,6.1276445,0.25596303,10.182857,0.45626783,-0.22618613,36.319096,-0.00452337,0.6945509,0.049670205,3.013399,-0.008908742,-0.002227351,0.18146509,0.20531973,0.31352058,0.33620498,0.2771586,0.6172295,0.26521015,0.5522635,117.28828,117.115425,117.31798,116.80753,0,0,0,0,0,0,0,0,0,0,0,0,0.31127456,0.34717607,0.12569049,0.13988975,0.4167838,0.70816916,0.29348683,0.56970525,-0.010406714,-0.0074805506,0.0083826855,0.011079691,164,6,231,2,0,-3425.3516,268.00433,3798.3762,36.322662,628148.94,1183.6023,147.68285,155.0426,137.43636,137.43636,0,1,358.18134,0,0,12.56607,12.566073,0,3,255,0,0,0,1,110,100,0
True,36961265,15999.99,0,5210.565,19.677488,-0.70949996,8.403614,-0.19787419,-0.30803958,37.200794,0.022481555,0.6661817,0.07478143,3.094453,-0.007880691,0.0055924966,0.15975317,0.15544172,0.28015482,0.26880193,0.21357499,0.8486693,0.2624351,0.6036029,119.4041,122.00243,120.12378,120.14939,0,0,0,0,0,0,0,0,0,0,0,0,0.42831445,0.4931085,0.2934455,0.33493856,0.47861,0.98152715,0.3936781,0.69030446,-0.013070038,-0.013598908,0.004415747,0.003065966,164,6,231,2,0,-3424.9846,268.00864,3794.0862,37.202595,561737.75,1029.9147,147.25887,154.15312,137.4634,137.4634,0,1,361.2896,0,0,12.683152,12.683156,0,3,255,0,0,0,1,101,107,0
True,36961375,15999.99,0,5551.845,13.559606,-1.9224048,8.65755,-1.4084241,-0.41611457,37.97667,0.026968881,0.5954463,0.17699918,-3.1245675,-0.0061578965,0.01229556,0.11977798,0.15214835,0.2318472,0.25826833,0,0.9270836,0,1.0325884,129.52016,125.66302,128.81525,128.29578,0,0,0,0,0,0,0,0,0,0,0,0,0,0.24626489,0,0.587624,0,0.9592343,0,1.1880828,-0.01797365,-0.014002895,-0.0013276748,0.0018136017,164,6,231,2,0,-3424.859,268.0036,3790.3398,38.005054,646779.25,1119.1234,146.91867,153.4915,137.4858,137.4858,0,1,364.0631,0,0,12.782676,12.7826805,0,3,255,0,0,0,1,0,109,0
True,36961484,15999.99,0,5444.272,17.200668,0.45893478,8.356789,-1.7806015,-0.29967204,38.864746,0.00826654,0.43102583,0.06559602,-3.063052,-0.007843287,0.024689393,0.28918165,0.15942158,0.107139066,0.2748038,0.09562931,1.3383963,0.18502626,0.51493686,122.75225,132.46191,124.07803,125.36028,0,0,0,0,0,0,0,0,0,0,0.120000005,0,0.2824086,0.35040832,0.46047422,0.62629026,0.29816034,1.3835067,0.49625722,0.8108017,0.0028064884,-0.013110714,-0.016154548,0.0037795492,164,6,231,2,0,-3424.878,267.98602,3785.8518,38.906666,493500.7,865.872,146.53166,153.17563,137.46893,137.46893,0,1,367.38544,0,0,12.899274,12.89928,0,3,255,0,0,0,1,0,109,0
True,36961593,15999.99,0,5538.174,11.448211,1.3410208,10.095977,-1.9553311,-0.39844966,39.863728,-0.019440498,0.2248485,-0.032802377,-3.0254786,-0.0138686085,0.02845963,0.3423773,0.20510378,0.48847464,0.34162495,0.29232854,0.40150288,0.28299114,0.41579473,127.5516,127.59984,127.95564,128.19957,0,0,0,0,0,0,0,0,0,0,0,0,-0.31326917,-0.28571257,0.48261634,0.5448461,0.42847818,0.49278417,0.5594663,0.68537766,0.0093318075,-0.007507041,0.029183425,0.011724085,164,6,231,2,0,-3425.1147,267.9851,3781.4346,39.913643,723371.3,1248.5105,146.21463,152.6413,137.61827,137.61827,0,1,370.6551,0,0,13.011622,13.011628,0,3,255,0,0,0,1,-127,103,0
True,36961703,15999.99,0,5718.3545,5.5696144,-0.18767107,10.831896,-1.7406378,-0.30720192,41.112144,0.012439463,-0.05662213,-0.024847709,-3.0162053,-0.010995795,0.025327602,0.2557298,0.17641355,0.43294373,0.32414928,0.29165715,0.2725918,0.4189072,0.44757694,130.83365,130.8872,132.47972,132.9459,0,0,0,0,0,0,0,0,0,0,0,0,-0.27969244,-0.2481273,0.3917499,0.41613925,0.40409374,0.36861014,0.57354265,0.611144,-0.00129693,-0.011026369,0.022581212,0.009646356,164,6,231,2,0,-3425.4727,267.999,3776.8098,41.150124,701148.2,1171.4896,145.91583,151.88072,137.85753,137.85753,0,1,374.07825,0,0,13.126033,13.126039,0,3,255,0,0,0,1,-127,95,0
True,36961828,15999.99,0,5875.09,0.6880753,0.6921147,11.494379,-0.7147188,-0.33825272,42.508358,-0.009247897,-0.34545282,-0.02995023,-3.0403163,-0.013161035,0.023083001,0.22169495,0.18588792,0.34691745,0.30382666,0.44297954,0.2952037,0.31873286,0.22975904,136.18564,136.19385,135.12093,135.69495,0,0,0,0,0,0,0,0,0,0,0,0,-0.46299303,-0.41907582,0.07002081,0.0720108,0.6407756,0.51261073,0.3263335,0.2407795,-0.005471863,-0.009864181,0.012353323,0.0072301514,164,6,231,2,0,-3425.893,268.0164,3771.895,42.515713,745476.25,1212.692,145.66293,151.16388,138.00879,138.00879,-0.47848034,1,377.68048,0,0,13.243901,13.243908,0,3,255,0,0,0,1,-127,87,0
True,36961937,15999.99,0,6061.8374,-2.425516,-1.0726485,11.280338,0.4043727,-0.31064284,43.810497,0.020503443,-0.16806184,-0.0090474,-3.0733001,-0.008482156,0.021815035,0.17381726,0.20818639,0.29518244,0.29376298,0.3245498,0.2034755,0.40890473,0.3215977,139.30907,138.82867,140.55792,140.43445,0,0,0,0,0,0,0,0,0,0,0,0,-0.040882956,-0.036627542,-0.14283307,-0.13654749,0.32711464,0.20674588,0.43313318,0.3493856,-0.011344848,-0.007128909,0.0062024184,0.0060336515,164,6,231,2,0,-3426.3025,268.03378,3766.9207,43.813465,741386.75,1168.4829,145.41508,150.47505,138.09074,138.09074,-4.4036627,1,381.36606,0,0,13.359488,13.359493,0,3,255,0,0,0,1,0,80,0
True,36962046,15999.99,0,6192.939,-5.353977,1.0103407,11.360467,0.18663692,-0.33681577,45.104336,-0.031640053,-0.05441388,-0.0024557011,-3.083332,-0.011681108,0.021807296,0.24110605,0.2638402,0.30708542,0.35420763,0.25166038,0.19774276,0.25386527,0.21197595,142.94891,142.58708,143.2473,143.07428,0,0,0,0,0,0,0,0,0,0,0,0,-0.17806871,-0.16924901,-0.05663949,-0.049924973,0.30828786,0.26028335,0.26010692,0.21777582,-0.0030907728,-0.0003020577,0.007617593,0.0132200755,164,6,231,2,0,-3426.6536,268.04602,3761.9016,45.10598,752788.94,1161.6401,145.14575,149.824,138.16278,138.16278,-8.824917,1,385.0843,0,0,13.472599,13.472607,0,3,255,0,0,0,1,-127,73,0
True,36962171,15999.99,0,6399.5854,-7.137823,0.118274726,10.54515,0.16792727,-0.30874592,46.270294,0.023256185,-0.2660177,-0.0007650483,-3.100659,-0.011213903,0.021639997,0.2178966,0.27606675,0.34051868,0.37173256,0.5318271,0.23508099,0.360974,0.23648658,149.2628,147.10815,147.67212,147.49644,0,0,0,0,0,0,0,0,0,0,0,0,-0.5711747,-0.50712997,-0.109753005,-0.095499165,0.78043616,0.5589668,0.37729028,0.25504118,-0.0059377924,0.0011977293,0.011592563,0.01530366,164,6,231,2,0,-3426.9324,268.0718,3756.7532,46.27163,716535.25,1069.8701,144.96988,149.29747,138.2193,138.2193,-13.661698,1,388.8976,0,0,13.585387,13.585395,0,3,255,0,0,0,1,-127,67,0
True,36962281,15999.99,0,6554.157,-11.239039,-0.6074271,9.479429,0.780645,-0.28767675,47.264606,0.021673927,-0.4400443,-0.017423099,3.1414216,-0.00806348,0.02101892,0.171494,0.24929884,0.2847835,0.35921267,0.64492834,0.2193428,0.43318048,0.22321412,153.24945,150.39249,151.28514,150.95193,0,0,0,0,0,0,0,0,0,0,0,0,-0.74578553,-0.64187616,-0.28781775,-0.25267437,0.98596585,0.6783187,0.52008116,0.33714816,-0.011629833,-0.0020857938,0.0049660616,0.0138151385,164,6,231,2,0,-3427.0938,268.0896,3751.5596,47.271923,667057.7,972.3878,144.95642,148.96327,138.31389,138.31389,-14.7,1,392.86334,0,0,13.696431,13.696438,0,2,255,2,0,0,1,-127,61,255
True,36962390,15999.99,0,6053.23,-15.121969,-0.70664483,-4.8371296,1.2579292,-0.1014821,46.450047,0.07713179,-0.46369845,0.0011362443,3.0996373,-0.00178017,0.020024505,0.1381171,0.27111158,0.2079067,0.29253522,-0.08644924,-0.5310272,-0.30196548,-0.2671745,141.55348,136.72156,139.0817,141.22385,0,0,0,0,0,0,0,0,0,0,0,0,-0.8571499,-0.7214768,-0.43430042,-0.37522638,0.86149836,0.895834,0.52896124,0.46062678,-0.015724055,0.000589896,-0.004174024,0.0058876798,164,6,231,2,0,-3427.0977,268.0947,3747.1238,46.467186,582931.75,919.36414,145.01128,148.81017,138.3592,138.3592,-14.7,1,396.14417,0,0,13.790828,13.790834,0,2,201,255,0,0,1,-127,58,129
True,36962484,15999.99,0,6284.7305,-19.817165,0.4810482,-7.5135345,1.7074945,0.17369616,45.439922,-0.0076118424,-0.589191,-0.017627288,3.0438447,0.003762835,0.019170731,0.23651358,0.39138824,0.14413673,0.2824492,0.31447542,0.114806004,0.5875459,0.16061129,143.2818,143.6297,146.99355,145.11693,0,0,0,0,0,0,0,0,0,0,0,0,-0.9621142,-0.7914417,-0.59253407,-0.48430043,1.0122048,0.7997252,0.83445,0.51023805,-0.003654115,0.0153438,-0.0117558,0.0046885237,164,6,231,2,0,-3426.9187,268.09555,3742.291,45.472317,754931.3,1150.3353,145.12466,148.7952,138.42732,138.42732,0,1,399.72543,0,0,13.896298,13.896306,0,2,255,0,0,0,1,-127,57,0
True,36962609,15999.99,0,6445.6157,-21.34953,1.5649378,7.1136165,2.248888,-0.011765182,46.26831,-0.0729185,-0.479182,-0.00972132,2.9816914,-0.0033647027,0.01797498,0.2761918,0.43167743,0.219859,0.38389882,0.71995324,0.14418252,0.5203138,0.23234978,151.18388,146.7477,149.2081,148.39247,0,0,0,0,0,0,0,0,0,0,0,0,-0.39085782,-0.32526198,-0.6374709,-0.5236076,0.8192085,0.35578638,0.8228582,0.572845,0.00121307,0.02028593,-0.002752982,0.016750138,164,6,231,2,0,-3426.5005,268.1074,3737.451,46.322933,650247.2,963.9147,145.14828,148.61725,138.6898,138.6898,0,1,403.32086,0,0,14.002167,14.002173,0,2,255,0,0,0,1,0,57,0
True,36962718,15999.99,0,6551.0957,-20.03204,0.53642935,9.27086,1.7374239,-0.1392934,47.220837,-0.023891611,-0.20331363,0.015403898,2.9436622,-0.0066166236,0.018743705,0.22778675,0.39408946,0.25625682,0.41868892,0.52877516,0.17147863,0.46366256,0.25612146,152.56604,149.37434,152.04446,150.895,0,0,0,0,0,0,0,0,0,0,0,0,-0.38586566,-0.33814704,-0.449626,-0.37482247,0.6545957,0.3791416,0.6458688,0.45397148,-0.004724603,0.01567515,0.0015744492,0.020886421,164,6,231,2,0,-3425.7776,268.13058,3732.2415,47.25299,688939.1,1004.55273,145.15698,148.33275,138.94429,138.94429,0,1,407.44684,0,0,14.114597,14.114605,0,2,255,0,0,0,1,-16,60,0
True,36962828,15999.99,0,6673.428,-15.5791235,0.18905427,9.933091,0.91837406,-0.22628021,48.27089,-0.0039848895,-0.18771401,0.010159499,2.9254117,-0.008426911,0.020511547,0.21197745,0.3572958,0.27294192,0.43241546,0.54966426,0.22568837,0.3497067,0.22241034,156.12881,153.13669,154.1011,153.58302,0,0,0,0,0,0,0,0,0,0,0,0,-0.6450782,-0.5701324,-0.2459793,-0.21082085,0.84750026,0.6131771,0.42755187,0.3064503,-0.006663874,0.011161804,0.003558185,0.022518404,164,6,231,2,0,-3424.8335,268.15317,3727.071,48.280155,714195.2,1022.5089,145.16653,148.12193,139.09276,139.09276,0,1,411.34232,0,0,14.224604,14.22461,0,2,255,0,0,0,1,-127,65,0
True,36962921,15999.99,0,6782.6313,-15.306332,0.5632699,9.562304,0.7485523,-0.24536568,49.134796,-0.049582317,-0.38167164,-0.017341865,2.8988805,-0.00935519,0.020520944,0.22108115,0.33836463,0.26407486,0.3983059,0.44294995,0.17992881,0.3893753,0.19965236,157.17409,155.77216,156.94254,156.52286,0,0,0,0,0,0,0,0,0,0,0,0,-0.7126733,-0.6085052,-0.2541443,-0.21406667,0.8391114,0.6345494,0.46497574,0.29272103,-0.0055471547,0.008839585,0.0025039576,0.01846303,164,6,231,2,0,-3423.844,268.17215,3722.4756,49.141106,739372.94,1041.4697,145.26732,148.06296,139.19011,139.19011,0,1,414.82394,0,0,14.321092,14.321099,0,2,255,0,0,0,1,-127,69,0
True,36963031,15999.99,0,6924.783,-15.807578,1.4012907,10.078092,1.1942959,-0.26656783,50.17495,0.01853276,-0.32522628,0.0019409414,2.8519244,-0.013092255,0.019665347,0.2511609,0.38385865,0.33329934,0.466092,0.50038713,0.16439216,0.35101497,0.20017578,161.43047,158.78204,159.95961,159.69284,0,0,0,0,0,0,0,0,0,0,0,0,-0.16731125,-0.14615873,-0.3237936,-0.27490878,0.5276176,0.2199708,0.4775498,0.34006643,-0.0018573813,0.014420174,0.01073423,0.026522294,164,6,231,2,0,-3422.459,268.21182,3717.008,50.189865,752881.2,1038.9603,145.31058,147.92397,139.34088,139.34088,0,1,418.99307,0,0,14.434636,14.434644,0,2,255,0,0,0,1,0,71,0
True,36963156,15999.99,0,7042.8857,-12.701139,-0.5017617,10.067806,0.9325628,-0.27910656,51.207672,-0.0043833354,-0.08939505,-0.0060042534,2.8304088,-0.010901631,0.020237423,0.21691607,0.3131515,0.28998157,0.40916,0.31478974,0.17029665,0.31116405,0.22256123,162.98222,161.54025,163.13931,162.58748,0,0,0,0,0,0,0,0,0,0,0,0,-0.21246365,-0.19427629,-0.21095872,-0.18533356,0.37978068,0.25834906,0.37593436,0.28962395,-0.006058071,0.005746782,0.0055840723,0.019753505,164,6,231,2,0,-3420.9238,268.24985,3711.6711,51.216923,752554.56,1020.7435,145.26291,147.66515,139.47281,139.47281,0,1,423.56458,0,0,14.544155,14.544162,0,2,255,0,0,0,1,-9,66,0
True,36963250,15999.99,0,7173.7583,-11.227223,0.12476841,9.253319,0.39374352,-0.29611087,52.2433,-0.025338886,-0.22595523,0.005704565,2.8169734,-0.011169524,0.020396382,0.22935602,0.33240056,0.29430097,0.38942888,0.3434688,0.15656643,0.28289375,0.18567882,166.26953,164.90028,165.79642,165.64941,0,0,0,0,0,0,0,0,0,0,0,0,-0.5083816,-0.44397736,-0.1291821,-0.11265858,0.6135329,0.47077483,0.31099337,0.21718329,-0.004532106,0.008107994,0.0060976148,0.017407622,164,6,231,2,0,-3419.1677,268.28186,3706.0933,52.245625,752584.7,1002.2597,145.24554,147.48735,139.55421,139.55421,0,1,427.88403,0,0,14.657165,14.657171,0,2,255,0,0,0,1,-127,55,0
True,36963375,15999.99,0,7318.6816,-13.946331,0.88089633,8.835926,0.80609894,-0.27024543,53.133404,-0.021669485,-0.46130836,-0.009658527,2.7792969,-0.0120582245,0.021254765,0.24823989,0.36829436,0.30999735,0.42274132,0.41492462,0.16828974,0.36366397,0.17815752,169.38184,168.34793,169.22665,168.98544,0,0,0,0,0,0,0,0,0,0,0,0,-0.69996476,-0.599231,-0.26355153,-0.21986122,0.8137033,0.62241405,0.44912237,0.28298244,-0.002215691,0.012510959,0.007963803,0.02136822,164,6,231,2,0,-3417.3232,268.31888,3700.736,53.140205,752563.44,982.37103,145.35516,147.4845,139.64377,139.64377,0,1,432.07684,0,0,14.764663,14.764668,0,2,255,0,0,0,1,-127,43,0
True,36963500,15999.99,0,7151.4653,-17.84809,1.3617258,0.5120945,1.1647663,-0.2482372,51.941166,0.020940028,-0.33101678,0.014953052,2.7230985,-0.014087729,0.021449205,0.25221843,0.36960885,0.34310514,0.4702392,0.40777078,0.12597018,0.335039,0.19725163,165.98697,163.84698,165.34987,165.23184,0,0,0,0,0,0,0,0,0,0,0,0,-0.15480639,-0.13019356,-0.3121638,-0.2660028,0.43616742,0.18115973,0.45792726,0.33115813,-0.0017276593,0.012672201,0.011900067,0.027015366,164,6,231,2,0,-3414.9614,268.37302,3694.7485,51.954815,752813.25,1005.863,145.40762,147.38315,139.8211,139.8211,0,1,436.95612,0,0,14.889216,14.889222,0,2,255,0,0,0,1,0,32,0
True,36963609,15999.99,0,7256.124,-13.546929,-1.0336667,6.971277,0.9016857,-0.28359288,52.783707,0.013001871,-0.08972988,-0.022238072,2.7011902,-0.011051927,0.021056747,0.24731122,0.30041087,0.29017356,0.37695336,0.2946202,0.17996974,0.30002782,0.21195135,167.72725,166.6902,168.04576,167.50558,0,0,0,0,0,0,0,0,0,0,0,0,-0.16395046,-0.15216537,-0.20170248,-0.17822081,0.33716583,0.23567648,0.36152536,0.2769224,-0.0023296066,0.004183933,0.005606897,0.015924372,164,6,231,2,0,-3412.6914,268.41675,3689.5276,52.792168,752507.7,990.553,145.38516,147.21268,139.94504,139.94504,0,1,441.15775,0,0,14.997896,14.997903,0,2,255,0,0,0,1,0,22,0
True,36963718,15999.99,0,7319.782,-8.338013,-0.6736679,6.4827313,0.14058876,-0.3052139,53.510235,-0.029972833,-0.0017594479,-0.039169535,2.698353,-0.0096984785,0.01717774,0.29129282,0.27498373,0.30510563,0.3572808,0.13756366,0.13936284,0.2141541,0.19329433,168.26605,168.33698,169.5635,169.33633,0,0,0,0,0,0,0,0,0,0,0,0,-0.03341227,-0.03244536,-0.034132227,-0.029003875,0.1415632,0.14308985,0.21685706,0.19545825,0.0030654557,0.0010648817,0.0073822066,0.013585448,164,6,231,2,0,-3410.2222,268.44287,3684.1914,53.511288,752395.75,981.8624,145.33664,147.03537,140.01262,140.01262,0,1,445.50418,0,0,15.108496,15.108502,0,2,255,0,0,0,1,0,13,0
True,36963828,15999.99,0,7411.5635,-3.8174114,-0.18734583,5.8215876,-0.17946815,-0.2716288,54.113106,0.03164489,-0.013627188,-0.042527936,2.6977675,-0.009528547,0.012902765,0.3235873,0.2757236,0.36949223,0.3921026,0.15324506,0.1769744,0.22929704,0.22490464,170.24219,170.6244,171.56976,171.55621,0,0,0,0,0,0,0,0,0,0,0,0,0.024450416,0.027324846,0.015916988,0.02511979,0.15518335,0.17907146,0.22984883,0.22630312,0.0070269033,0.0011556372,0.015037298,0.017725505,164,6,231,2,0,-3407.738,268.46997,3678.9766,54.114086,752641.3,970.1823,145.2731,146.8567,140.06747,140.06747,-1.0710573,1,449.78036,0,0,15.215881,15.215888,0,2,255,0,0,0,1,0,4,0
True,36963921,15999.99,0,7473.063,-2.8594837,0.5706575,6.168859,-0.2950554,-0.27833417,54.734997,-0.019042194,-0.034675304,-0.025820706,2.6954966,-0.010537157,0.00956302,0.3355763,0.31378284,0.3772571,0.35925403,0.13529672,0.16512203,0.16992971,0.17145452,171.94362,172.5252,172.71977,172.83495,0,0,0,0,0,0,0,0,0,0,0,0,0.051580664,0.05534899,0.03073574,0.03793896,0.1447956,0.17415164,0.17268698,0.17560187,0.008497551,0.005824227,0.015960488,0.013820056,164,6,231,2,0,-3405.5,268.4921,3674.3455,54.7365,752589.6,962.15326,145.22762,146.71794,140.11938,140.11938,-3.6979218,1,453.57837,0,0,15.310386,15.310391,0,2,255,0,0,0,1,0,252,0
True,36964046,15999.99,0,7609.574,-2.709803,-1.6848392,6.1294217,-0.29977417,-0.2388604,55.445457,0.05177964,-0.056929998,-0.065997496,2.6897006,-0.006494067,0.004363562,0.3469473,0.27487987,0.38969177,0.33543643,0.18404178,0.22741087,0.24131997,0.23959216,174.83385,175.66568,175.92436,176.0841,0,0,0,0,0,0,0,0,0,0,0,0,0.053895365,0.058061272,0.022427589,0.030056605,0.19177093,0.2347058,0.2423599,0.24147008,0.009892393,0.0010521412,0.017438874,0.010988321,164,6,231,2,0,-3402.6672,268.52017,3668.5476,55.446785,752257.44,944.4261,145.16684,146.55283,140.17831,140.17831,-5.450568,1,458.3445,0,0,15.427489,15.427497,0,2,255,0,0,0,1,0,242,0
True,36964156,15999.99,0,7655.254,-5.92846,-1.1462213,5.2644134,-0.33164215,-0.24964803,56.0061,-0.035609484,-0.19670857,-0.1327404,2.6790137,-0.003608261,-0.0067472444,0.3710033,0.2684934,0.3858394,0.27855375,0.1752849,0.12702686,0.22486164,0.16955745,176.10893,176.3277,177.03432,177.17754,0,0,0,0,0,0,0,0,0,0,0,0,-0.30752668,-0.28306273,0.012138675,0.016089419,0.3539738,0.31025848,0.22518903,0.17031911,0.012843255,0.000268735,0.016980857,0.004225388,164,6,231,2,0,-3399.81,268.51767,3662.811,56.007633,752493.75,939.02924,145.14363,146.44232,140.23499,140.23499,0,1,463.08044,0,0,15.542613,15.542622,0,2,255,0,0,0,1,-104,232,0
True,36964265,15999.99,0,7749.362,-8.141519,1.151396,6.414056,0.418396,-0.29680568,56.728638,-0.004641209,-0.22190346,-0.11128607,2.6477566,-0.008616178,-0.021538466,0.34219834,0.27877396,0.39673403,0.32664597,0.21698408,0.13492587,0.19868006,0.14358924,178.89186,178.75876,178.93265,179.15697,0,0,0,0,0,0,0,0,0,0,0,0,-0.024414763,-0.020495743,-0.12488138,-0.111749165,0.21835332,0.13647369,0.2346681,0.18194984,0.009309854,0.0015298128,0.018276151,0.009943195,164,6,231,2,0,-3396.8762,268.52753,3657.1516,56.730957,752657.75,927.93884,145.16638,146.40515,140.30061,140.30061,0,1,467.802,0,0,15.655697,15.655705,0,2,255,0,0,0,1,0,226,0
True,36964375,15999.99,0,7856.184,-7.921117,-1.1449319,6.8177586,0.3705654,-0.2633463,57.403908,0.011804331,-0.070319474,-0.09174938,2.6350636,-0.0059353593,-0.030744467,0.2515971,0.18560202,0.35700297,0.33207864,0.1779363,0.14694998,0.23736803,0.20707926,180.74475,180.66779,181.86807,181.78946,0,0,0,0,0,0,0,0,0,0,0,0,-0.053429298,-0.050999317,-0.086717255,-0.078647256,0.18578488,0.15554814,0.25271222,0.2215112,-0.0018038712,-0.009899251,0.013552424,0.0105891,164,6,231,2,0,-3394.2197,268.5407,3652.2227,57.405716,752415.94,914.81036,145.12366,146.30214,140.35501,140.35501,-0.9845743,1,471.9462,0,0,15.75382,15.75383,0,2,255,0,0,0,1,0,224,0
True,36964484,15999.99,0,7947.455,-4.935337,-0.43128124,6.915445,0.039735794,-0.31540215,58.18803,0.014621975,-0.014679043,-0.061986294,2.630986,-0.006349321,-0.040255047,0.3145029,0.240972,0.33440632,0.29952803,0.1725653,0.1736527,0.1808781,0.16997929,183.25949,183.41156,183.70042,183.60886,0,0,0,0,0,0,0,0,0,0,0,0,-0.009547102,-0.0071812537,-0.01561644,-0.0134519115,0.1728292,0.17380112,0.181551,0.17051074,0.0059125535,-0.0031072162,0.0108658485,0.006719075,164,6,231,2,0,-3390.9822,268.5469,3646.3843,58.188896,752594.8,904.6178,145.07446,146.19551,140.40683,140.40683,-2.211691,1,476.88812,0,0,15.8693075,15.869317,0,2,255,0,0,0,1,0,223,0
True,36964593,15999.99,0,8027.532,-2.3530865,-0.09767486,6.603546,-0.100572586,-0.30448353,58.896137,-0.044507205,-0.015131863,-0.07580673,2.6293802,-0.0056382227,-0.047915023,0.3037319,0.21599907,0.31788224,0.24630798,0.111449644,0.118720055,0.16309929,0.16282374,184.68654,184.84392,185.7039,185.75793,0,0,0,0,0,0,0,0,0,0,0,0,0.015162112,0.016017944,0.008244412,0.009740563,0.112476274,0.11979577,0.16330752,0.16311483,0.0045913123,-0.006170556,0.008901257,0.00039160624,164,6,231,2,0,-3387.8142,268.54758,3640.7576,58.897007,752416.7,895.2932,145.03242,146.09958,140.4515,140.4515,0,1,481.6685,0,0,15.979608,15.979617,0,2,255,0,0,0,1,0,222,0
True,36964703,15999.99,0,8133.399,-1.0295849,0.865946,6.264776,-0.060352325,-0.26892734,59.58159,0.015997648,-0.017743053,-0.07502265,2.62749,-0.00789566,-0.05584214,0.328685,0.22730236,0.4154037,0.3386073,0.1316696,0.16719782,0.18366347,0.1755039,187.04585,187.66678,188.1191,188.07454,0,0,0,0,0,0,0,0,0,0,0,0,0.013153502,0.01562502,-0.0016509715,0.008358415,0.13232498,0.16792634,0.1836709,0.17570281,0.0076522194,-0.0047840215,0.020495836,0.011365313,164,6,231,2,0,-3384.5547,268.56467,3635,59.582226,752596.44,883.98474,144.9889,146.00888,140.50848,140.50848,0,1,486.5664,0,0,16.091284,16.091295,0,2,255,0,0,0,1,0,223,0
True,36964812,15999.99,0,8232.969,-0.082971334,-0.439062,6.5615726,0.025625229,-0.2773136,60.307213,0.015889127,-0.008379079,-0.06100343,2.6259348,-0.0068972283,-0.06532849,0.28043622,0.2090264,0.35393903,0.26669192,0.16928175,0.13841118,0.18461902,0.18393011,189.84282,189.44547,190.3864,190.41895,0,0,0,0,0,0,0,0,0,0,0,0,-0.0014196894,0.00021499123,-0.0069123628,-0.0038610988,0.16928771,0.13841134,0.18474838,0.18397063,0.0017337166,-0.0070258677,0.013188139,0.0028151087,164,6,231,2,0,-3381.258,268.58344,3629.182,60.307858,752549,873.14844,144.9419,145.92358,140.55399,140.55399,0,1,491.51678,0,0,16.20286,16.202871,0,2,255,0,0,0,1,0,223,0
True,36964937,15999.99,0,8336.653,0.07733798,1.4750044,7.2860565,0.05576706,-0.31497562,61.219143,-0.026923135,0.00207565,-0.022302384,2.625757,-0.010190948,-0.06951668,0.26351112,0.24124284,0.3068768,0.2917232,0.13757326,0.13546814,0.14726615,0.14393254,192.27744,192.23952,192.70251,192.65419,0,0,0,0,0,0,0,0,0,0,0,0,-0.009297875,-0.0077464106,-0.007591265,-0.007053576,0.13788709,0.13568944,0.14746168,0.14410527,-0.00034242496,-0.003073994,0.0075927936,0.005791139,164,6,231,2,0,-3377.5276,268.60706,3622.5977,61.219975,752540.94,862.3273,144.8956,145.84352,140.60681,140.60681,-1.1357327,1,497.11533,0,0,16.327394,16.327404,0,2,255,0,0,0,1,0,222,0
True,36965046,15999.99,0,8477.587,2.532048,-1.9824712,7.114439,0.11340523,-0.30289888,61.978905,0.004117922,0.1119089,0.024623439,2.6286185,-0.0058829286,-0.070311576,0.22247252,0.2086991,0.28776443,0.27047053,0.13299836,0.17358844,0.20890458,0.25237712,194.81726,194.93213,196.23514,196.32187,0,0,0,0,0,0,0,0,0,0,0,0,0.24900155,0.26543906,0.0024057596,0.002659649,0.28229478,0.31716058,0.20891844,0.25239113,-0.0053764805,-0.007066015,0.005320471,0.0032643527,164,6,231,2,0,-3374.2434,268.62967,3616.7876,61.979748,752165.06,847.1449,144.86183,145.77957,140.64719,140.64719,-3.3691034,1,502.05618,0,0,16.435738,16.43575,0,2,255,0,0,0,1,117,221,0
True,36965156,15999.99,0,7989.015,10.129168,1.7130141,-11.662504,-0.2920704,-0.033694148,60.696552,0.07116085,0.3654734,0.043146215,2.6548352,-0.0036991767,-0.06541093,0.36351508,0.31670702,0.3438076,0.29842174,-0.4183075,-0.101866655,-0.14982684,-0.14233346,180.59505,185.1262,186.06282,184.71796,0,0,0,0,0,0,0,0,0,0,0,0,0.47953254,0.54719603,0.10692181,0.120847695,0.6363432,0.55659705,0.18406616,0.1867163,0.011924699,0.006182924,0.011983592,0.0065875426,164,6,231,2,0,-3371.0598,268.64343,3610.9895,60.697266,629303.25,751.6295,145.0454,145.90825,140.68748,140.68748,-5.700943,1,506.95245,0,0,16.543083,16.543093,0,2,0,255,0,0,1,119,219,129
True,36965265,15999.99,0,7509.693,13.96652,-0.88375795,-19.391438,-1.6195946,0.23740458,58.431988,0.04467818,0.49078935,0.028303452,2.7021317,0.006118742,-0.061236642,0.40962765,0.33934298,0.31945887,0.2558029,-0.5692154,-0.24476856,-0.41877088,-0.48878512,171.02567,175.43819,174.89304,172.18956,0,0,0,0,0,0,0,0,0,0,0,0,0.6572058,0.771161,0.36035112,0.40634152,0.86943984,0.80907416,0.55246896,0.63562906,0.017581161,0.008959595,0.009088706,0.001520481,164,6,231,2,0,-3368.0808,268.6537,3605.2603,58.454906,312358.75,397.00238,145.40385,146.09956,140.79636,140.79636,-7.4577613,1,511.76822,0,0,16.651419,16.651428,0,2,121,255,0,0,1,121,214,129
True,36965375,15999.99,0,7543.8735,19.643015,-0.18686092,-17.506458,-2.6986008,0.3608147,56.342922,-0.035539996,0.5614271,0.053481393,2.7570596,0.01193831,-0.058074396,0.45505053,0.34921014,0.3032302,0.21641798,-0.11275765,-0.051543042,-0.052053895,0.082924925,173.4809,171.04987,175.56287,174.99786,0,0,0,0,0,0,0,0,0,0,0,0,0.7909033,0.9488376,0.5367648,0.65908706,0.79890066,0.9502365,0.5392829,0.66428334,0.023153022,0.010169964,0.007159233,-0.0031620935,164,6,231,2,0,-3365.3706,268.64154,3599.6602,56.408665,753674.75,954.75903,145.91028,146.45114,141.05264,141.05264,0,1,516.37213,0,0,16.759987,16.759995,0,2,255,103,0,0,1,121,206,205
True,36965468,15999.99,0,7908.8765,20.996101,-0.41148114,1.9340124,-3.6347923,0.14476681,56.64096,0.009949065,0.47116518,-0.0011958629,2.8152502,0.011158324,-0.05412231,0.41633424,0.27958226,0.37035102,0.22947204,0.28086376,0.8223213,0.2680798,0.5439019,180.71715,185.68185,181.77881,182.93195,0,0,0,0,0,0,0,0,0,0,0,0,1.0724345,1.2466489,0.6664412,0.80323136,1.1086029,1.4934342,0.7183388,0.97005665,0.018403836,0.0016289651,0.015139405,-0.001610063,164,6,231,2,0,-3362.9866,268.6218,3594.1624,56.75765,551612.06,666.2579,146.38951,147.02933,141.43762,141.43762,0,1,520.79553,0,0,16.865974,16.865986,0,2,255,0,0,0,1,121,195,0
True,36965578,15999.99,0,7976.115,19.056957,-1.7508945,5.3262286,-4.3855953,-0.047436833,57.015495,0.018828025,0.41371736,0.012131736,2.8632677,0.014230291,-0.05207083,0.30409634,0.17047364,0.32140586,0.18349634,0.31002206,0.8881752,0.30152416,0.53824514,182.10852,187.82164,183.31938,184.267,0,0,0,0,0,0,0,0,0,0,0,0,1.2129556,1.4346123,0.7791551,0.9137995,1.2519485,1.6872959,0.8354636,1.0605364,0.0046360195,-0.011754999,0.009320185,-0.0070762336,164,6,231,2,0,-3360.7715,268.57153,3588.4912,57.183937,522121.2,625.2669,147.4165,148.34906,141.877,141.877,0,1,525.5839,0,0,16.972834,16.972843,0,2,255,0,0,0,1,122,187,0
True,36965718,15999.99,0,8100.243,14.942231,-4.1007433,5.0006156,-4.903162,-0.10912979,57.380516,0.059110366,0.3167999,-0.021862354,2.9057817,0.025037624,-0.05246855,0.23751213,0.10109293,0.27023405,0.13438879,0.31483886,0.7337927,0.5240906,0.76292574,183.4014,187.49861,187.36008,188.53584,0,0,0,0,0,0,0,0,0,0,0,0,1.1860619,1.3346076,0.9287309,1.047639,1.2271374,1.5230329,1.0664015,1.2959951,-0.0035316274,-0.020265678,0.003236238,-0.012914758,164,6,231,2,0,-3358.3315,268.44998,3581.5244,57.589725,455510.4,537.13934,149.05347,150.3282,142.44202,142.44202,0,1,531.05493,0,0,17.101467,17.101477,0,2,255,0,0,0,1,90,180,0
True,36965828,15999.99,0,8123.5635,14.956659,-3.8440354,5.0052614,-5.043619,-0.13574576,57.72958,0.075000845,0.2530475,-0.008599814,2.9351616,0.032627903,-0.052509896,0.21257691,0.09206382,0.27142546,0.13792092,0.37008753,0.7856578,0.44023973,0.65336233,185.04175,189.46086,187.24171,188.36552,0,0,0,0,0,0,0,0,0,0,0,0,1.2056856,1.3441375,0.90602696,1.037489,1.2612067,1.5569085,1.0073211,1.2260774,-0.0065903403,-0.021373246,0.0033778846,-0.012494814,164,6,231,2,0,-3356.5603,268.29596,3575.9307,57.949642,468505.75,550.8618,150.1713,151.63858,142.90796,142.90796,0,1,535.40094,0,0,17.203056,17.203066,0,2,255,0,0,0,1,79,176,0
True,36965937,15999.99,0,8177.943,17.128792,-3.0085065,6.0717115,-4.6994133,-0.17001438,58.26209,0.08404195,0.15537892,-0.008358295,2.9647748,0.039542027,-0.05131308,0.22908476,0.09292959,0.2758502,0.14484996,0.2899595,0.93823916,0.3705022,0.54554266,185.76175,194.10388,187.71988,188.85709,0,0,0,0,0,0,0,0,0,0,0,0,0.7991661,0.9036199,0.79700327,0.91815704,0.8501429,1.3026211,0.87891185,1.0680023,-0.0045653805,-0.021267045,0.0039039552,-0.011671003,164,6,231,2,0,-3354.672,268.05823,3569.2446,58.451557,515725.28,602.49414,150.71323,152.14572,143.4672,143.4672,0,1,540.98676,0,0,17.322495,17.322502,0,2,255,0,0,0,1,0,179,0
True,36966046,15999.99,0,8205.758,16.520857,-3.5823138,6.294019,-3.7117634,-0.21886921,58.891983,0.023137057,0.10461627,-0.024836557,2.9784615,0.047782063,-0.053081162,0.25397873,0.10131852,0.28881264,0.12912633,0.22415742,0.7222837,0.2994409,0.48443782,186.6562,193.28249,188.49385,190.0232,0,0,0,0,0,0,0,0,0,0,0,0,0.7134407,0.8298736,0.5968322,0.7164388,0.74782634,1.1001745,0.6677376,0.8648494,-0.0015117265,-0.020238005,0.005445093,-0.013540426,164,6,231,2,0,-3353.0403,267.76007,3562.6528,59.009235,606885.6,706.30054,150.85883,152.22784,143.89268,143.89268,0,1,546.0089,0,0,17.438276,17.438282,0,2,255,0,0,0,1,69,188,0
True,36966156,15999.99,0,8250.965,17.047075,-2.5836306,6.9821424,-2.5024853,-0.25058508,59.547966,0.003436179,0.120763145,-0.01631859,2.985979,0.05170533,-0.055305004,0.25022045,0.072775744,0.26387125,0.1135793,0.22628869,0.5551481,0.2695135,0.4191871,188.50838,192.69063,189.92226,191.13054,0,0,0,0,0,0,0,0,0,0,0,0,0.8145019,0.9452806,0.41639805,0.48988917,0.84535193,1.0962412,0.49600893,0.6447552,-0.0019727424,-0.023739245,0.0024797507,-0.015388852,164,6,231,2,0,-3351.8313,267.46667,3557.0227,59.601048,666355,771.2634,151.0332,152.25203,144.17813,144.17813,0,1,550.2766,0,0,17.5355,17.535505,0,2,255,0,0,0,1,97,197,0
True,36966265,15999.99,0,8312.473,15.040541,-2.2691443,7.959821,-1.4731779,-0.30697393,60.42201,0.013518483,0.06316075,-0.0064233257,2.9980667,0.055343177,-0.05580437,0.2244122,0.09538918,0.30820855,0.15323648,0.1436972,0.30121124,0.24541768,0.3474043,190.07411,192.06029,192.02,192.9043,0,0,0,0,0,0,0,0,0,0,0,0,0.2261857,0.2503529,0.24629028,0.28091213,0.26797172,0.3916692,0.34769058,0.44676772,-0.005138546,-0.020965336,0.007751126,-0.010673907,164,6,231,2,0,-3350.5947,267.0816,3550.289,60.440742,752245.5,864.1359,151.17789,152.23787,144.39627,144.39627,0,1,555.4622,0,0,17.649773,17.649775,0,2,255,0,0,0,1,0,204,0
True,36966375,15999.99,0,8246.96,7.225932,-0.85729164,-3.3210807,-0.5507517,-0.3541894,60.127556,0.027926374,-0.06962657,-0.03375398,2.9966974,0.055480897,-0.05831211,0.2428801,0.1499669,0.33325207,0.22422206,0.17542656,0.25257453,0.21728651,0.23048201,189.42316,190.85635,190.45566,190.80934,0,0,0,0,0,0,0,0,0,0,0,0,0.11118553,0.11832555,0.07497012,0.08135933,0.20769377,0.27891725,0.22985636,0.24442033,-0.0028731562,-0.014270486,0.010728616,-0.0022342466,164,6,231,2,0,-3349.511,266.67346,3543.5605,60.131123,752359.25,871.2596,151.091,152.03716,144.50906,144.50906,-1.728838,1,560.5091,0,0,17.762934,17.762936,0,2,255,0,0,0,1,0,213,0
True,36966484,15999.99,0,8318.141,2.2649336,-1.1837513,5.080295,0.07766819,-0.3853042,60.87121,0.019133754,-0.042174604,-0.059500113,2.989781,0.05715572,-0.06454608,0.21727431,0.14510249,0.3033892,0.2337935,0.1751271,0.15932834,0.1962408,0.18616316,191.70523,191.65363,192.3103,192.35518,0,0,0,0,0,0,0,0,0,0,0,0,-0.000985281,0.0008696245,-0.018603558,-0.016983535,0.17512988,0.15933071,0.19712062,0.18693626,-0.0060141273,-0.014867183,0.007178139,-0.0010962747,164,6,231,2,0,-3348.493,266.25238,3536.9036,60.87248,752496.75,864.1537,150.96422,151.82143,144.54732,144.54732,-6.9300094,1,565.4991,0,0,17.874409,17.874414,0,2,255,0,0,0,1,0,221,0
True,36966609,15999.99,0,8398.97,-0.2378931,-0.18138412,6.2184086,0.17968845,-0.37272692,61.58101,-0.010397902,-0.0030079442,-0.021124158,2.9874017,0.057650395,-0.069006026,0.23797,0.21500878,0.29399648,0.2621576,0.14421713,0.13075806,0.17265725,0.16432011,193.579,193.39537,194.2724,194.19029,0,0,0,0,0,0,0,0,0,0,0,0,-0.026985358,-0.02501228,-0.026463728,-0.025519693,0.14672011,0.13312882,0.17467357,0.16628997,-0.0034754612,-0.00629203,0.0060614124,0.002276007,164,6,231,2,0,-3347.4717,265.81802,3530.2048,61.582394,752447.8,855.75476,150.83768,151.6173,144.57211,144.57211,-10.236973,1,570.51373,0,0,17.985258,17.985262,0,2,255,0,0,0,1,0,228,0
True,36966703,15999.99,0,8530.053,-0.009147823,-1.0475683,6.2812886,0.10970402,-0.36110735,62.190063,0.011113233,0.011348742,-0.0031416984,2.9880416,0.059552405,-0.06985795,0.22974345,0.21749517,0.30594265,0.29797944,0.14890414,0.15629378,0.2760347,0.26721284,195.55624,195.628,197.79257,197.72234,0,0,0,0,0,0,0,0,0,0,0,0,-0.02095725,-0.019232696,-0.017558519,-0.015030065,0.1503717,0.15747267,0.2765926,0.2676352,-0.0044845827,-0.0059870332,0.007481724,0.0065349564,164,6,231,2,0,-3346.5776,265.4386,3524.3625,62.19121,752978,843.7128,150.72867,151.45122,144.59123,144.59123,0,1,574.8945,0,0,18.080938,18.080942,0,2,255,0,0,0,1,0,234,0
True,36966812,15999.99,0,8584.021,0.35388947,0.2421163,6.3419285,0.05879402,-0.3357501,62.930843,0.02822468,0.012595211,0.007700502,2.9894922,0.05923231,-0.07061613,0.23858953,0.2758108,0.3354503,0.33338493,0.16053686,0.1347888,0.16829273,0.17188007,198.05524,197.57445,198.46729,198.48439,0,0,0,0,0,0,0,0,0,0,0,0,-0.01311001,-0.010591753,-0.00830204,-0.004139001,0.16107127,0.1352043,0.16849738,0.1719299,-0.0033994652,0.0011663325,0.010989964,0.0107444115,164,6,231,2,0,-3345.4985,264.97348,3517.3088,62.931763,752617.3,837.65936,150.6127,151.2703,144.6139,144.6139,0,1,580.1839,0,0,18.195223,18.195229,0,2,255,0,0,0,1,0,240,0
True,36966921,15999.99,0,8689.194,0.53241396,-1.1479375,6.394311,0.04154682,-0.3196082,63.637012,0.030166384,0.010435598,0.0314375,2.9906209,0.062063694,-0.06758389,0.20940213,0.24534567,0.27814636,0.31397837,0.16844696,0.16472377,0.18135144,0.18138015,200.40282,200.28888,200.8656,200.83342,0,0,0,0,0,0,0,0,0,0,0,0,-0.010822853,-0.008752828,-0.005022611,-0.0038979135,0.16879429,0.16495615,0.18142098,0.18142204,-0.0069797784,-0.0025707148,0.0041769557,0.008437116,164,6,231,2,0,-3344.4373,264.50772,3510.3323,63.637825,752548,827.3463,150.49991,151.10075,144.63141,144.63141,0,1,585.4144,0,0,18.306976,18.306984,0,2,255,0,0,0,1,0,247,0
True,36967031,15999.99,0,8781.498,0.54983336,-1.6091044,6.1373277,0.037809372,-0.31661034,64.33038,0.031294666,0.009370413,0.023038428,2.991536,0.0651806,-0.064320296,0.16907373,0.2078795,0.28748444,0.3332198,0.16345811,0.15804484,0.18012807,0.1783431,202.49362,202.37544,203.03195,202.97702,0,0,0,0,0,0,0,0,0,0,0,0,-0.0089484295,-0.007468253,-0.0040943986,-0.0022887595,0.16370286,0.1582212,0.18017459,0.17835778,-0.01192672,-0.0071665533,0.0052871816,0.010724779,164,6,231,2,0,-3343.3762,264.01923,3503.3171,64.33118,752491.94,818.55914,150.39224,150.94447,144.64957,144.64957,0,1,590.6754,0,0,18.418127,18.418137,0,2,255,0,0,0,1,0,253,0
True,36967156,15999.99,0,8858.279,1.6999536,-0.28494406,6.429438,0.048578262,-0.33190155,65.05636,-0.012969608,0.072133265,0.07831408,2.9939396,0.06587564,-0.059410196,0.20556536,0.27895963,0.27005988,0.32294926,0.12143802,0.12782612,0.14722417,0.16011934,204.203,203.99457,204.89587,204.77754,0,0,0,0,0,0,0,0,0,0,0,0,0.1095483,0.112706155,0.0018214373,0.0032675404,0.16354823,0.17041771,0.14723544,0.16015267,-0.0074504204,0.0015525892,0.003215529,0.009503689,164,6,231,2,0,-3342.3066,263.50537,3496.188,65.05722,752529.5,811.52094,150.29904,150.81021,144.66968,144.66968,0,1,596.02216,0,0,18.52987,18.529879,0,2,255,0,0,0,1,50,3,0
True,36967265,15999.99,0,8993.259,7.580696,-0.50919616,5.661927,-0.5031843,-0.2958789,65.59703,0.051270325,0.30924797,0.09154768,3.0163052,0.06775866,-0.047404524,0.19528054,0.23433352,0.2981771,0.33886656,0.1499323,0.33896297,0.16050561,0.24107333,207.05423,208.64354,207.6878,207.53564,0,0,0,0,0,0,0,0,0,0,0,0,0.41287917,0.46509472,0.11996494,0.13016191,0.4392595,0.5755076,0.20038372,0.273968,-0.0087120235,-0.003921535,0.0065584555,0.011396132,164,6,231,2,0,-3341.2761,262.98303,3488.9197,65.599625,752576.3,799.39935,150.29842,150.74359,144.7027,144.7027,0,1,601.46747,0,0,18.64248,18.642488,0,2,255,0,0,0,1,82,7,0
True,36967375,15999.99,0,9071.142,11.361655,-1.7940962,5.8453193,-1.686204,-0.33533764,66.232346,0.016388157,0.24974751,0.10501221,3.054275,0.07237243,-0.035030086,0.14786865,0.18063486,0.22894849,0.23813389,0.12158868,0.2305238,0.17404343,0.28382337,208.4432,209.03215,209.7038,210.1011,0,0,0,0,0,0,0,0,0,0,0,0,0.18882129,0.2092173,0.27100083,0.30675676,0.22458248,0.31130868,0.32207543,0.41791797,-0.01452787,-0.010508556,-0.0016723089,-0.0005802326,164,6,231,2,0,-3340.3494,262.4219,3481.4585,66.25465,752374.44,792.14154,150.32414,150.70825,144.80191,144.80191,0,1,607.0484,0,0,18.7568,18.75681,0,2,255,0,0,0,1,0,9,0
True,36967468,15999.99,0,9119.046,13.916028,0.11117643,6.585282,-1.1398039,-0.3534255,66.84235,0.004126991,0.020559119,0.037407704,3.0671654,0.07160284,-0.025711102,0.27788693,0.21110919,0.30388367,0.245959,0.11726803,0.24944963,0.13524346,0.17937565,209.66423,211.70995,210.33144,210.77419,0,0,0,0,0,0,0,0,0,0,0,0,0.16449001,0.18404098,0.15644693,0.17550123,0.20201178,0.30999386,0.20680048,0.25095078,0.0014210045,-0.00677038,0.0072369277,0.00035011396,164,6,231,2,0,-3339.6958,261.92822,3475.0657,66.853,752562.56,788.35925,150.33093,150.63922,144.93391,144.93391,0,1,611.8193,0,0,18.853662,18.853672,0,2,255,0,0,0,1,0,8,0
True,36967578,15999.99,0,9191.438,6.588071,-0.6414443,6.288986,-0.26982212,-0.3444214,67.51859,-0.042186476,-0.035288036,0.028338425,3.0636785,0.07347207,-0.022718234,0.24523512,0.22963102,0.2956557,0.27618867,0.10063095,0.11399588,0.15008727,0.15448016,211.44467,211.81853,212.53264,212.70349,0,0,0,0,0,0,0,0,0,0,0,0,0.044388056,0.04624265,0.03066192,0.03177382,0.10998584,0.12301806,0.15318727,0.15771396,-0.0025842749,-0.0044983737,0.006258685,0.003944196,164,6,231,2,0,-3339.0508,261.3388,3467.5535,67.520004,752275.1,781.6326,150.27194,150.54507,144.992,144.992,0,1,617.41547,0,0,18.966219,18.96623,0,2,255,0,0,0,1,0,3,0
True,36967687,15999.99,0,9270.535,1.1541681,1.7485875,5.6697187,0.015263081,-0.3437233,68.15302,-0.008039832,-0.018484676,0.05716668,3.0606866,0.06951256,-0.019710453,0.21795185,0.28025484,0.290663,0.34356183,0.13205007,0.11357648,0.14111868,0.13924487,213.8342,213.62729,214.27628,214.31857,0,0,0,0,0,0,0,0,0,0,0,0,-0.0013785481,0.00025979144,-0.0071966504,-0.004816881,0.13205726,0.11357678,0.14130205,0.13932817,-0.005931016,0.0017114691,0.00566509,0.011954371,164,6,231,2,0,-3338.452,260.77426,3460.1724,68.153885,752490.2,775.37134,150.19534,150.45009,145.02681,145.02681,0,1,622.9104,0,0,19.075712,19.075724,0,2,255,0,0,0,1,0,253,0
True,36967812,15999.99,0,9388.209,-0.43194208,-1.4411287,6.239374,0.03237343,-0.3496604,68.92752,-0.020983892,-0.005038987,0.05666206,3.0594037,0.07265907,-0.011668986,0.17973362,0.26836565,0.24487199,0.29485312,0.11660754,0.11257721,0.16640751,0.16365491,216.13644,216.0994,217.21765,217.16986,0,0,0,0,0,0,0,0,0,0,0,0,-0.0065556187,-0.0057474473,-0.008540179,-0.007927272,0.116791666,0.11272383,0.16662651,0.16384679,-0.010619108,0.0002530627,0.00022087619,0.0061632656,164,6,231,2,0,-3337.773,260.13644,3451.833,68.92841,752232.25,765.14355,150.09695,150.33311,145.03542,145.03542,0,1,629.1191,0,0,19.198107,19.198116,0,2,255,0,0,0,1,0,247,0
True,36967906,15999.99,0,9460.496,-0.26798823,-0.2662723,5.757697,0.005214691,-0.31413746,69.4483,0.0053542126,-0.0013490259,0.02924221,3.0591898,0.072779864,-0.007931934,0.2018512,0.23981567,0.27258936,0.31355846,0.11552755,0.1098089,0.16965836,0.17100418,217.73016,217.62515,218.90948,218.93553,0,0,0,0,0,0,0,0,0,0,0,0,-0.002433392,-0.0014536537,-0.0025520907,-0.0012895629,0.11555317,0.10981852,0.16967756,0.17100903,-0.007906023,-0.0032490604,0.0035162643,0.008387186,164,6,231,2,0,-3337.2483,259.64105,3445.4583,69.44901,752443.6,759.6468,150.02841,150.24998,145.05109,145.05109,0,1,633.8662,0,0,19.290829,19.290838,0,2,255,0,0,0,1,0,243,0
True,36968015,15999.99,0,9528.087,-0.30330813,1.1887815,5.6729193,-0.016381264,-0.32720518,70.08573,-0.01940424,-0.0018465482,0.08064173,3.0590625,0.07031986,-0.0009891527,0.2014207,0.28783742,0.2611501,0.35233977,0.09987425,0.105450645,0.13904703,0.13825583,219.42386,219.52611,220.35728,220.35403,0,0,0,0,0,0,0,0,0,0,0,0,-0.0011111858,-0.00019826449,-0.001603046,0.001521707,0.099880435,0.10545083,0.13905627,0.13826421,-0.007958833,0.002641596,0.002156224,0.0129980035,164,6,231,2,0,-3336.619,259.05902,3437.8557,70.086494,752431.2,754.29803,149.95067,150.16733,145.07149,145.07149,0,1,639.5273,0,0,19.400497,19.400505,0,2,255,0,0,0,1,0,237,0
True,36968125,15999.99,0,9642.271,-0.80117685,0.370277,6.4385514,-0.036789417,-0.30587006,70.81896,0.032970686,-0.04561525,0.05373035,3.0580084,0.06964702,0.0061326367,0.23513645,0.33098054,0.30473018,0.39326337,0.13451166,0.1147605,0.16786137,0.15635654,222.16417,221.98782,223.02972,222.99467,0,0,0,0,0,0,0,0,0,0,0,0,-0.14372577,-0.13656576,-0.005037769,0.0011026359,0.19685143,0.17838213,0.16793695,0.15636043,-0.003823042,0.007933807,0.007337574,0.017863512,164,6,231,2,0,-3335.9697,258.47955,3430.057,70.819626,752599.44,745.59985,149.87282,150.07642,145.09122,145.09122,0,1,645.33405,0,0,19.511852,19.51186,0,2,255,0,0,0,1,-97,232,0
True,36968250,15999.99,0,9731.412,-8.618757,0.3640225,6.134975,0.31826162,-0.3071189,71.48248,-0.0009959096,-0.3057419,0.029232986,3.0387216,0.06978021,0.0087378,0.23136665,0.3891391,0.26288953,0.3838748,0.22204946,0.109541684,0.17244627,0.10390018,225.04669,224.49022,224.6367,224.81941,0,0,0,0,0,0,0,0,0,0,0,0,-0.58909625,-0.51070833,-0.0923786,-0.080329224,0.6295557,0.522324,0.19563109,0.13133176,-0.0042854697,0.015067905,0.0023630299,0.016747281,164,6,231,2,0,-3335.276,257.90417,3422.3706,71.48384,752488.25,738.614,149.87994,150.12312,145.09877,145.09877,0,1,651.06146,0,0,19.620592,19.620598,0,2,255,0,0,0,1,-127,228,0
True,36968359,15999.99,0,9810.46,-15.548508,1.0899433,6.279545,1.6527023,-0.2633214,72.04056,-0.0023259213,-0.42816806,0.029027568,2.9955084,0.069377236,0.007437329,0.2439252,0.40421495,0.29991558,0.43066168,0.21934198,0.08495986,0.18861169,0.093906045,226.70706,226.30518,226.4676,226.73479,0,0,0,0,0,0,0,0,0,0,0,0,-0.16035739,-0.13790737,-0.28937817,-0.24647869,0.27170828,0.16197722,0.34541872,0.26376143,-0.0027449578,0.016917206,0.0067651495,0.022309892,164,6,231,2,0,-3334.4578,257.3577,3415.0042,72.05999,752255.2,732.46344,149.9777,150.30685,145.14433,145.14433,0,1,656.56287,0,0,19.72414,19.724148,0,2,255,0,0,0,1,0,227,0
True,36968453,15999.99,0,9849.022,-13.50499,-0.14759985,1.864522,2.7529402,-0.23498344,71.9361,-0.017528601,-0.19407085,0.051240705,2.967607,0.0707227,0.009670572,0.21434467,0.37949562,0.24978864,0.40681878,0.19082037,0.08716137,0.22227336,0.12908605,227.23956,226.41602,228.02129,227.57767,0,0,0,0,0,0,0,0,0,0,0,0,-0.29444867,-0.253853,-0.36009303,-0.29652488,0.3508738,0.2683998,0.42316952,0.3234041,-0.006373495,0.0138849765,0.0008054301,0.019475147,164,6,231,2,0,-3333.6155,256.88626,3408.651,71.989136,752269.3,729.29785,149.9422,150.32083,145.21944,145.21944,-3.480935,1,661.31995,0,0,19.81321,19.813217,0,2,255,0,0,0,1,0,230,0
True,36968578,15999.99,0,9274.564,-6.6926146,-0.5231118,-5.164756,1.752451,-0.18130398,71.44454,0.061202295,0.1533158,0.090265185,2.9669015,0.07124636,0.016110348,0.16307953,0.37538913,0.22649203,0.45401973,-0.79526985,-0.33222812,-0.26792476,-0.1640228,205.34224,213.65633,216.25108,217.20753,0,0,0,0,0,0,0,0,0,0,0,0,-0.28049487,-0.25431007,-0.23480201,-0.19777381,0.84328616,0.41838872,0.35625225,0.25693962,-0.012662007,0.0133812465,-0.0019643642,0.025086991,164,6,231,2,0,-3332.3054,256.21735,3399.518,71.46626,752258.06,773.28015,149.94545,150.44571,145.32755,145.32755,-8.554984,1,668.1648,0,0,19.94185,19.941858,0,2,255,255,0,0,1,0,237,129
True,36968671,15999.99,0,9058.819,-5.822979,1.4159999,-21.07168,0.016910553,0.28515625,68.90493,0.04623138,0.09985701,0.13429996,2.9814844,0.07587964,0.028712265,0.2946696,0.46248007,0.20091982,0.35434103,-0.35444233,-0.31464058,-0.13367538,-0.12018878,206.07396,206.23514,210.96529,210.75673,0,0,0,0,0,0,0,0,0,0,0,0,-0.028077012,-0.02907346,0.006868523,0.009178746,0.35555264,0.31598094,0.13385172,0.120538756,0.0034796745,0.024064377,-0.0050047114,0.013235934,164,6,231,2,0,-3331.1604,255.67766,3392.2466,68.905525,725689.56,764.1301,150.10133,150.56537,145.32751,145.32751,-12.897543,1,673.6241,0,0,20.047096,20.047104,0,2,247,255,0,0,1,0,244,129
True,36968796,15999.99,0,8717.759,0.49561095,1.1688114,-23.163557,-0.3618965,0.4526949,66.15942,-0.05201927,0.010521562,0.0804594,2.9886749,0.07706943,0.041808743,0.35023925,0.50844383,0.20291273,0.3050987,-0.31745356,-0.28275788,-0.111979075,-0.11687494,198.25836,198.97527,202.82843,202.77377,0,0,0,0,0,0,0,0,0,0,0,0,-0.15711549,-0.15302752,0.049208608,0.04992214,0.3542062,0.32151118,0.12231435,0.12709041,0.010296203,0.029702589,-0.004767768,0.007381387,164,6,231,2,0,-3329.8914,255.1022,3384.353,66.16196,752268.5,823.3049,150.20769,150.66714,145.3038,145.3038,-14.7,1,679.55164,0,0,20.16582,20.165823,0,2,255,255,0,0,1,-8,252,129
True,36968890,15999.99,0,8447.906,-5.170795,-0.6469835,-16.682184,-0.17892647,0.4366498,64.459816,0.017743604,-0.23687294,0.03710922,2.9768157,0.07785891,0.047369104,0.32694322,0.436543,0.16559541,0.2674213,-0.22170639,-0.38086736,-0.21848683,-0.2097207,196.312,191.4626,195.20898,196.3037,0,0,0,0,0,0,0,0,0,0,0,0,-0.49915245,-0.45236877,-0.022161994,-0.018527638,0.54617476,0.5913522,0.21960795,0.21053752,0.007438563,0.02088277,-0.009204522,0.0029018223,164,6,231,2,0,-3328.818,254.63902,3377.8074,64.46154,752275.94,849.6295,150.27826,150.76166,145.27353,145.27353,-14.7,1,684.46783,0,0,20.26785,20.267853,0,2,255,255,0,0,1,-127,4,129
True,36969000,15999.99,0,8223.124,-14.313594,0.5263878,-16.527803,0.9357519,0.37013865,62.493053,-0.010152853,-0.48774663,0.033225585,2.9325452,0.07829615,0.04756193,0.27972484,0.46304655,0.15521154,0.32532927,-0.07307036,-0.39224225,-0.16450158,-0.17400396,190.78613,186.41687,189.70987,191.52261,0,0,0,0,0,0,0,0,0,0,0,0,-0.6993459,-0.5982533,-0.26386932,-0.2247532,0.70315284,0.7153747,0.31094658,0.28423825,0.0016464554,0.024133869,-0.010439087,0.009786654,164,6,231,2,0,-3327.4922,254.1062,3370.5247,62.501152,748734.9,869.0443,150.46704,151.0762,145.22598,145.22598,-0.41472912,1,689.945,0,0,20.384787,20.38479,0,2,254,255,0,0,1,-127,17,129
