IsRaceOn,TimestampMS,EngineMaxRpm,EngineIdleRpm,CurrentEngineRpm,AccelerationX,AccelerationY,AccelerationZ,VelocityX,VelocityY,VelocityZ,AngularVelocityX,AngularVelocityY,AngularVelocityZ,Yaw,Pitch,Roll,NormalizedSuspensionTravelFrontLeft,NormalizedSuspensionTravelFrontRight,NormalizedSuspensionTravelRearLeft,NormalizedSuspensionTravelRearRight,TireSlipRatioFrontLeft,TireSlipRatioFrontRight,TireSlipRatioRearLeft,TireSlipRatioRearRight,WheelRotationSpeedFrontLeft,WheelRotationSpeedFrontRight,WheelRotationSpeedRearLeft,WheelRotationSpeedRearRight,WheelOnRumbleStripFrontLeft,WheelOnRumbleStripFrontRight,WheelOnRumbleStripRearLeft,WheelOnRumbleStripRearRight,WheelInPuddleDepthFrontLeft,WheelInPuddleDepthFrontRight,WheelInPuddleDepthRearLeft,WheelInPuddleDepthRearRight,SurfaceRumbleFrontLeft,SurfaceRumbleFrontRight,SurfaceRumbleRearLeft,SurfaceRumbleRearRight,TireSlipAngleFrontLeft,TireSlipAngleFrontRight,TireSlipAngleRearLeft,TireSlipAngleRearRight,TireCombinedSlipFrontLeft,TireCombinedSlipFrontRight,TireCombinedSlipRearLeft,TireCombinedSlipRearRight,SuspensionTravelMetersFrontLeft,SuspensionTravelMetersFrontRight,SuspensionTravelMetersRearLeft,SuspensionTravelMetersRearRight,CarOrdinal,CarClass,CarPerformanceIndex,DrivetrainType,NumCylinders,PositionX,PositionY,PositionZ,Speed,Power,Torque,TireTempFl,TireTempFr,TireTempRl,TireTempRr,Boost,Fuel,Distance,BestLapTime,LastLapTime,CurrentLapTime,CurrentRaceTime,Lap,RacePosition,Accelerator,Brake,Clutch,Handbrake,Gear,Steer,NormalDrivingLine,NormalAiBrakeDifference
True,26419218,15999.99,0,500.56335,6.8566275,-0.26601562,1.1486135,-0.2753644,-0.07594652,3.7285163,-0.03677453,0.18960972,-0.04680989,-0.7533197,0.025297515,0.09895671,0.34916732,0.13971502,0.20213859,0.22612356,0.00011948668,-0.006468474,-0.0075958204,-0.00388453,12.051001,11.082609,12.002046,11.111418,0,0,0,0,0,0,0,0,0.59999996,0.59999996,0.59999996,0.59999996,0.033626392,0.042960837,0.46605566,0.50683385,0.033626605,0.043445077,0.46611756,0.50684875,0.010164712,-0.015528047,-0.004859809,-0.0020081736,164,6,231,2,0,4290.34,122.496796,53.836044,3.7394419,-319.8064,-6.102706,215.82874,208.94377,213.6421,213.6421,-5.879999,1,0.25939295,0,0,0.6791559,134.71642,0,9,0,0,0,0,1,0,127,0
True,26435296,15999.99,0,101.17258,-0.048241973,-0.03257393,4.1312466,0.0025955886,-0.0025667772,0.44529074,-0.023698134,0.0012276478,-0.010440212,1.0211692,-0.010038344,-0.00068487844,0.2589959,0.26245055,0.24765381,0.25180012,0.8468743,-0.04787987,1.3806401,-0.046114203,1.2987143,2.705072,1.2985406,3.7364893,0,0,0,0,0,0,0,0,0,0,0,0,0.0154093765,0.015334977,-0.014343369,-0.014264903,0.8470145,0.050275676,1.3807147,0.048270147,-0.00089628994,-0.00047251955,0.0005516149,0.0010445789,164,6,231,2,0,3177.2117,200.46349,646.857,0.44530573,7674.9824,732.7004,91.47413,91.475975,91.64804,91.64804,0,1,-62.841248,0,0,0.09482368,0.09482368,0,8,255,0,0,0,1,0,58,0
True,26435421,15999.99,0,329.51086,-0.03744173,0.010613713,11.788135,0.0033991337,-0.004472077,1.8470954,-0.036772378,-0.004804829,-0.019116744,1.020767,-0.013579862,-0.0023859304,0.22999567,0.24475262,0.27887166,0.29092056,2.9087944,0.36809853,0.86829406,0.5714592,10.877614,6.4575095,7.256112,6.819637,0,0,0,0,0,0,0,0,0,0,0,0,0.046756383,0.044762354,-0.020806573,-0.020113409,2.9091702,0.37081018,0.8685433,0.57181305,-0.004453644,-0.0026434623,0.0042631887,0.005695708,164,6,231,2,0,3177.3167,200.46461,646.9209,1.8471038,51934.07,1546.6406,91.743385,91.63359,91.94263,91.94263,0,1,-62.74478,0,0,0.20690897,0.20690897,0,7,255,0,0,0,1,0,58,0
True,26435515,15999.99,0,489.2703,-0.025017262,0.07735434,12.466265,0.0025908947,0.0025177598,2.9963133,-0.007827732,-0.0033054666,-0.014036024,1.0204179,-0.015407336,-0.004140819,0.21109228,0.2347445,0.29976743,0.31698292,1.2702769,0.703109,1.3330823,1.1367502,11.536227,9.774661,12.134565,11.160968,0,0,0,0,0,0,0,0,0,0,0,0,0.0095766755,0.010397851,0.003169617,0.004559972,1.270313,0.7031859,1.333086,1.1367593,-0.006772455,-0.0038711205,0.0067475364,0.008794334,164,6,231,2,0,3177.516,200.46811,647.0427,2.9963157,78272.42,1546.6406,93.92975,91.725174,92.79639,92.79639,0,1,-62.561222,0,0,0.30311805,0.30311805,0,7,255,0,0,0,1,0,58,0
True,26435625,15999.99,0,690.1924,-0.15065002,-0.12603977,13.692508,-0.0015106201,-0.017863732,4.563204,-0.016114317,-0.010838856,-0.006724107,1.019748,-0.01646909,-0.0048076664,0.18470667,0.2132001,0.28716484,0.3156651,2.3013926,0.43609592,1.0153552,0.6519561,18.058605,14.924937,16.032255,15.24986,0,0,0,0,0,0,0,0,0,0,0,0,0.040659435,0.040922787,-0.022708913,-0.020680632,2.3017516,0.4380118,1.0156091,0.652284,-0.01000908,-0.0065138936,0.00524918,0.0086376555,164,6,231,2,0,3177.88,200.47421,647.26605,4.563239,110720.38,1546.6406,95.300026,91.8427,93.73611,93.73611,0,1,-62.22607,0,0,0.41649637,0.4164964,0,7,255,0,0,0,1,0,58,0
True,26435734,15999.99,0,904.00195,-0.0561738,-0.16712354,14.729391,-0.0031108856,-0.042221542,6.176422,-0.012092379,-0.008754666,-0.0024466882,1.0188844,-0.017731493,-0.004874453,0.16395453,0.19180997,0.28630862,0.3161929,1.715138,0.49728036,0.7419918,1.0727273,21.987232,19.95871,20.851652,20.800043,0,0,0,0,0,0,0,0,0,0,0,0,0.024687605,0.02597744,-0.009425231,-0.007591282,1.7153156,0.49795842,0.74205166,1.0727541,-0.012554672,-0.009137746,0.0051473863,0.008700401,164,6,231,2,0,3178.3958,200.48112,647.5837,6.1765676,145639.69,1546.6406,96.85107,91.98753,94.30545,94.30545,0,1,-61.73539,0,0,0.5296134,0.5296134,0,7,255,0,0,0,1,0,58,0
True,26435859,15999.99,0,1143.444,-0.14086008,-0.19279696,15.176348,-0.006648779,-0.07155676,7.87547,-0.0009758016,-0.010893552,0.008497497,1.0175227,-0.019055815,-0.0046148803,0.14009067,0.17132546,0.28973028,0.31953332,1.5727787,0.33959848,0.86319476,0.7303127,27.726168,25.55299,26.525043,26.038267,0,0,0,0,0,0,0,0,0,0,0,0,0.025802076,0.027256723,-0.011876023,-0.0096477,1.5729903,0.34069055,0.8632764,0.7303765,-0.015481966,-0.011650506,0.0055541955,0.0090975575,164,6,231,2,0,3179.0664,200.48943,647.99774,7.875798,183895.34,1546.6406,100.117096,92.15517,94.646324,94.646324,0,1,-61.116486,0,0,0.6410746,0.6410746,0,7,255,0,0,0,1,0,58,0
True,26435968,15999.99,0,1390.2563,0.00274992,-0.19988368,15.566095,-0.0065464973,-0.09420544,9.621089,-0.001524434,-0.009453119,0.014213027,1.0162494,-0.019156344,-0.003180604,0.13760683,0.16091399,0.2930853,0.31252703,1.638209,0.58988905,0.6885145,0.65394515,34.048325,31.430965,31.79081,31.739801,0,0,0,0,0,0,0,0,0,0,0,0,0.01593395,0.017968588,-0.010198079,-0.008344835,1.6382865,0.59016263,0.68859,0.6539984,-0.01578665,-0.012927644,0.0059530847,0.0082645565,164,6,231,2,0,3179.905,200.4988,648.51746,9.621552,224275.56,1546.6406,102.79055,92.32716,94.91376,94.91376,0,1,-60.341854,0,0,0.7536411,0.7536411,0,7,255,0,0,0,1,0,58,0
True,26436078,15999.99,0,1588.391,0.04920292,-0.13104172,15.902157,-0.004116535,-0.10923884,11.187321,-0.002042991,-0.0010145514,0.012440361,1.0157906,-0.019419983,-0.0017723944,0.1415103,0.1535016,0.29884493,0.3061861,0.69536895,0.6824645,0.5668459,0.5802897,36.82584,36.79059,36.59182,36.639122,0,0,0,0,0,0,0,0,0,0,0,0,0.0005397552,0.0030087514,-0.0013712648,0.00041039163,0.6953692,0.6824711,0.56684756,0.5802899,-0.015307827,-0.013836894,0.0066378564,0.0075106733,164,6,231,2,0,3180.7788,200.50862,649.0597,11.187854,256273.56,1546.6406,103.11658,92.53024,95.13474,95.13474,0,1,-59.534405,0,0,0.8522563,0.85225624,0,7,255,0,0,0,1,0,58,0
True,26436187,15999.99,0,1869.9492,1.3612547,-0.18951601,15.560014,0.09229565,-0.1294609,12.952352,0.004420143,0.106225654,0.007284765,1.022299,-0.01926732,1.2706965E-05,0.14504151,0.1421821,0.30334824,0.29608008,0.57645375,1.5373547,0.59594244,0.76291054,42.61501,45.22605,42.774586,42.801586,0,0,0,0,0,0,0,0,0,0,0,0,-0.20429501,-0.20670173,0.026521748,0.028653547,0.6115843,1.5511883,0.5965323,0.7634485,-0.014874663,-0.01522542,0.00717327,0.0063091367,164,6,231,2,0,3181.9548,200.52177,649.7775,12.953327,301827.7,1546.6406,102.82205,93.37688,95.36448,95.36448,0,1,-58.452587,0,0,0.96621466,0.96621466,0,7,255,0,0,0,1,0,58,0
True,26436296,15999.99,0,2095.3323,0.15420389,-0.20280434,15.683538,0.0054330826,-0.1482385,14.766731,0.0032202604,0.023243347,0.0069403923,1.0287083,-0.018852431,0.00042643026,0.14278768,0.14353009,0.30294424,0.29455182,0.70223016,0.6345878,0.55561554,0.5978601,48.682983,48.30149,48.30991,48.36161,0,0,0,0,0,0,0,0,0,0,0,0,-0.03089564,-0.028218627,0.013950019,0.015463839,0.70290947,0.6352149,0.55579066,0.5980601,-0.015151132,-0.015060065,0.007125236,0.006127443,164,6,231,2,0,3183.3137,200.53606,650.59564,14.767475,338411.66,1546.6406,102.61218,93.979416,95.62024,95.62024,0,1,-57.207233,0,0,1.0804616,1.0804617,0,7,255,0,0,0,1,0,58,0
True,26436421,15999.99,0,2345.3083,0.07411814,-0.19402729,15.621965,-0.0029335022,-0.16726235,16.576199,-0.0011393151,0.004778156,0.0072840946,1.0300033,-0.018669901,0.0012499567,0.14280868,0.14331885,0.30493522,0.2953371,0.611476,0.5965782,0.54998255,0.56454057,54.196156,54.11434,54.15026,54.18647,0,0,0,0,0,0,0,0,0,0,0,0,-0.0052119633,-0.0026873993,0.002978041,0.004708379,0.61149824,0.59658426,0.54999065,0.5645602,-0.015148558,-0.015085978,0.007361952,0.0062208027,164,6,231,2,0,3184.8623,200.55171,651.5266,16.577042,378890.72,1546.6406,102.40242,94.16905,95.86755,95.86755,0,1,-55.788666,0,0,1.1955996,1.1955997,0,7,255,0,0,0,1,0,57,0
True,26436515,15999.99,0,2572.546,0.60789156,-0.13652936,15.482937,0.052310944,-0.18596119,18.122482,-0.004160301,0.04480903,0.018474566,1.0310564,-0.019019209,0.0021334933,0.14760634,0.14095633,0.30557436,0.29560837,0.52875656,0.9228897,0.5051556,0.5753649,58.917706,60.814808,59.09171,59.240032,0,0,0,0,0,0,0,0,0,0,0,0,0.334834,0.35725135,-0.002056025,-0.00020651489,0.62585723,0.9896231,0.5051598,0.57536495,-0.014560046,-0.015375778,0.0074379407,0.00625306,164,6,231,2,0,3186.3416,200.56659,652.4134,18.123512,415379.75,1546.6406,102.22947,94.33898,96.08282,96.08282,0,1,-54.434586,0,0,1.2948536,1.2948538,0,7,255,0,0,0,1,17,57,0
True,26436625,15999.99,0,2820.9783,0.72160196,-0.1295184,15.83579,0.0013360977,-0.20644604,19.939611,-0.0021287887,0.046669714,-0.0049987393,1.0399407,-0.019456007,0.002440334,0.15597588,0.13220991,0.30749196,0.29723892,0.5224142,0.7532811,0.5284625,0.54554605,64.827576,65.82484,65.11617,64.99054,0,0,0,0,0,0,0,0,0,0,0,0,-0.036245886,-0.034120195,0.027895609,0.029937968,0.52367014,0.7540535,0.5291983,0.5463669,-0.013533384,-0.01644867,0.0076659247,0.0064469166,164,6,231,2,0,3188.2485,200.58643,653.5362,19.94068,456062.06,1546.6406,102.054245,94.75466,96.33925,96.33925,0,1,-52.69744,0,0,1.4110446,1.411045,0,7,255,0,0,0,1,0,55,0
True,26436734,15999.99,0,3037.628,0.3495946,-0.146473,15.446694,-0.0077724457,-0.22091773,21.488422,0.002327444,0.011559729,-0.011863522,1.042423,-0.019393222,0.0015506744,0.15881152,0.12533787,0.30915087,0.2964642,0.52487236,0.69936824,0.537768,0.5362636,69.78707,70.7037,70.13079,70.073875,0,0,0,0,0,0,0,0,0,0,0,0,-0.0037768031,-0.0010765828,0.010600056,0.012677745,0.52488595,0.6993691,0.5378725,0.53641343,-0.013185548,-0.017291639,0.00786316,0.0063548125,164,6,231,2,0,3190.0217,200.6052,654.57434,21.48956,491150.38,1546.6406,101.918045,94.97672,96.56092,96.56092,0,1,-51.084534,0,0,1.5101473,1.5101477,0,7,255,0,0,0,1,0,54,0
True,26436843,15999.99,0,3279.214,0.18659925,-0.113081105,15.5517845,-0.000118255615,-0.23676386,23.303196,-0.005512936,0.0016453974,-0.008638089,1.0430079,-0.019430222,0.00015239323,0.1587045,0.13075194,0.31232154,0.28982958,0.53519094,0.489732,0.5035197,0.5138323,75.71231,75.40811,75.79548,75.8539,0,0,0,0,0,0,0,0,0,0,0,0,-0.0011786738,0.0012023393,0.00042233933,0.0024208694,0.53519225,0.48973346,0.5035199,0.513838,-0.013198674,-0.016627513,0.00824013,0.0055660047,164,6,231,2,0,3192.2732,200.62897,655.8878,23.304396,524212.75,1529.1782,101.796524,95.19453,96.826546,96.826546,0,1,-49.03858,0,0,1.6264155,1.626416,0,7,255,0,0,0,1,0,53,0
True,26436968,15999.99,0,3504.0857,0.08120918,0.059219234,15.193954,-0.001914978,-0.2591536,25.041447,-0.011429055,0.0018260825,0.00866944,1.0431787,-0.020790366,0.00012971368,0.15504068,0.15060936,0.31646493,0.2894474,0.5210595,0.42457658,0.4238277,0.44143778,81.24408,80.608604,80.87488,80.97417,0,0,0,0,0,0,0,0,0,0,0,0,-0.0028820836,-0.00022661136,-0.0012123312,0.00094260304,0.5210675,0.42457664,0.42382944,0.4414388,-0.013648102,-0.014191676,0.008732744,0.00552056,164,6,231,2,0,3194.667,200.65628,657.283,25.042788,535340.6,1461.0735,101.702736,95.35017,97.06952,97.06952,0,1,-46.86381,0,0,1.7409037,1.7409043,0,7,255,0,0,0,1,0,51,0
True,26437062,15999.99,0,3689.7112,-0.020280838,-0.2041251,14.277397,-0.005270958,-0.26282674,26.439205,0.027165323,0.0019172267,0.014152067,1.0433556,-0.020103477,0.0014029787,0.14498268,0.14587277,0.31360763,0.29715317,0.44216722,0.481246,0.40623543,0.4031394,85.15522,85.43019,85.18614,85.150826,0,0,0,0,0,0,0,0,0,0,0,0,-0.00031209755,0.002996136,-0.0002646722,0.0018631711,0.44216734,0.48125532,0.40623552,0.40314373,-0.014881879,-0.014772696,0.008393038,0.0064367205,164,6,231,2,0,3196.866,200.68304,658.56464,26.44051,522219.72,1353.373,101.63165,95.48232,97.253006,97.253006,0,1,-44.86133,0,0,1.839672,1.8396724,0,7,255,0,0,0,1,0,49,0
True,26437171,15999.99,0,3899.113,3.5297337,-0.7305015,12.241444,0.14785004,-0.23813272,27.843922,0.037363827,0.201957,0.027824758,1.0524845,-0.015706394,0.003951038,0.1552039,0.12658809,0.29553074,0.2762949,0.35209182,0.8743901,0.33434573,0.4825267,89.47268,92.16347,89.58442,89.679,0,0,0,0,0,0,0,0,0,0,0,0,0.68271244,0.77924705,0.032010797,0.034497395,0.7681568,1.1712319,0.33587462,0.48375827,-0.013628082,-0.017138278,0.0062438287,0.0039568245,164,6,231,2,0,3199.5764,200.71014,660.12494,27.845331,462658.6,1134.3386,101.5946,95.73467,97.44835,97.44835,0,1,-42.407127,0,0,1.9547092,1.9547094,0,7,255,0,0,0,1,123,47,0
True,26437281,15999.99,0,4049.828,3.0811994,-0.2397278,12.654298,-0.1342802,-0.23461105,29.060913,-0.029144928,0.1652692,-0.009975232,1.0758533,-0.01500028,0.0041575716,0.19347961,0.1492412,0.28920436,0.25687423,0.2845173,0.36777303,0.38124308,0.49017975,92.91232,92.7334,93.9005,93.92073,0,0,0,0,0,0,0,0,0,0,0,0,-0.03498044,-0.034677334,0.11551293,0.12007363,0.2866596,0.3694043,0.39835855,0.50467205,-0.008932937,-0.014359506,0.0054916665,0.0016478561,164,6,231,2,0,3202.0007,200.72859,661.4621,29.06217,593307.7,1400.7546,101.611206,96.034035,97.607086,97.607086,0,1,-40.236366,0,0,2.052081,2.052081,0,7,255,0,0,0,1,0,43,0
True,26437390,15999.99,0,4276.8584,2.6214592,0.8169955,14.288526,-0.07732105,-0.2954215,30.750599,-0.03533138,0.017273512,-0.01193622,1.0844706,-0.020959644,0.0029840628,0.21382879,0.17802705,0.3319327,0.29442707,0.39183357,0.43256658,0.3369914,0.36237603,98.82229,99.03515,98.63954,98.73481,0,0,0,0,0,0,0,0,0,0,0,0,0.0049474384,0.0078033665,0.03019197,0.03358195,0.3918648,0.43263695,0.33834118,0.36392877,-0.0064367764,-0.010828447,0.010571752,0.006112609,164,6,231,2,0,3205.1118,200.76094,663.1346,30.752113,635765.7,1421.1696,101.53453,96.183914,97.83096,97.83096,0,1,-37.468525,0,0,2.1701183,2.1701183,0,7,255,0,0,0,1,0,38,0
True,26437515,15999.99,0,4510.501,-2.8121376,-0.57498425,11.953972,-0.112734795,-0.26981956,32.194454,0.057901315,-0.21195713,-0.03239625,1.0743649,-0.017975457,0.00014271679,0.17003705,0.163645,0.32711947,0.3127852,0.8239336,0.40017816,0.4924123,0.3439983,106.17226,103.7472,103.84896,103.63017,0,0,0,0,0,0,0,0,0,0,0,0,-0.7247451,-0.6485064,-0.045769006,-0.039962515,1.097325,0.7620388,0.49453482,0.34631178,-0.011808552,-0.01259264,0.009999495,0.008295253,164,6,231,2,0,3208.3955,200.8026,664.8972,32.19578,532109.4,1127.6766,101.61954,96.40609,98.043785,98.043785,0,1,-34.548233,0,0,2.2883554,2.2883554,0,7,255,0,0,0,1,-127,33,0
True,26437625,15999.99,0,4679.8604,-5.08758,-0.56409734,12.344938,0.3412676,-0.25685173,33.561546,-0.015788864,-0.26547533,-0.008636337,1.0379052,-0.014873729,-0.0023312443,0.1809356,0.20758289,0.28352177,0.29674658,0.40536603,0.2625514,0.5328236,0.3609527,107.210846,107.27225,108.623116,108.44103,0,0,0,0,0,0,0,0,0,0,0,0,0.010018522,0.011369386,-0.20258337,-0.19071753,0.4054898,0.26279745,0.570036,0.40824017,-0.010471664,-0.007202938,0.004816048,0.006388385,164,6,231,2,0,3211.7815,200.83273,666.8036,33.56426,668077.5,1364.61,101.90384,96.7065,98.31026,98.31026,0,1,-31.500263,0,0,2.406646,2.4066463,0,7,255,0,0,0,1,0,29,0
True,26437750,15999.99,0,4882.5425,-5.2867713,0.6924241,13.703382,0.22636223,-0.3110299,35.152622,-0.029616095,-0.039717663,-0.0021720324,1.022329,-0.019405974,-0.002972037,0.2142552,0.24718629,0.31282493,0.3506851,0.42956904,0.35232636,0.37003255,0.3097737,113.07135,112.65429,112.8528,112.55583,0,0,0,0,0,0,0,0,0,0,0,0,-0.054660443,-0.050896976,-0.08071843,-0.072675064,0.4330327,0.35598367,0.37873414,0.31818455,-0.0063844696,-0.0023449324,0.008299977,0.012801271,164,6,231,2,0,3215.1907,200.86774,668.817,35.154724,706485.9,1383.3234,101.920715,96.8309,98.57443,98.57443,0,1,-28.397371,0,0,2.5218275,2.5218272,0,7,255,0,0,0,1,0,27,0
True,26437859,15999.99,0,5067.588,-2.329947,-0.33558887,12.956938,0.08020973,-0.29958424,36.43945,0.037498675,0.012060866,0.009125753,1.0214748,-0.017945634,-0.0027723347,0.2140011,0.23393893,0.337613,0.36655217,0.41356462,0.35458645,0.3789687,0.39351603,117.04364,116.58848,117.0815,117.22067,0,0,0,0,0,0,0,0,0,0,0,0,0.159711,0.16422491,-0.021071425,-0.01443651,0.44333205,0.39077023,0.37955403,0.39378074,-0.006415639,-0.0039699376,0.011247091,0.014687747,164,6,231,2,0,3218.2246,200.90535,670.6587,36.440765,678931.06,1280.605,101.9501,96.96094,98.758675,98.758675,0,1,-25.61071,0,0,2.620904,2.6209042,0,7,255,0,0,0,1,15,26,0
True,26437968,15999.99,0,5256.095,3.4047287,-0.56021166,12.23564,-0.021518707,-0.30028337,37.8827,-0.00087643415,0.22484455,0.024773378,1.0366322,-0.015679372,0.0002715406,0.21754295,0.22985673,0.34106213,0.33788124,0.25727984,0.41244763,0.31205904,0.42194188,120.846436,121.07816,121.65414,121.579155,0,0,0,0,0,0,0,0,0,0,0,0,-0.08705352,-0.087758765,0.068674676,0.07766141,0.2716086,0.42168075,0.3195263,0.4290294,-0.0059811734,-0.0044706874,0.011657171,0.011278991,164,6,231,2,0,3221.9607,200.94193,672.9064,37.8839,700465.44,1273.5133,102.02507,97.17134,98.972,98.972,0,1,-22.187405,0,0,2.738185,2.738185,0,7,255,0,0,0,1,0,25,0
True,26438078,15999.99,0,5449.2485,3.1609874,-0.29442668,12.602528,-0.20453262,-0.30853266,39.31217,0.010736579,0.047804706,-0.0047616065,1.0502543,-0.015337869,0.0013756647,0.23731275,0.21821496,0.3432225,0.34675696,0.26204002,0.424056,0.33271605,0.35849738,124.94019,126.29768,125.96805,125.97494,0,0,0,0,0,0,0,0,0,0,0,0,0.03566257,0.04039714,0.064103216,0.07087473,0.26445565,0.42597583,0.33883503,0.36543617,-0.003556084,-0.00589874,0.011914026,0.012334242,164,6,231,2,0,3225.7385,200.97568,675.12164,39.31391,719371.1,1261.5812,102.04843,97.33411,99.1768,99.1768,0,1,-18.749569,0,0,2.85158,2.8515801,0,7,255,0,0,0,1,0,23,0
True,26438187,15999.99,0,5633.2275,1.9027245,-0.16108504,12.539955,-0.07015991,-0.322003,40.7244,-0.0027782694,0.0022873096,-0.0154991,1.0523026,-0.015119687,-0.00046225497,0.23702767,0.2083017,0.34614018,0.32377052,0.3188138,0.30144566,0.31358498,0.33009088,129.90819,129.70885,130.18013,130.32487,0,0,0,0,0,0,0,0,0,0,0,0,0.017589845,0.020305775,0.016008137,0.021273991,0.31929865,0.3021288,0.3139933,0.3307757,-0.0035910532,-0.0071147643,0.012260914,0.009601325,164,6,231,2,0,3229.662,201.00854,677.38074,40.725735,750188.4,1272.7124,102.08386,97.48134,99.382614,99.382614,0,1,-15.194603,0,0,2.964667,2.9646668,0,7,255,0,0,0,1,0,20,0
True,26438296,15999.99,0,5789.461,0.70904064,-0.1576046,12.270834,-0.01556778,-0.3156034,41.907505,-0.006545016,-0.002056204,-0.0013696658,1.052185,-0.014614912,-0.0011438344,0.22789359,0.22018577,0.34289733,0.3226684,0.25690833,0.25967664,0.3295058,0.32818902,132.99844,133.03711,134.07806,134.07462,0,0,0,0,0,0,0,0,0,0,0,0,0.0036448266,0.0059195342,0.00038802216,0.0051908945,0.2569342,0.2597441,0.329506,0.32823008,-0.0047114976,-0.0056569874,0.011875361,0.009470291,164,6,231,2,0,3233.1204,201.03687,679.3583,41.9087,752768.44,1242.4703,102.13013,97.592926,99.554085,99.554085,0,1,-12.068494,0,0,3.0610492,3.0610487,0,7,255,0,0,0,1,0,17,0
True,26438406,15999.99,0,5962.6963,0.13333416,0.85728794,11.790514,-0.0016994476,-0.3395421,43.272675,-0.003443694,-0.0005161585,0.008142783,1.05204,-0.017845146,-0.00081365363,0.24895848,0.2541859,0.35164255,0.34906328,0.3071239,0.2912445,0.25686273,0.25907317,137.87738,137.70445,137.64804,137.6708,0,0,0,0,0,0,0,0,0,0,0,0,-0.0016660878,0.0016311569,-0.0033546523,0.002696091,0.30712843,0.29124907,0.25688463,0.2590872,-0.002127543,-0.0014863163,0.012915108,0.01260845,164,6,231,2,0,3237.3704,201.07878,681.7851,43.274006,752973.1,1206.9613,102.1792,97.715576,99.74902,99.74902,0,1,-8.228072,0,0,3.175891,3.1758904,0,7,255,0,0,0,1,0,12,0
True,26438515,15999.99,0,6165.5767,0.07778835,-1.7466931,11.028021,-0.002878189,-0.29065365,44.48301,0.04666449,-2.1505766E-05,0.010004602,1.0520173,-0.011696222,0.00038602995,0.22087264,0.23001316,0.33763427,0.34059745,0.26106223,0.26669118,0.40450582,0.40260422,141.15475,141.21298,143.05382,143.03397,0,0,0,0,0,0,0,0,0,0,0,0,-0.0013653823,0.0013401308,-0.002700452,0.0027963899,0.2610658,0.26669455,0.40451482,0.40261394,-0.0055727325,-0.0044514984,0.011249628,0.011601925,164,6,231,2,0,3241.6562,201.11833,684.23224,44.48396,727432.4,1127.1797,102.25861,97.85654,99.9366,99.9366,0,1,-4.3552775,0,0,3.2883227,3.2883227,0,7,255,0,0,0,1,0,8,0
True,26438640,15999.99,0,6281.313,-0.01991129,0.80929625,11.256008,-0.0012512207,-0.3315041,45.764977,-0.036442503,-0.00039531227,-0.0034770034,1.051986,-0.014689408,0.0008571995,0.28415135,0.2823476,0.3522068,0.35523066,0.21641567,0.22963877,0.22673891,0.22442472,144.77184,144.9257,145.19102,145.16942,0,0,0,0,0,0,0,0,0,0,0,0,-0.00064235623,0.0019607008,-0.0026302913,0.0034900964,0.21641663,0.22964714,0.22675417,0.22445185,0.0021894388,0.001968179,0.012982193,0.013341706,164,6,231,2,0,3246.09,201.14638,686.76416,45.766174,752799.25,1145.3063,102.32228,97.97896,100.13197,100.13197,0,1,-0.34875318,0,0,3.4014199,3.40142,0,7,255,0,0,0,1,0,5,0
True,26438750,15999.99,0,6492.1846,0.040151596,-0.93958706,10.6778,0.0021018982,-0.29357252,46.98397,0.04185509,-0.0005933491,-0.010912605,1.0519415,-0.01189352,-4.4541903E-05,0.2512738,0.24469376,0.36148947,0.36543238,0.26228148,0.27672362,0.34375444,0.33959025,149.08488,149.25145,150.36618,150.32971,0,0,0,0,0,0,0,0,0,0,0,0,-0.0010114192,0.0019306357,-0.0037291439,0.004027349,0.2622834,0.27673036,0.34377468,0.33961412,-0.0018435307,-0.0026506819,0.014085833,0.014554616,164,6,231,2,0,3250.759,201.18585,689.4301,46.98489,752769.06,1107.8434,102.39258,98.10504,100.31506,100.31506,0,1,3.8659682,0,0,3.5173185,3.5173187,0,7,255,0,0,0,1,0,4,0
True,26438859,15999.99,0,6596.9033,-0.008859158,-0.44321218,10.528793,0.0035552979,-0.32261705,48.022167,-0.0042608366,-9.2221686E-05,-0.0026919032,1.0518987,-0.011520169,-0.0010148442,0.2655222,0.25663865,0.34069723,0.33322093,0.24814309,0.22238198,0.24273552,0.24636461,152.23866,151.92773,152.47339,152.52225,0,0,0,0,0,0,0,0,0,0,0,0,-0.0019843054,0.00071066356,-0.003076794,0.0016262049,0.24815103,0.22238313,0.24275501,0.24636997,-9.5728785E-05,-0.001185447,0.01161379,0.01072491,164,6,231,2,0,3254.7798,201.20828,691.7259,48.02325,752678.5,1090.1772,102.45647,98.21106,100.47601,100.47601,0,1,7.501348,0,0,3.6147473,3.6147475,0,7,255,0,0,0,1,0,4,0
True,26438968,15999.99,0,6751.416,-0.06318951,-0.24700849,10.22563,-0.006685257,-0.31434065,49.154816,0.0055073583,0.00084357255,0.018076478,1.0519757,-0.010916166,0.00038556612,0.294545,0.306781,0.36662042,0.36444375,0.21602468,0.23993471,0.25159118,0.24542247,155.41531,155.71527,156.14992,156.07584,0,0,0,0,0,0,0,0,0,0,0,0,-0.0015530719,0.001524058,-0.0034097037,0.0040686484,0.21603025,0.23993956,0.25161427,0.24545619,0.0034643896,0.004965335,0.01469586,0.014437076,164,6,231,2,0,3259.476,201.23386,694.4079,49.15582,752692.06,1065.2028,102.52916,98.32385,100.64865,100.64865,0,1,11.747718,0,0,3.7260141,3.7260141,0,7,255,0,0,0,1,0,6,0
True,26439078,15999.99,0,6935.4575,-0.05512047,-1.8441838,9.663925,-0.008520126,-0.29199997,50.235218,0.052464746,0.00028463584,0.023544196,1.0520128,-0.006263999,0.0026386576,0.18830965,0.23733048,0.31963727,0.3717575,0.2744015,0.25487888,0.33003268,0.33726922,159.51422,159.27475,160.55023,160.63177,0,0,0,0,0,0,0,0,0,0,0,0,-0.00093973725,0.0016155331,-0.0013104775,0.0047882306,0.2744031,0.254884,0.33003527,0.3373032,-0.009567115,-0.0035539083,0.009109914,0.015306622,164,6,231,2,0,3264.274,201.25006,697.1484,50.23607,752686.7,1036.8513,102.60984,98.44216,100.81969,100.81969,0,1,16.085,0,0,3.8371673,3.8371677,0,7,255,0,0,0,1,0,6,0
True,26439187,15999.99,0,7041.8384,-0.09039402,-0.53550345,9.672419,-0.009801865,-0.34579223,51.335945,0.0036112103,-0.00026871235,0.018054761,1.0520271,-0.005966948,0.0054453695,0.24429192,0.27182543,0.28493604,0.31104144,0.23083158,0.25548735,0.2171012,0.21488258,162.50505,162.82698,162.61952,162.59488,0,0,0,0,0,0,0,0,0,0,0,0,-0.00042546872,0.0025868986,0.0007407798,0.0017213685,0.23083198,0.25550044,0.21710247,0.21488947,-0.002699975,0.00067746267,0.0049841926,0.008087937,164,6,231,2,0,3269.1914,201.24623,699.957,51.33711,752751.9,1021.4245,102.69166,98.559105,100.99619,100.99619,0,1,20.53124,0,0,3.9486277,3.948628,0,7,255,0,0,0,1,0,6,0
True,26439296,15999.99,0,7240.404,0.108803034,-3.2177126,9.068096,0.0028686523,-0.3057977,52.328037,0.06034254,0.008136676,0.0046008527,1.0521266,0.0020012218,0.006091189,0.16699544,0.16830257,0.28990436,0.29117697,0.26648173,0.26673216,0.37665585,0.38842496,166.07153,166.04703,167.7798,167.89606,0,0,0,0,0,0,0,0,0,0,0,0,0.06276706,0.06517159,0.0008986119,0.0014779058,0.27377403,0.27457854,0.37665692,0.3884278,-0.012181655,-0.012021314,0.005574893,0.0057261996,164,6,231,2,0,3274.2063,201.22441,702.8206,52.328926,733220.4,967.2145,102.781685,98.69226,101.16701,101.16701,0,1,25.065447,0,0,4.060023,4.060023,0,7,255,0,0,0,1,28,6,0
True,26439406,15999.99,0,7338.6934,4.5508566,-1.2686782,9.271583,-0.11744118,-0.3550758,53.385,0.019308614,0.232025,0.06423509,1.0644549,0.003540821,0.010310259,0.16938429,0.2020694,0.30262408,0.30200282,0.2167672,0.3846626,0.1951887,0.26835787,169.2695,170.4734,169.33737,169.21017,0,0,0,0,0,0,0,0,0,0,0,0,0.44433022,0.4905019,0.06467302,0.06916957,0.49438584,0.62334377,0.205624,0.27712882,-0.011888623,-0.007879257,0.007087171,0.007013306,164,6,231,2,0,3279.4211,201.16722,705.7691,53.386307,752708.8,980.04034,102.918594,98.85925,101.35147,101.35147,-2.0708342,1,29.769167,0,0,4.1733055,4.1733065,0,7,255,0,0,0,1,127,5,0
True,26439515,15999.99,0,7505.7046,6.7362165,-2.0494561,8.971954,-0.82901764,-0.35652834,54.341278,0.058882117,0.16565171,0.020968227,1.0930907,0.0072575607,0.015562214,0.1610955,0.1358846,0.23735128,0.2318623,0.21841139,0.50156623,0.24553058,0.33670333,172.18256,175.25964,172.96321,173.30643,0,0,0,0,0,0,0,0,0,0,0,0,0.11162063,0.122881226,0.18166894,0.19551784,0.24528086,0.5163995,0.30543226,0.38935375,-0.012905378,-0.01599791,-0.00067327917,-0.0013258792,164,6,231,2,0,3284.6824,201.0963,708.64435,54.34877,743863.06,946.93555,103.08638,99.069984,101.543594,101.543594,-4.1051493,1,34.47294,0,0,4.2846003,4.2846003,0,7,255,0,0,0,1,0,3,0
True,26439640,15999.99,0,7580.1753,6.83397,-1.837841,9.120636,-0.6157093,-0.3686332,55.335136,-0.019161668,0.042201046,0.028845686,1.1030239,0.011245391,0.017544476,0.19329832,0.17000005,0.25028962,0.2251615,0.15486819,0.20477276,0.20694537,0.25571525,174.19562,174.67719,175.22014,175.57587,0,0,0,0,0,0,0,0,0,0,0,0,0.099358015,0.10499723,0.11343022,0.12299856,0.18400046,0.23012236,0.23599322,0.28375858,-0.008955173,-0.011813091,0.0008649938,-0.002122555,164,6,231,2,0,3289.997,200.99496,711.44946,55.339787,752343.3,947.95325,103.19083,99.229614,101.75342,101.75342,0,1,39.190365,0,0,4.394192,4.394192,0,7,255,0,0,0,1,0,0,0
True,26439734,15999.99,0,7672.644,4.745798,0.04276696,8.916402,-0.20943832,-0.3599565,56.167786,-0.00658532,-0.01632374,0.008549965,1.1032789,0.010337467,0.019730553,0.20142837,0.18816787,0.29236177,0.26865998,0.14607045,0.18005168,0.18540679,0.19213636,176.49619,177.0306,177.3688,177.4911,0,0,0,0,0,0,0,0,0,0,0,0,0.04115409,0.04374118,0.0322306,0.033144217,0.15175715,0.1852887,0.18818738,0.19497415,-0.007957891,-0.009584509,0.0058670603,0.0030490942,164,6,231,2,0,3294.6555,200.90353,713.84,56.16933,752446.75,936.6747,103.26959,99.32664,101.90857,101.90857,0,1,43.299072,0,0,4.4880977,4.488098,0,7,255,0,0,0,1,0,251,0
True,26439843,15999.99,0,7773.9443,1.3757043,3.2827888,8.805662,-0.015691757,-0.32881868,57.11981,-0.111436516,-0.009497546,0.0005136803,1.1015829,0.0044035944,0.019529201,0.28909802,0.30757168,0.2998524,0.28068492,0.09855358,0.0924508,0.14509235,0.14611705,178.90529,178.86018,179.86208,179.9149,0,0,0,0,0,0,0,0,0,0,0,0,0.005314922,0.004375156,0.0006454138,0.0006531003,0.09869679,0.092554264,0.14509378,0.1461185,0.002796229,0.005062327,0.006757643,0.0044787675,164,6,231,2,0,3300.2168,200.8133,716.6639,57.120754,752463,924.5552,103.361626,99.44344,102.07747,102.07747,0,1,48.19511,0,0,4.5981927,4.5981927,0,7,255,0,0,0,1,0,245,0
True,26439953,15999.99,0,7907.318,0.013916731,5.6223645,8.1628685,-0.0031013489,-0.233457,58.01835,-0.032440435,-0.0026168413,0.010564782,1.1007985,-0.0067805694,0.020438278,0.43401635,0.41477546,0.47798276,0.46344382,0.12043076,0.12176551,0.16618134,0.16519879,181.98906,182.03055,182.9441,182.9426,0,0,0,0,0,0,0,0,0,0,0,0,-0.0005385212,0.0015448875,-0.015192092,0.012265155,0.12043197,0.12177531,0.16687432,0.16565348,0.020572837,0.018212628,0.027936019,0.026207447,164,6,231,2,0,3305.9004,200.79736,719.5486,58.018818,752618.25,909.30664,103.45851,99.56713,102.26546,102.26546,-1.117712,1,53.19453,0,0,4.708877,4.7088776,0,7,255,0,0,0,1,0,239,0
True,26440062,15999.99,0,8031.1226,-0.14397717,3.4905953,7.840413,1.1329651,-0.28787702,56.756935,0.003076477,0.0184796,0.060185283,1.100976,-0.012525489,0.021827325,0.39045987,0.38475847,0.46560764,0.4354304,0.16185293,0.15358163,0.15939078,0.161749,185.31828,185.17477,185.58159,185.61516,0,0,0,0,0,0,0,0,0,0,0,0,0.0016945564,0.004342639,-0.010268587,0.012839621,0.16186179,0.15364301,0.15972121,0.1622578,0.015229922,0.014530551,0.026464708,0.022876859,164,6,231,2,0,3311.5608,200.8349,722.40234,56.76897,752641.6,895.3532,103.545746,99.67482,102.42636,102.42636,0,1,58.16618,0,0,4.817911,4.8179107,0,7,255,0,0,0,1,0,232,0
True,26440187,15999.99,0,7736.1978,1.055062,0.48222575,-5.7300606,0.40750694,-0.20632106,56.577778,-0.008388923,0.057404518,-0.008346438,1.1083972,-0.011563368,0.019912783,0.36123532,0.4077784,0.42991582,0.4663592,0.16014257,0.12928584,0.19883928,0.18026343,178.44112,177.72227,179.18942,178.76762,0,0,0,0,0,0,0,0,0,0,0,0,-0.18390091,-0.17412311,-0.06285552,-0.037421536,0.24385485,0.2168725,0.20853746,0.1841067,0.011645053,0.017354324,0.022221215,0.026554063,164,6,231,2,0,3317.122,200.88292,725.1019,56.579624,752517.44,929.24146,103.660355,99.837494,102.60649,102.60649,0,1,63.01206,0,0,4.9272003,4.9272,0,7,255,0,0,0,1,-64,223,0
True,26440296,15999.99,0,7824.451,-4.8839655,0.039754957,2.7419317,0.2383194,-0.21202153,57.089645,0.0007005464,-0.20235914,-0.0007942704,1.1001691,-0.01186774,0.018890029,0.3094469,0.35553497,0.36233878,0.4040721,0.2956787,0.14590645,0.23256579,0.16181228,181.26971,180.08397,180.72205,180.70885,0,0,0,0,0,0,0,0,0,0,0,0,-0.4460531,-0.3935183,-0.07591132,-0.06148642,0.5351535,0.41969672,0.24464132,0.17310053,0.0052923523,0.010945808,0.014186807,0.019148588,164,6,231,2,0,3322.7722,200.93591,727.90564,57.090538,752521.25,918.76105,103.81951,100.04924,102.759415,102.759415,0,1,67.95749,0,0,5.0381255,5.038125,0,7,255,0,0,0,1,-69,215,0
True,26440406,15999.99,0,7917.189,-6.3610673,-0.44174594,6.371334,0.63285446,-0.20554668,57.853313,-0.048505872,-0.10313673,-0.006786907,1.0800787,-0.0103964405,0.02018888,0.24615744,0.30132762,0.31542504,0.36426014,0.15314998,0.115293615,0.2661932,0.20648134,181.74915,181.69983,183.57928,183.31857,0,0,0,0,0,0,0,0,0,0,0,0,-0.08520317,-0.080805704,-0.13616064,-0.12402095,0.17525552,0.14079125,0.2989959,0.24086456,-0.0024711378,0.0042963885,0.008609109,0.0144152455,164,6,231,2,0,3328.4858,200.98401,730.83014,57.85714,752559.06,907.99713,103.95129,100.21761,102.93124,102.93124,-0.9832649,1,72.99289,0,0,5.149871,5.1498704,0,7,255,0,0,0,1,0,209,0
True,26440515,15999.99,0,7980.7188,-6.400612,3.6027474,7.6150093,0.25044823,-0.2949079,58.607307,-0.06536953,-0.0022157982,0.030323956,1.0755342,-0.019287698,0.020758277,0.3448315,0.40107214,0.35517827,0.38956267,0.16363779,0.1296704,0.132632,0.12904252,184.51495,184.02498,184.34004,184.32584,0,0,0,0,0,0,0,0,0,0,0,0,-0.04770469,-0.04376283,-0.042893313,-0.03619646,0.17044958,0.13685612,0.13939543,0.13402298,0.009632852,0.016531691,0.013335478,0.017423525,164,6,231,2,0,3333.3474,201.04237,733.3992,58.608578,752534.1,900.7589,104.03666,100.340195,103.08178,103.08178,-2.5164995,1,77.30866,0,0,5.244268,5.2442675,0,7,255,0,0,0,1,0,205,0
True,26440640,15999.99,0,8172.7236,-3.988766,-1.0842118,7.2965713,0.06413841,-0.27183798,59.417713,0.07157238,-0.10997715,0.02569742,1.0720059,-0.016316535,0.025064824,0.2906786,0.35215098,0.3949741,0.45823807,0.41231313,0.26297408,0.24786142,0.21553403,190.46921,188.71495,188.27275,188.30127,0,0,0,0,0,0,0,0,0,0,0,0,-0.37607747,-0.3489594,-0.038812775,-0.01937142,0.5580649,0.4369531,0.25088188,0.2164028,0.0029901117,0.0105307065,0.01806691,0.02558852,164,6,231,2,0,3339.2393,201.13742,736.5732,59.41837,752275.06,879.5826,104.13598,100.463684,103.24088,103.24088,-4.3776016,1,82.56137,0,0,5.3576527,5.3576517,0,7,255,0,0,0,1,-127,202,0
True,26440734,15999.99,0,8407.349,-3.136948,-6.8751316,5.5084176,0.6165905,-0.25073582,59.92876,0.18415968,-0.13479136,0.015615843,1.0574918,-0.0025937567,0.027917402,0.14072388,0.16537866,0.29140672,0.33833182,0.78017384,0.76232773,0.44311965,0.36696956,197.28156,197.667,192.55316,192.19307,0,0,0,0,0,0,0,0,0,0,0,0,-0.08465838,-0.0803737,-0.14010534,-0.13264091,0.7847536,0.766553,0.46474135,0.3902054,-0.015404291,-0.012379978,0.0057535097,0.01133256,164,6,231,2,0,3344.5483,201.1732,739.4778,59.932457,498373,566.2482,104.32441,100.637634,103.39079,103.39079,-5.7140856,1,87.31241,0,0,5.4590116,5.459011,0,7,255,0,0,0,1,0,201,0
True,26440843,15999.99,0,8445.294,-2.3517332,-9.889097,3.8008533,1.2826443,-0.27544487,60.234055,0.066688955,-0.15512566,-0.0013587922,1.0431409,0.018545484,0.029649641,0.0471096,0.09615841,0.11508002,0.14716727,0.40218088,0.23676193,0.69687414,0.58942145,192.88992,191.00723,197.44257,195.98119,0,0,0,0,0,0,0,0,0,0,0,0,-0.19001745,-0.17626487,-0.27203408,-0.25134426,0.44481018,0.2951703,0.7480883,0.64077425,-0.026887618,-0.020870978,-0.015210427,-0.011395492,164,6,231,2,0,3350.6545,201.08156,742.8449,60.248344,509278.72,574.6292,104.55135,100.88872,103.65314,103.65314,0,1,92.78743,0,0,5.5752015,5.575201,0,7,255,0,0,0,1,0,199,0
True,26440953,15999.99,0,8378.81,-11.092073,-1.0222398,6.9687467,0.9061203,-0.41957057,61.02494,0.036376167,-0.12211253,0.05945672,1.0280962,0.015658565,0.029327128,0.15887703,0.31743962,0.25655976,0.37117013,0.6308774,0.14419538,0.19328885,0.14010234,198.4683,191.9866,192.68307,192.46242,0,0,0,0,0,0,0,0,0,0,0,0,-0.47223964,-0.4036957,-0.16770455,-0.1486876,0.78804606,0.42867532,0.25590116,0.20429555,-0.013177512,0.006272789,0.0016104653,0.0152367875,164,6,231,2,0,3355.9177,200.94229,745.836,61.03311,752555,857.92694,104.69412,101.09006,103.86838,103.86838,0,1,97.53495,0,0,5.6749883,5.674987,0,7,255,0,0,0,1,-127,200,0
True,26441062,15999.99,0,8528.564,-10.627198,-3.5124722,6.9081097,1.0142193,-0.37219167,61.78047,0.07091488,-0.26409778,0.023747317,1.0074801,0.025114194,0.036370136,0.1264726,0.26587263,0.21861589,0.36875325,0.611085,0.2560731,0.3077453,0.21307552,200.28151,196.2394,196.32042,196.20241,0,0,0,0,0,0,0,0,0,0,0,0,-0.8128272,-0.71630096,-0.22390744,-0.2015437,1.0169134,0.76069736,0.38058075,0.29329345,-0.017152444,-5.2746385E-05,-0.0029007792,0.014949441,164,6,231,2,0,3362.052,200.75345,749.48676,61.789917,708062.8,793.14294,105.00281,101.41997,104.047935,104.047935,0,1,103.14014,0,0,5.7912602,5.791259,0,7,255,0,0,0,1,-127,204,0
True,26441187,15999.99,0,8580.746,-16.110773,-1.492048,7.328204,1.6711216,-0.30692673,62.494236,-0.046358857,-0.47204188,-0.05528234,0.967987,0.031128343,0.034665693,0.19329888,0.31433922,0.23172604,0.33432022,0.37981027,0.1410801,0.32014874,0.15191172,198.6905,197.25958,198.41075,198.13448,0,0,0,0,0,0,0,0,0,0,0,0,-0.85039884,-0.69857156,-0.36270088,-0.30189165,0.9313614,0.71267515,0.4837842,0.33795822,-0.008955106,0.005892474,-0.0013420805,0.010855611,164,6,231,2,0,3368.0627,200.51181,753.25,62.51733,752211.4,837.1489,105.400406,101.898636,104.26402,104.26402,-14.7,1,108.70529,0,0,5.9054294,5.905428,0,7,255,0,0,0,1,-127,211,85
True,26441281,15999.99,0,8656.9,-23.047195,2.4143472,7.607069,2.3827496,-0.23550773,63.060066,-0.016313005,-0.48590523,-0.017954553,0.91708386,0.028200993,0.02828939,0.24877697,0.3961904,0.28969437,0.44634327,0.4031706,0.09773067,0.30576566,0.1422626,201.1127,198.69916,199.9915,199.88504,0,0,0,0,0,0,0,0,0,0,0,0,-0.30162507,-0.24696602,-0.46797252,-0.38200107,0.50351185,0.26560026,0.55900884,0.40763155,-0.0021498092,0.015932865,0.0055499263,0.024174318,164,6,231,2,0,3373.192,200.30922,756.7337,63.105503,752406.4,830.14935,105.76454,102.43808,104.51866,104.51866,-14.7,1,113.55975,0,0,6.004194,6.0041924,0,6,255,0,0,0,1,0,224,108
True,26441390,15999.99,0,8795.489,-20.34701,-0.89826524,7.506268,2.502798,-0.1964109,63.772186,0.039512083,-0.203315,0.05544073,0.8777571,0.032053202,0.031212073,0.24012713,0.42160204,0.29437497,0.48532858,0.40778404,0.15833779,0.3798591,0.22646219,204.10158,201.2139,203.89433,202.869,0,0,0,0,0,0,0,0,0,0,0,0,-0.38900727,-0.34390378,-0.46391788,-0.38241798,0.56357294,0.37860358,0.5995938,0.44444194,-0.0032108538,0.019050017,0.0061064176,0.028809384,164,6,231,2,0,3379.085,200.07652,761.08685,63.821587,750944.06,815.439,105.95607,102.69618,104.82831,104.82831,-14.7,1,119.27095,0,0,6.1197004,6.1196995,0,6,255,0,0,0,1,0,245,82
True,26441515,15999.99,0,8896.209,-14.97159,-3.0013323,7.21307,3.5671787,-0.13902855,64.018906,0.061948597,-0.054867443,0.037091486,0.8671752,0.037620906,0.03679165,0.18209383,0.3683089,0.25456953,0.45034164,0.44279802,0.21342006,0.32901293,0.23437043,207.17242,203.98438,205.85742,204.91495,0,0,0,0,0,0,0,0,0,0,0,0,-0.58053225,-0.5307135,-0.27172518,-0.23383057,0.7301286,0.5720183,0.4267131,0.33106834,-0.010329589,0.01251274,0.0013738424,0.024649695,164,6,231,2,0,3384.736,199.81407,765.4951,64.11836,743030.9,797.9007,106.157616,102.94942,105.061165,105.061165,-14.7,1,124.838486,0,0,6.231522,6.2315207,0,6,255,0,0,0,1,-127,14,9
True,26441625,15999.99,0,8934.22,3.7546473,-1.299436,0.14475179,4.6055813,-0.11731362,64.00316,0.02984737,-0.082895584,0.04163009,0.8572714,0.04121333,0.04024749,0.15038225,0.33075806,0.17962669,0.37785903,0.8260835,0.25961685,0.42356455,0.32110667,211.7425,203.36049,206.0083,205.33495,0,0,0,0,0,0,0,0,0,0,0,0,-0.9440403,-0.806644,-0.7312612,-0.642221,1.2544426,0.8473934,0.8450739,0.7180232,-0.0142195355,0.007906515,-0.007536307,0.016032051,164,6,231,2,0,3390.6294,199.52753,769.88043,64.16876,557635.9,595.96155,107.2325,103.93817,105.39144,105.39144,-14.7,1,130.59457,0,0,6.3462057,6.3462043,0,6,255,0,0,0,1,0,35,6
True,26441734,15999.99,0,8795.416,-4.1537743,-2.6498208,1.4856898,4.3746414,-0.22818208,64.16631,-0.01794736,-0.04808432,-0.014097817,0.8526442,0.045630835,0.04428696,0.069974616,0.21479523,0.10663158,0.25908124,0.3039686,0.11248372,0.31100914,0.19329141,203.94656,201.22858,203.95203,202.88199,0,0,0,0,0,0,0,0,0,0,0,0,-0.73511,-0.62574375,-0.77249306,-0.631413,0.795477,0.6357734,0.83274984,0.6603362,-0.024082849,-0.0063182265,-0.016214885,0.0019102506,164,6,231,2,0,3396.4512,199.21887,774.2169,64.31567,300109.6,325.56714,107.670334,104.354454,105.75513,105.75513,-14.7,1,136.27318,0,0,6.4593825,6.4593806,0,6,98,0,0,0,1,0,52,7
True,26441859,15999.99,0,8654.429,-20.509161,0.9455667,0.42028713,1.126503,-0.20108032,64.280174,0.0022854954,0.13786748,0.08859358,0.860379,0.043434933,0.045472972,0.16695137,0.43526188,0.17240171,0.40907958,0.032531798,0.020386975,0.030010276,0.036576193,200.1445,199.30019,200.17288,199.72635,0,0,0,0,0,0,0,0,0,0,0,0,-0.32550585,-0.28156567,-0.16517264,-0.1372613,0.32712746,0.28230277,0.1678768,0.14205098,-0.012187062,0.020725623,-0.008395303,0.019743942,164,6,231,2,0,3402.1208,198.88196,778.73975,64.29036,162791.05,179.63676,107.83414,104.73699,105.98561,105.98561,0,1,142.26726,0,0,6.5722566,6.5722547,0,5,86,0,0,0,1,-127,62,0
True,26441968,15999.99,0,8668.193,-14.103968,4.5624657,0.8359518,-0.53214836,-0.2277751,57.08156,-0.031423405,-0.18489435,0.101748295,0.85906994,0.038948983,0.058654606,0.28252113,0.4683144,0.22327241,0.41774097,0.0348507,0.019567097,0.04347445,0.021758258,199.77594,200.18199,200.18044,200.42082,0,0,0,0,0,0,0,0,0,0,0,0,-0.43833238,-0.38970816,0.020627156,0.026008874,0.43971565,0.3901991,0.04811972,0.03390993,0.0019894652,0.024780057,-0.0023471527,0.020773716,164,6,231,2,0,3407.5972,198.5668,783.3983,57.08449,170393.77,187.70866,108.00232,105.02499,106.06877,106.06877,-3.774849,1,147.92859,0,0,6.6861763,6.6861753,0,5,79,0,0,0,1,-127,70,0
True,26442078,15999.99,0,7404.2593,-17.561111,6.785479,-36.756393,-0.1744957,0.15344048,55.198536,-0.07704563,-0.46871415,0.010842101,0.8215568,0.032361377,0.064496204,0.4903307,0.6658441,0.4119143,0.6090504,-0.0060063633,-0.006928678,-0.0077956123,-0.012747148,169.79181,172.06267,169.95119,172.1207,0,0,0,0,0,0,0,0,0,0,0,0,-0.47658744,-0.41671985,-0.07252477,-0.025039688,0.4766253,0.41677746,0.07294254,0.02809761,0.027480714,0.049010307,0.020080972,0.04351899,164,6,231,2,0,3412.202,198.33836,787.5688,55.19902,-70053.78,-90.331635,108.307625,105.41091,106.22781,106.22781,-14.7,1,152.81554,0,0,6.797281,6.79728,0,5,0,0,0,0,1,-127,68,0
True,26442203,15999.99,0,6733.497,-18.709713,3.5923615,-21.468779,1.5080929,0.38102555,53.137695,-0.03200121,-0.7259596,-0.030809375,0.7536614,0.03367842,0.06213887,0.44454858,0.5959296,0.32906088,0.4806991,-0.24216254,-0.15108794,-1.2884567,-0.40173313,158.62383,163.60008,145.43665,159.51425,0,0,0,0,0,0,0,0,0,0,0,0,-0.7601224,-0.64319885,-0.4768132,-0.39979014,0.79776484,0.6607059,1.3738527,0.5667642,0.021864787,0.040434152,0.01023031,0.028258972,164,6,231,2,0,3416.5994,198.17577,791.8363,53.160454,-57567.652,-81.77941,108.650635,105.83884,106.489136,106.489136,-14.7,1,158.21402,0,0,6.9101067,6.9101057,0,5,0,255,0,0,1,-127,54,129
True,26442312,15999.99,0,6392.327,-24.757729,3.6410215,-18.657957,3.5553665,0.4361794,50.673706,-0.053478174,-0.84709847,-0.0270097,0.6603615,0.03211217,0.055432286,0.42719188,0.5837985,0.26534668,0.41389933,-1.0650018,-0.10098792,-0.67680645,-0.48234618,136.12355,156.60692,145.78207,150.83891,0,0,0,0,0,0,0,0,0,0,0,0,-1.2158467,-1.0131907,-0.97054243,-0.78501266,1.6163267,1.0182112,1.1832242,0.9213592,0.019735705,0.03894607,0.0026551634,0.020316973,164,6,231,2,0,3420.6611,198.04485,796.1465,50.80015,142596.62,212.0778,109.506966,106.69055,107.42465,107.42465,-14.7,1,162.80264,0,0,7.024185,7.0241847,0,5,198,255,0,0,1,-127,32,129
True,26442421,15999.99,0,6726.9287,-23.170462,1.1459827,-10.616029,5.736515,0.40291262,48.941418,-0.02659965,-0.8394987,-0.019466965,0.56700957,0.034004495,0.05022647,0.36130983,0.52847093,0.22647314,0.37371865,0.27180105,0.117162384,0.46090084,0.104933344,152.78389,154.59862,156.49312,156.01698,0,0,0,0,0,0,0,0,0,0,0,0,-1.7876325,-1.4630396,-1.4852082,-1.2494676,1.8081775,1.4677234,1.5550797,1.2538661,0.011654191,0.03215924,-0.0019666106,0.015539791,164,6,231,2,0,3424.2402,197.93929,800.34296,49.27811,590396.1,841.21674,111.63034,108.9486,108.58824,108.58824,-14.7,1,167.108,0,0,7.1348147,7.1348143,0,5,255,0,0,0,1,-127,10,0
True,26442531,15999.99,0,6912.4595,-22.738491,1.1809149,3.1512947,7.806114,0.1996305,48.78872,-0.09951651,-0.83537364,-0.07102957,0.47449762,0.031207519,0.04208294,0.32635707,0.4279918,0.2414452,0.35206488,0.9844243,0.380547,0.7872617,0.39481568,160.37604,157.56679,160.16968,159.83327,0,0,0,0,0,0,0,0,0,0,0,0,-2.2574596,-1.8653239,-1.8585697,-1.564451,2.4627657,1.9037461,2.0184307,1.6135013,0.007366661,0.01983383,-0.00018654391,0.012965318,164,6,231,2,0,3427.5413,197.82881,804.61444,49.409657,382511.4,528.39984,115.44617,113.10095,111.53722,111.53722,0,1,171.29837,0,0,7.244258,7.244258,0,5,255,0,0,0,1,-127,247,0
True,26442640,15999.99,0,6899.464,-21.511686,1.1330744,4.4914637,9.333704,0.12757361,48.51476,0.025750257,-0.6166139,-0.004616726,0.39370176,0.029019155,0.0358288,0.29391095,0.39991537,0.28614286,0.43931717,1.0924511,0.573736,0.8219324,0.43367442,160.5176,157.91275,159.79196,159.02235,0,0,0,0,0,0,0,0,0,0,0,0,-2.7009041,-2.4197512,-2.223748,-1.794705,2.9134743,2.486839,2.3707864,1.8463584,0.003386613,0.01638979,0.0051276796,0.023338966,164,6,231,2,0,3430.6392,197.72482,809.07715,49.404617,298509.12,413.18317,120.69209,118.976456,116.00438,116.00438,-5.4125204,1,175.4998,0,0,7.354238,7.3542376,0,5,255,0,0,0,1,-127,229,0
True,26442750,15999.99,0,6928.9697,-17.807503,-1.1477354,4.681521,10.654324,0.06839168,48.272423,-0.018449731,-0.63082576,-0.051125098,0.32611695,0.032664828,0.03048577,0.21376203,0.3222602,0.20192802,0.30805087,0.98901075,0.43007866,0.9440652,0.5946625,160.8595,157.57643,160.68799,160.22325,0,0,0,0,0,0,0,0,0,0,0,0,-2.2145176,-1.9070652,-2.4829104,-2.1851344,2.4253309,1.9549592,2.6563327,2.264605,-0.0064449646,0.006864112,-0.004884843,0.0077323765,164,6,231,2,0,3433.5344,197.60767,813.66907,49.434254,279733.3,385.44415,124.80272,123.37056,120.79855,120.79855,0,1,179.7274,0,0,7.464116,7.464115,0,5,255,0,0,0,1,0,211,0
True,26442859,15999.99,0,6939.44,-13.069851,-1.0706114,5.5179396,12.0827675,-0.010125041,48.121788,0.014127422,-0.49485743,-0.0009085145,0.27013284,0.033475757,0.02451511,0.24420068,0.2785314,0.24828346,0.32855573,0.25130624,0.34611794,1.0344285,0.7577326,155.47318,159.00357,161.98537,161.8123,0,0,0,0,0,0,0,0,0,0,0,0,0.21613544,0.7109373,-2.701313,-2.4499967,0.33146545,0.79071456,2.8925998,2.5644965,-0.0027111657,0.0015000589,0.0006264746,0.010170251,164,6,231,2,0,3435.911,197.48784,817.75714,49.615524,444610.3,611.94464,125.88987,124.40997,126.10498,126.10498,0,1,183.42557,0,0,7.559693,7.559692,0,5,255,0,0,0,1,127,198,0
True,26442968,15999.99,0,7018.1606,-11.395304,-1.7601213,5.2449565,13.047328,-0.08750081,48.15157,0.02780022,-0.2944838,-0.07411903,0.22742963,0.035827108,0.018418508,0.15306194,0.1927191,0.19784594,0.21354301,1.0534527,0.47365126,1.091601,0.8107184,164.02652,159.02428,162.72295,162.04004,0,0,0,0,0,0,0,0,0,0,0,0,-2.2380705,-1.9127209,-2.9514523,-2.6074827,2.4736052,1.970494,3.1468496,2.73061,-0.013890827,-0.009026226,-0.0053701736,-0.0035039075,164,6,231,2,0,3438.74,197.3197,822.852,49.888016,260290.03,354.1408,125.357086,123.885864,133.74084,133.74084,0,1,187.93541,0,0,7.67678,7.6767797,0,5,255,0,0,0,1,0,185,0
True,26443093,15999.99,0,6945.7183,-16.06319,-1.3032539,4.1549773,12.777416,-0.08849907,48.12267,-0.024929864,-0.2982782,-0.0965523,0.193152,0.037671555,0.0092338445,0.15757564,0.2073642,0.16061614,0.18432194,0.9734737,0.53138304,0.96226585,0.69575936,161.21599,157.83607,161.30302,160.46693,0,0,0,0,0,0,0,0,0,0,0,0,-2.7447252,-2.397886,-2.8502953,-2.4914026,2.9122446,2.456059,3.008345,2.5867293,-0.0133371465,-0.007229764,-0.009796519,-0.006978076,164,6,231,2,0,3441.3708,197.12167,827.99457,49.790173,292324.16,401.89172,131.15019,130.70683,140.2064,140.2064,0,1,192.46367,0,0,7.7927527,7.792752,0,5,255,0,0,0,1,0,177,0
True,26443187,15999.99,0,6918.3096,-19.479198,0.5840788,4.521756,12.163443,-0.03215003,48.18887,-0.04392251,-0.27479056,-0.101542935,0.16473183,0.0342156,-0.002241846,0.23617347,0.2666218,0.19219786,0.28958312,0.8741939,0.48183295,0.8924986,0.5756336,160.47267,157.44089,160.63531,159.79974,0,0,0,0,0,0,0,0,0,0,0,0,-2.54618,-2.243855,-2.6827717,-2.1572394,2.6920712,2.295005,2.827334,2.2327194,-0.0036958344,3.91528E-05,-0.006041687,0.005536698,164,6,231,2,0,3443.4314,196.94719,832.45416,49.700275,350377.56,483.54688,136.0003,136.63681,145.34663,145.34663,0,1,196.32193,0,0,7.891581,7.8915796,0,5,255,0,0,0,1,0,173,0
True,26443296,15999.99,0,6963.045,-17.919796,0.68846196,5.98337,11.444523,-0.01563561,48.484623,-0.024690306,-0.15940024,-0.0054297186,0.14129727,0.030390128,-0.010849602,0.22546433,0.28007597,0.20991026,0.32825205,0.27145132,0.25379577,0.91671336,0.7438531,157.4816,158.32428,162.63034,162.12842,0,0,0,0,0,0,0,0,0,0,0,0,0.19468099,0.6237217,-2.4391658,-2.2042356,0.33404568,0.6733803,2.6057425,2.3263645,-0.0050094873,0.0016895272,-0.003935814,0.010134149,164,6,231,2,0,3445.336,196.78194,837.0957,49.817024,491928.38,674.82263,138.00218,139.00739,149.79794,149.79794,0,1,200.26257,0,0,7.9925723,7.9925714,0,5,255,0,0,0,1,127,175,0
True,26443406,15999.99,0,7034.026,-5.2962847,-1.0027409,4.6380935,11.07399,-0.1304121,48.99368,-0.005300384,0.12845291,0.0018377895,0.13990822,0.0307195,-0.010979558,0.19853827,0.2323894,0.21438223,0.24749781,0.21020955,0.31856716,0.8211313,0.8649331,159.11415,159.81854,164.1432,163.97615,0,0,0,0,0,0,0,0,0,0,0,0,0.2884532,0.71919,-2.194861,-2.2021973,0.356922,0.7865871,2.3434315,2.3659632,-0.008312408,-0.004160013,-0.0034041293,0.0005330667,164,6,231,2,0,3447.4363,196.5854,842.56195,50.22978,485978.2,659.83795,136.51505,137.59259,154.34212,154.34212,0,1,204.87558,0,0,8.109701,8.1097,0,5,255,0,0,0,1,127,181,0
True,26443531,15999.99,0,7066.1987,-3.112298,1.4058366,4.603182,9.243525,-0.18758094,49.84307,-0.038192835,0.41220558,-0.02219534,0.17180617,0.026583526,-0.009877229,0.2503355,0.25148314,0.24741302,0.24532755,0.22220002,0.41445395,0.5696763,0.62972695,161.6487,161.88902,164.26112,163.65742,0,0,0,0,0,0,0,0,0,0,0,0,0.59629935,1.021688,-1.6790171,-1.5933928,0.6363535,1.1025509,1.7730283,1.7133175,-0.0019586273,-0.0018178523,0.00052298605,0.00027503818,164,6,231,2,0,3449.5015,196.38612,848.0593,50.693283,592221.56,800.579,135.23672,136.41315,157.42706,157.42706,0,1,209.48225,0,0,8.226138,8.226137,0,5,255,0,0,0,1,127,188,0
True,26443625,15999.99,0,7150.839,-3.5237508,-0.34477141,4.4653378,6.2406015,-0.17923176,50.703907,0.026806377,0.6531643,-0.028754827,0.22470899,0.027698444,-0.012257941,0.2624778,0.23364301,0.30666324,0.29727212,0.31293234,0.5773256,0.49857455,0.62478757,164.34973,164.33516,165.96338,165.19519,0,0,0,0,0,0,0,0,0,0,0,0,0.7631162,1.062375,-1.1004623,-1.0661438,0.82478666,1.2091093,1.2081366,1.2357273,-0.00046917796,-0.004006237,0.0075673983,0.0064508654,164,6,231,2,0,3451.2249,196.22794,852.77295,51.08682,528982.8,706.25366,134.39688,136.44829,157.63617,157.63617,0,1,213.41682,0,0,8.324812,8.32481,0,5,255,0,0,0,1,0,196,0
True,26443734,15999.99,0,7127.0435,-13.329116,1.1467984,8.707701,0.49885368,-0.28684378,52.103348,-0.07879024,0.6273592,-0.041688833,0.30741936,0.024069358,-0.019988036,0.24680889,0.27565172,0.25561577,0.306167,0.24132253,0.14748932,0.14684848,0.22554882,166.47478,162.39938,165.46696,163.89575,0,0,0,0,0,0,0,0,0,0,0,0,-0.28503484,-0.26382563,0.038135573,0.037267417,0.37347212,0.3022533,0.15171948,0.22860692,-0.0023912266,0.0011468194,0.0014982335,0.007508401,164,6,231,2,0,3453.2058,196.03392,858.49115,52.106518,752374.7,1008.26636,133.34967,135.53406,155.24315,155.24315,0,1,218.15625,0,0,8.442222,8.442221,0,5,255,0,0,0,1,0,207,0
True,26443843,15999.99,0,7298.021,5.2505975,0.86237645,8.947409,-1.233511,-0.311468,52.961308,0.018096812,0.39176887,0.04976975,0.35689345,0.022522064,-0.014693961,0.2267026,0.21101137,0.32321605,0.3427893,0.1407722,0.43254408,0.19536152,0.35450077,167.39539,169.44075,168.51868,168.70638,0,0,0,0,0,0,0,0,0,0,0,0,0.12222911,0.14169483,0.29198575,0.3300806,0.18643166,0.4551613,0.3513144,0.48438,-0.0048575923,-0.006782379,0.009535402,0.011862516,164,6,231,2,0,3454.834,195.8889,863.3544,52.976585,752889.2,985.93823,132.40672,134.46217,153.17812,153.17812,0,1,222.16779,0,0,8.539826,8.5398245,0,5,255,0,0,0,1,0,218,0
True,26443953,15999.99,0,7418.115,12.359155,-0.6114998,9.292592,-1.1895065,-0.29164374,53.96643,-0.007894119,0.12525168,-0.013420346,0.3854289,0.025155915,-0.012259253,0.24087489,0.12788223,0.31345385,0.25129163,0.13449614,0.30275667,0.216784,0.32733145,169.84329,171.44075,171.34583,172.02069,0,0,0,0,0,0,0,0,0,0,0,0,0.18199018,0.20556055,0.23240452,0.2621738,0.22629546,0.36594635,0.31781623,0.41938168,-0.0031191297,-0.01697953,0.008374754,0.0009841248,164,6,231,2,0,3456.9014,195.71135,869.03784,53.980328,752373.56,968.70654,131.4213,133.34357,151.02652,151.02652,0,1,226.90807,0,0,8.652961,8.652959,0,5,255,0,0,0,1,0,227,0
True,26444078,15999.99,0,7358.9463,9.388847,0.724001,7.606873,-0.2969494,-0.32584673,54.815292,0.027047878,-0.025822781,-0.07150604,0.38918564,0.022688983,-0.018177569,0.30824506,0.18704356,0.36884883,0.23385303,-0.07327541,-0.08170817,0.052133597,0.05412137,168.61337,168.58783,170.62186,170.74173,0,0,0,0,0,0,0,0,0,0,0,0,0.07531888,0.07892266,0.047573116,0.0543059,0.10508196,0.113600224,0.070577,0.076669775,0.0051449277,-0.009722423,0.014960807,-0.0010891967,164,6,231,2,0,3459.1643,195.53044,874.77734,54.817062,481020.9,623.76044,130.4987,132.25923,148.96591,148.96591,-14.7,1,231.75058,0,0,8.766257,8.766255,0,5,27,63,0,0,1,2,233,64
True,26444187,15999.99,0,6779.8774,6.161565,-1.0194557,-16.165144,0.07636452,0.045829177,52.63181,0.08552311,0.1387573,-0.08203395,0.3928265,0.032396004,-0.02572557,0.3499141,0.1768059,0.30753544,0.18282077,-0.4922676,-0.23015717,-0.38219455,-0.5129956,154.917,159.12166,157.55734,155.12122,0,0,0,0,0,0,0,0,0,0,0,0,0.32650265,0.36766663,0.022295924,0.025296753,0.59070414,0.43376383,0.38284433,0.51361895,0.0102563165,-0.0109782405,0.0076710954,-0.0071565546,164,6,231,2,0,3461.4597,195.3481,880.3907,52.631886,27573.916,38.790672,129.7403,131.34622,146.9767,146.9767,-14.7,1,236.50662,0,0,8.879006,8.879004,0,5,0,255,0,0,1,127,235,217
True,26444296,15999.99,0,6443.8145,12.368329,0.6101944,-20.299328,-0.168684,0.38687235,50.18126,-0.011947577,0.4168187,-0.04390156,0.42424008,0.038376946,-0.032554477,0.491639,0.31021854,0.28995782,0.118758656,-0.10436171,-0.7342677,-0.22444999,-0.6451543,154.57382,141.97716,153.03787,145.18117,0,0,0,0,0,0,0,0,0,0,0,0,0.46713963,0.5366325,0.13014525,0.15269952,0.4786552,0.9094633,0.25945246,0.662979,0.0276412,0.005387008,0.005581245,-0.014773065,164,6,231,2,0,3463.7363,195.16713,885.68005,50.183033,-53638.08,-79.1901,129.24611,130.63522,145.20308,145.20308,-14.7,1,241.03049,0,0,8.991261,8.991259,0,5,0,247,0,0,1,127,234,200
True,26444406,15999.99,0,6145.214,15.574446,0.059485257,-18.547588,-1.291296,0.4102915,47.865944,0.032373503,0.56580263,-0.041834984,0.48319364,0.040151313,-0.03453525,0.44359314,0.27472007,0.29813078,0.16416869,-0.15961848,-0.34178346,-0.54972285,-0.6115007,146.67017,142.0664,141.84854,139.34555,0,0,0,0,0,0,0,0,0,0,0,0,0.7117327,0.83472127,0.4013418,0.45374623,0.7294117,0.9019842,0.68063974,0.7614583,0.02174759,0.0010325387,0.0065529533,-0.009374149,164,6,231,2,0,3466.1152,195.00053,890.74615,47.885113,212216.11,329.6889,128.84575,130.13083,143.57526,143.57526,-14.7,1,245.4246,0,0,9.105725,9.105724,0,5,83,255,0,0,1,127,229,179
True,26444515,15999.99,0,5641.6943,15.340584,-1.4995947,-16.483313,-2.7914104,0.3935141,46.114243,0.024983047,0.7165038,-0.051360235,0.5461338,0.0462891,-0.036931265,0.43214318,0.22027054,0.2531241,0.089811504,-0.13841271,-0.35634854,-0.996257,-1.7316314,141.4902,135.72865,129.99828,121.58969,0,0,0,0,0,0,0,0,0,0,0,0,0.9716961,1.1539577,0.7742302,0.8822777,0.9815046,1.2077262,1.2617291,1.9434406,0.020343062,-0.00564659,0.001201991,-0.018214667,164,6,231,2,0,3468.2444,194.84464,894.9233,46.200325,25043.994,42.428146,128.79053,130.06442,142.55406,142.55406,-14.7,1,249.09991,0,0,9.205475,9.205474,0,5,27,255,0,0,1,127,223,165
True,26444625,15999.99,0,6153.7197,18.910036,-0.9788966,-9.775593,-4.699234,0.361264,44.455204,0.0147798015,0.7691567,-0.034502406,0.63589835,0.051656056,-0.03758814,0.41395012,0.21639004,0.2798091,0.10556024,0.18669695,0.3956677,0.15464643,0.5853186,141.50388,140.17775,142.34349,143.27145,0,0,0,0,0,0,0,0,0,0,0,0,1.4222156,1.6830376,1.1638037,1.4071277,1.4344174,1.7289213,1.1740334,1.52401,0.018111385,-0.0061225966,0.004374638,-0.016342258,164,6,231,2,0,3470.8164,194.64748,899.54724,44.704346,488653.62,760.78046,129.89607,131.1747,142.59868,142.59868,-14.7,1,253.33475,0,0,9.322466,9.322465,0,5,247,0,0,0,1,127,214,25
True,26444750,15999.99,0,6323.647,18.752193,-1.151605,3.2506018,-6.4750443,0.15081918,44.454926,-0.016181713,0.74997324,-0.016375147,0.7251161,0.054015934,-0.0365058,0.3340854,0.16456185,0.31135252,0.119418405,0.41956377,1.0945268,0.4388187,0.88589084,143.90842,147.2219,145.90556,146.69286,0,0,0,0,0,0,0,0,0,0,0,0,1.829677,2.1376996,1.5037007,1.8137007,1.8771658,2.4016137,1.566422,2.0184927,0.008314669,-0.012480175,0.008124918,-0.0146946255,164,6,231,2,0,3473.5747,194.42676,903.9829,44.92426,311995.06,471.1853,132.71829,133.80356,143.76631,143.76631,-14.7,1,257.43073,0,0,9.439135,9.439134,0,5,255,0,0,0,1,127,200,9
True,26444843,15999.99,0,6325.286,17.019318,-1.7084246,4.3321404,-7.8968353,0.028163433,44.329933,0.040179517,0.6618765,-0.03346969,0.79568887,0.058066797,-0.034589823,0.2997993,0.11229165,0.3129562,0.11969423,0.4994653,1.1419653,0.5055897,0.920629,143.86816,147.11801,146.06746,146.72556,0,0,0,0,0,0,0,0,0,0,0,0,2.1803863,2.5214226,1.8232622,2.150065,2.2368617,2.7679698,1.892064,2.338875,0.004108917,-0.018891972,0.008315586,-0.014661832,164,6,231,2,0,3476.1213,194.21228,907.6978,45.02781,253249.4,382.32034,136.51375,137.34589,146.2817,146.2817,-14.7,1,260.94672,0,0,9.539377,9.539375,0,5,255,0,0,0,1,127,186,0
True,26444968,15999.99,0,6281.936,20.002506,0.32150623,4.7900105,-8.973717,0.081359774,44.147415,0.015214194,0.6127868,-0.04466804,0.872185,0.062456947,-0.034449935,0.31028098,0.10926512,0.37780344,0.15353744,0.4298623,1.1181117,0.44012177,0.8599859,142.44118,146.34981,145.1349,145.76018,0,0,0,0,0,0,0,0,0,0,0,0,2.2586367,2.7685642,1.8580962,2.3398905,2.2991784,2.98582,1.9095101,2.4929228,0.0053946674,-0.019263225,0.016025443,-0.010638125,164,6,231,2,0,3479.2668,193.93764,911.88574,45.05029,309122.53,469.90778,142.69257,142.70593,150.91368,150.91368,0,1,265.00977,0,0,9.655818,9.655818,0,5,255,0,0,0,1,127,174,0
True,26445078,15999.99,0,6293.5693,18.515629,-0.49098676,4.6285787,-8.591177,0.4339892,42.321518,0.015637785,0.5905724,-0.056822192,0.9422695,0.06653249,-0.034802034,0.27298224,0.09690119,0.30237535,0.114277095,0.4250427,1.0668933,0.55978376,0.88308907,143.11722,146.9371,145.39061,145.64911,0,0,0,0,0,0,0,0,0,0,0,0,2.0143461,2.3662777,2.190549,2.5067654,2.0587015,2.5956755,2.2609427,2.6577659,0.0008193627,-0.020779863,0.0070575997,-0.01530589,164,6,231,2,0,3482.6147,193.66486,915.8414,43.18689,258554.86,392.34824,149.16733,148.30794,156.28203,156.28203,0,1,269.8016,0,0,9.771849,9.771849,0,5,255,0,0,0,1,0,166,0
True,26445187,15999.99,0,6013.7393,23.090483,-1.9357712,-15.595222,-9.127237,0.020922944,40.148663,0.0056424486,0.59679043,-0.03903156,1.0013268,0.070540115,-0.03973453,0.08827739,0.04265167,0.12030578,0.06311003,0.7071232,1.8940064,1.0639561,1.5387975,133.84225,142.99884,138.37744,139.89307,0,0,0,0,0,0,0,0,0,0.120000005,0,0,2.1997335,2.4292078,2.4842615,2.7240856,2.3105953,3.08031,2.7025096,3.1286643,-0.021837713,-0.027434457,-0.014589123,-0.021389274,164,6,231,2,0,3485.4968,193.44208,918.8618,41.173073,0,0,151.97658,150.74576,159.96832,159.96832,0,1,273.09256,0,0,9.871865,9.871864,0,5,255,0,0,0,1,59,158,0
True,26445312,15999.99,0,5796.612,22.849283,1.4410583,2.1695042,-9.547972,-0.07950361,39.679802,-0.043215077,0.5964965,-0.1252292,1.0817174,0.07062469,-0.03854937,0.37284097,0.07658406,0.2778816,0.06307958,0.4516357,0,0.68903744,1.1282322,129.28246,137.30476,133.94342,134.41988,0,0,0,0,0,0,0,0,0,0,0,0,2.258085,0,2.277512,2.6611152,2.3028076,0,2.3794608,2.8904052,0.013068672,-0.023272092,0.004145477,-0.021392895,164,6,231,2,0,3489.4663,193.09947,922.6538,40.812458,500276.84,826.08185,159.1984,152.27393,167.22015,167.22015,0,1,277.4105,0,0,10.006404,10.006402,0,5,255,0,0,0,1,105,152,0
True,26445421,15999.99,0,5683.3413,26.717976,5.340934,6.196594,-9.016839,0.3038114,39.78984,0.0090140775,0.4737666,-0.09765286,1.1371051,0.07169083,-0.04646906,0.6007753,0.09605689,0.48166147,0.30999672,0.23011975,1.2719582,0.4730622,0.753345,127.49088,134.93588,131.04356,131.5084,0,0,0,0,0,0,0,0,0,0,0,0,1.7380583,2.5550992,2.0122838,2.3050833,1.7532262,2.8541915,2.0671415,2.4250646,0.04102855,-0.02088343,0.02837339,0.007963724,164,6,231,2,0,3492.6611,192.85805,925.3052,40.79984,352389.12,592.2761,165.65771,153.67424,173.19885,173.19885,0,1,280.64938,0,0,10.108292,10.108288,0,5,255,0,0,0,1,10,149,0
True,26445531,15999.99,0,5720.938,26.93991,5.1351733,6.866641,-8.365418,0.41747254,39.930717,-0.12801671,0.57716286,-0.10343946,1.1925359,0.06711359,-0.054902244,0.6502681,0.16793895,0.45290726,0.30862376,0.2766568,1.1083304,0.53894913,0.8078899,129.11844,134.30408,132.42426,132.2649,0,0,0,0,0,0,0,0,0,0,0,0,1.6231008,2.1080263,2.0052023,2.1365266,1.64651,2.3816319,2.0763676,2.28417,0.04709965,-0.012065919,0.024954729,0.0078004897,164,6,231,2,0,3496.0845,192.65685,927.74054,40.799713,332857.1,555.3534,169.563,156.34044,177.32214,177.32214,0,1,285.04507,0,0,10.211451,10.211448,0,5,255,0,0,0,1,0,145,0
True,26445656,15999.99,0,5775.523,24.69894,3.18258,6.739342,-7.600212,0.2643367,40.218636,-0.060568146,0.46229208,-0.06668203,1.2632271,0.058096804,-0.062048923,0.5667892,0.20159562,0.50295454,0.4119731,0.24941236,1.2995192,0.503842,1.036056,129.098,136.91624,132.85051,134.32173,0,0,0,0,0,0,0,0,0,0,0,0.120000005,1.5428624,1.989818,1.8515882,2.3782914,1.5628918,2.3765786,1.9189153,2.594163,0.0368596,-0.007937375,0.030904979,0.020087961,164,6,231,2,0,3501.0164,192.4244,930.6706,40.931305,322268.12,533.849,172.06458,158.70502,181.6116,181.6116,0,1,289.56955,0,0,10.352019,10.352015,0,5,255,0,0,0,1,0,139,0
True,26445765,15999.99,0,5792.1904,23.328447,1.8589994,6.785758,-7.0719233,0.22592223,40.50076,-0.06732033,0.46174318,0.008357665,1.3107085,0.054429654,-0.057003886,0.49006218,0.38212195,0.43933314,0.20616713,0.39993206,0.8107209,0.4912971,0.99206424,131.71704,133.51157,133.72568,135.0577,0,0,0,0,0,0,0,0,0,0,0,0,1.5238202,1.7013565,1.6111335,2.0514743,1.5754281,1.8846438,1.6843764,2.278758,0.027447775,0.01420714,0.023340866,-0.0043808445,164,6,231,2,0,3504.7725,192.2634,932.53906,41.114166,347989.72,573.70856,172.84755,159.88312,183.74568,183.74568,-3.9852304,1,292.86746,0,0,10.454379,10.454373,0,5,255,0,0,0,1,0,135,0
True,26445875,15999.99,0,5833.1553,20.236591,0.3160972,6.563039,-6.821689,-0.057419717,40.839355,-0.0460676,0.41538268,-0.040503465,1.362609,0.050877795,-0.057768203,0.40587884,0.30121535,0.4235786,0.108798586,0.38731533,0.7909925,0.50108033,0.9599773,132.51416,134.50117,134.60063,136.13188,0,0,0,0,0,0,0,0,0,0,0,0,1.4661252,1.6400061,1.5554068,1.9805038,1.5164223,1.8207935,1.6341273,2.200898,0.017121311,0.004282616,0.021467768,-0.015957244,164,6,231,2,0,3509.2358,192.06789,934.4393,41.405216,369860.44,605.6337,172.89351,160.65889,185.51306,185.51306,-10.853424,1,297.9386,0,0,10.572066,10.572062,0,5,255,0,0,0,1,0,132,0
True,26445984,15999.99,0,5873.241,21.57351,0.6414356,7.0715833,-6.2953258,-0.21845454,41.23807,-0.053258922,0.409921,-0.041440085,1.4040565,0.048418444,-0.060278706,0.35630944,0.26957542,0.45454323,0.07715359,0.4247141,0.6041552,0.45247588,0.9876228,134.14952,134.00214,135.46822,137.5026,0,0,0,0,0,0,0,0,0,0,0,0,1.3637186,1.4400338,1.3602647,1.877217,1.4283243,1.5616341,1.4335461,2.1211655,0.0110408105,0.00040145963,0.025149234,-0.019719599,164,6,231,2,0,3513.16,191.88821,935.8508,41.71639,407121,662.0417,172.63525,161.03561,186.68304,186.68304,-14.7,1,301.20468,0,0,10.672523,10.672518,0,4,255,0,0,0,1,0,133,0
True,26446093,15999.99,0,5932.5435,21.325666,0.7682048,7.420949,-5.6730404,-0.41658306,41.77141,-0.04303548,0.36130577,-0.053940456,1.4494103,0.045274198,-0.063669935,0.31868732,0.23370387,0.48571637,0.06814239,0.40710023,0.6080033,0.4257915,0.9262191,135.47963,135.80025,136.68256,138.81694,0,0,0,0,0,0,0,0,0,0,0,0,1.2280567,1.3035032,1.2157692,1.6643009,1.293775,1.4383284,1.2881743,1.904673,0.0064258426,-0.0039987713,0.028855488,-0.020790964,164,6,231,2,0,3517.8145,191.66873,937.22296,42.15694,434466.3,699.5135,171.72438,160.82582,187.11453,187.11453,-14.7,1,305.02353,0,0,10.788375,10.788371,0,4,255,0,0,0,1,0,136,0
True,26446218,15999.99,0,5997.25,22.85853,1.4916126,8.502207,-4.684494,-0.47965807,42.46952,-0.0431625,0.3298445,-0.056564935,1.4894484,0.043121006,-0.06802732,0.2996091,0.22541068,0.4906936,0.10794889,0.34524274,0.56767446,0.36872098,0.8386823,136.82864,137.57208,138.09772,140.3191,0,0,0,0,0,0,0,0,0,0,0,0,1.0808556,1.1684804,0.9844282,1.3529217,1.1346548,1.2990769,1.0512155,1.5917869,0.0040855855,-0.005016066,0.029447243,-0.016058266,164,6,231,2,0,3522.587,191.44096,938.30975,42.72979,499840.78,796.18695,170.16425,159.94315,186.35147,186.35147,-14.7,1,308.88058,0,0,10.903855,10.903851,0,4,255,0,0,0,1,76,140,0
True,26446328,15999.99,0,6073.455,21.115114,0.48667425,7.916604,-3.7790322,-0.54200995,43.098446,0.023817683,0.23395965,-0.094605625,1.518259,0.043659,-0.07431308,0.26803932,0.12540668,0.46694311,0.1178548,0.44731843,0.775158,0.34836507,0.7145987,139.1289,141.38477,139.28514,141.2491,0,0,0,0,0,0,0,0,0,0,0,0,1.2880027,1.4054294,0.8149062,1.0628338,1.3634679,1.6050239,0.8862451,1.280729,0.00021303445,-0.017283197,0.026623487,-0.014880527,164,6,231,2,0,3526.8242,191.23604,939.01355,43.267204,461077.16,725.14545,168.95255,159.30357,184.42004,184.42004,-14.7,1,312.25726,0,0,11.003858,11.003854,0,3,255,0,0,0,1,117,141,0
True,26446421,15999.99,0,6142.6465,20.15978,-0.32677352,8.690512,-2.4975715,-0.5208241,43.94091,0.0028548352,0.13055803,-0.0904839,1.5374988,0.048046738,-0.083025694,0.27032664,0.06680206,0.40564886,0.1219109,0.20323895,0.5823977,0.3271186,0.626984,139.26213,142.82214,141.278,143.3311,0,0,0,0,0,0,0,0,0,0,0,0,0.51719064,0.5932829,0.5425617,0.6828269,0.55569077,0.8313673,0.6335454,0.9270175,0.00049361214,-0.024472015,0.019336056,-0.014398286,164,6,231,2,0,3531.431,190.9922,939.5491,44.014915,600583.25,933.8048,167.3197,158.13104,181.76993,181.76993,-14.7,1,316.65918,0,0,11.110338,11.110334,0,3,255,0,0,0,1,0,143,0
True,26446546,15999.99,0,6339.831,9.146887,2.2895403,9.834885,-1.2597823,-0.14343686,45.22255,0.047016356,-0.11512553,-0.030746968,1.5395746,0.050055202,-0.08314379,0.3456091,0.36579087,0.40728676,0.52124715,0.23241061,0.72057366,0.41838244,0.6022039,143.12828,146.6088,146.13173,148.37204,0,0,0,0,0,0,0,0,0,0.120000005,0,0.120000005,-0.39504316,-0.32155532,0.25366047,0.31902954,0.45833808,0.7890654,0.48927242,0.68149054,0.009728238,0.012203865,0.019530792,0.033079833,164,6,231,2,0,3536.8528,190.70346,939.9169,45.240314,604592.5,910.46326,164.98903,156.07596,178.70749,178.70749,-14.7,1,320.93307,0,0,11.232202,11.232198,0,3,255,0,0,0,1,-127,147,0
True,26446656,15999.99,0,6384.9673,1.8030802,0.19513956,10.824412,-0.07824254,-0.21946989,46.4925,-0.027092826,-0.24308404,0.028126065,1.5131135,0.045744315,-0.08163843,0.3240623,0.32747138,0.38470647,0.37412322,0.21465363,0.22113894,0.26919374,0.2250222,146.43393,147.65761,147.35077,148.01027,0,0,0,0,0,0,0,0,0,0,0,0,0.095317796,0.0975765,-0.048293386,-0.039645806,0.2348652,0.24170974,0.27349135,0.22848803,0.0070851706,0.0075033493,0.016846158,0.015587889,164,6,231,2,0,3542.112,190.43904,940.23694,46.493084,752703.5,1126.3893,162.91335,154.33664,175.8977,175.8977,-14.7,1,325.077,0,0,11.3472185,11.347214,0,3,255,0,0,0,1,0,153,0
True,26446750,15999.99,0,6524.6875,-1.9543631,0.7082438,10.8984785,0.29113746,-0.26288977,47.5529,-0.0266438,-0.061641183,0.025615294,1.4999704,0.042074185,-0.08050838,0.27580202,0.31060523,0.37426472,0.3778674,0.2338747,0.16622463,0.25793013,0.22101682,150.43173,149.94257,151.01242,150.89449,0,0,0,0,0,0,0,0,0,0,0,0,-0.04799729,-0.043811582,-0.08277978,-0.07138682,0.23874906,0.17190138,0.27088827,0.23225959,0.0011652559,0.0054344386,0.015604716,0.01603305,164,6,231,2,0,3546.6301,190.2158,940.51685,47.554516,752744.75,1102.4496,161.19879,152.87183,173.65121,173.65121,-14.7,1,328.63687,0,0,11.4435625,11.443559,0,3,255,0,0,0,1,0,158,0
True,26446859,15999.99,0,6695.35,-1.9426713,0.01658839,10.789545,0.13274717,-0.2806014,48.747627,0.008132898,0.004556169,0.030140271,1.4980876,0.041386086,-0.07685204,0.20252015,0.2508777,0.31215483,0.35266164,0.22483486,0.20392832,0.25925684,0.2571978,154.23676,153.93382,154.92712,154.90936,0,0,0,0,0,0,0,0,0,0,0,0,-0.033057928,-0.030617632,-0.029247392,-0.024741821,0.22725216,0.20621397,0.26090136,0.25838512,-0.007823966,-0.0018921196,0.008220311,0.013036266,164,6,231,2,0,3552.0286,189.95969,940.8867,48.74861,752771.06,1074.2285,159.32129,151.26811,171.17822,171.17822,-14.7,1,332.97665,0,0,11.556022,11.556019,0,3,255,0,0,0,1,0,165,0
True,26446984,15999.99,0,6815.0205,-0.6233896,2.3635597,10.386373,0.040395737,-0.32004407,49.94318,-0.13137314,0.0052321926,0.025188042,1.4992613,0.03584166,-0.07372005,0.25452623,0.29087466,0.29738322,0.32718432,0.11771033,0.11718386,0.17485519,0.17200372,156.78154,156.74454,157.75104,157.70587,0,0,0,0,0,0,0,0,0,0,0,0,-0.0098778615,-0.010668196,-0.007728648,-0.005906463,0.11812406,0.11766846,0.17502591,0.17210509,-0.001444567,0.0030141622,0.0064640753,0.010007203,164,6,231,2,0,3557.6067,189.70143,941.2839,49.94422,752570.7,1054.9755,157.55858,149.76833,168.85538,168.85538,0,1,337.3642,0,0,11.669433,11.669431,0,3,255,0,0,0,1,0,173,0
True,26447093,15999.99,0,6956.9585,0.033176497,7.397109,10.166643,0.02465272,-0.27934575,51.07532,-0.13214609,0.002289095,0.028354712,1.5009516,0.018487282,-0.07094499,0.3882288,0.45638052,0.47345442,0.49107698,0.123368174,0.11059719,0.13732949,0.13930252,160.37396,160.20694,160.86496,160.87816,0,0,0,0,0,0,0,0,0,0,0,0,-0.0072259908,-0.0059684874,-0.017430779,0.010585833,0.123579614,0.110758126,0.13843128,0.13970415,0.014956243,0.023316167,0.027397633,0.029492825,164,6,231,2,0,3563.3604,189.50978,941.6903,51.07609,752680.2,1033.691,155.91074,148.37045,166.69505,166.69505,0,1,341.88718,0,0,11.783648,11.783646,0,3,255,0,0,0,1,0,181,0
True,26447203,15999.99,0,7101.6675,2.0342784,4.9053707,9.423255,0.115630865,-0.23435652,52.00104,-0.05259689,0.09404258,0.067545064,1.5035788,0.010599711,-0.06580088,0.4504834,0.49143815,0.50572157,0.5421415,0.14200778,0.17796515,0.15952268,0.19087009,163.67381,163.69565,164.19826,164.17221,0,0,0,0,0,0,0,0,0,0,0,0,0.20708859,0.22080535,-0.022685371,0.022293508,0.25110137,0.28359583,0.16112763,0.19216761,0.02259279,0.02761656,0.031233959,0.03556402,164,6,231,2,0,3568.4143,189.41501,942.0371,52.001698,752681.1,1012.7162,154.57886,147.2411,164.95653,164.95653,0,1,345.862,0,0,11.881928,11.881926,0,3,255,0,0,0,1,123,188,0
True,26447312,15999.99,0,7359.2114,5.9359446,-1.617986,7.9920454,-0.4429872,-0.20830831,52.93803,0.098397955,0.29852927,0.04205558,1.5285617,0.016382532,-0.058571763,0.3015762,0.2870083,0.40850794,0.39334592,0.3225322,0.69667584,0.286254,0.42385352,169.23631,172.64072,169.25903,169.59462,0,0,0,0,0,0,0,0,0,0,0,0,0.634724,0.702447,0.14026307,0.16463329,0.7119702,0.9893376,0.31877118,0.45470423,0.00432688,0.002539888,0.019675978,0.017873328,164,6,231,2,0,3574.564,189.31723,942.39404,52.94029,627270.06,814.4029,153.19795,146.09373,163.00122,163.00122,-14.7,1,350.69327,0,0,11.999264,11.999264,0,3,255,0,0,0,1,127,194,0
True,26447437,15999.99,0,7478.418,9.068403,-4.8833737,6.783614,-1.5171702,-0.21945114,53.633545,0.047434524,0.42512745,0.05777227,1.5678502,0.03057373,-0.052570205,0.18150648,0.17085461,0.29282942,0.27832097,0.24877886,0.5714639,0.3232664,0.612772,170.75337,172.92793,172.43143,173.93027,0,0,0,0,0,0,0,0,0,0,0,0,0.7856068,0.89433044,0.3627699,0.41531783,0.8240564,1.0613189,0.48590448,0.74025565,-0.010401636,-0.011708263,0.005922664,0.0041977093,164,6,231,2,0,3580.7998,189.14839,942.65784,53.655445,589136,752.273,152.07878,145.22217,161.24016,161.24016,-14.7,1,355.59317,0,0,12.116395,12.116395,0,3,255,0,0,0,1,127,198,6
True,26447531,15999.99,0,6842.461,17.242208,-1.2604299,-4.861492,-2.08184,-0.098499306,53.011898,0.10331793,0.40449914,0.05319726,1.6134052,0.0357472,-0.04375162,0.20298345,0.14530382,0.26370004,0.2037766,-0.017859811,-1.4890654,-0.19489956,-0.20447539,164.2823,143.88603,161.01915,159.28833,0,0,0,0,0,0,0,0,0,0,0,0,0.91668713,1.1183519,0.44028223,0.5127408,0.91686106,1.8622638,0.4814917,0.55200845,-0.0077671334,-0.014842488,0.002459392,-0.004665062,164,6,231,2,0,3586.1418,188.96289,942.73224,53.052856,475720.38,662.41144,151.38791,144.58937,159.95694,159.95694,0,1,359.79074,0,0,12.216224,12.216223,0,3,0,255,0,0,1,127,200,129
True,26447640,15999.99,0,6722.695,9.921157,-6.1951303,-8.364126,-3.253903,0.11410414,51.767193,0.116867006,0.42534927,-0.0072383424,1.6552055,0.056185555,-0.043455917,0.14736067,0.078893654,0.12473752,0.07957028,-0.2820669,-0.3895001,-0.5848383,-0.30767104,157.10219,153.4371,154.21117,156.29033,0,0,0,0,0,0,0,0,0,0,0,0,1.1591156,1.2948211,0.7707668,0.8663327,1.192942,1.3521361,0.96753156,0.91934425,-0.014590183,-0.022988783,-0.014062222,-0.019432273,164,6,231,2,0,3592.2102,188.7015,942.6502,51.869484,667758.6,954.1272,151.14871,144.7442,158.87602,158.87602,0,1,364.6785,0,0,12.332167,12.332166,0,3,255,112,0,0,1,127,202,200
True,26447750,15999.99,0,7279.1157,18.92067,-1.3382752,3.2859821,-4.2003393,-0.05785477,52.009174,-0.08246118,0.5834525,0.06354789,1.7161311,0.05700906,-0.033645544,0.27204022,0.15590894,0.18820758,0.08530717,0.24566501,0.8599052,0.28104067,0.5875376,165.84349,170.69997,167.61186,168.42595,0,0,0,0,0,0,0,0,0,0,0,0,1.1677023,1.4649804,0.81180245,1.0037936,1.1932644,1.6987066,0.8590734,1.1631002,0.0007038079,-0.013541594,-0.0065161027,-0.018750198,164,6,231,2,0,3598.0486,188.3832,942.40625,52.17854,527121.3,691.5981,151.6409,145.37488,157.82224,157.82224,0,1,369.27505,0,0,12.444816,12.444816,0,3,255,0,0,0,1,119,201,0
True,26447875,15999.99,0,7350.7505,22.326197,0.43703693,6.871413,-4.3959675,-0.14183627,52.51928,0.013161764,0.36295226,-0.024740908,1.7699614,0.054941863,-0.029075876,0.34130853,0.16530074,0.3899895,0.24175687,0.19394648,0.7477897,0.31802636,0.5863354,166.89316,172.15665,169.29169,170.48883,0,0,0,0,0,0,0,0,0,0,0,0,0.7049193,0.8319236,0.8138342,0.98411983,0.73111314,1.1186091,0.8737659,1.1455483,0.009200703,-0.012389539,0.017474275,-0.00014948845,164,6,231,2,0,3603.8975,188.06094,941.87213,52.70313,566057.94,735.5072,151.5232,145.56726,157.08267,157.08267,0,1,373.89276,0,0,12.557009,12.55701,0,3,255,0,0,0,1,0,199,0
True,26447984,15999.99,0,7428.341,21.157063,-0.82032686,7.7357707,-3.648655,-0.15744579,53.24303,0.0040495554,0.19792232,0.009705253,1.8010534,0.057662193,-0.028328853,0.23963906,0.08659648,0.31648102,0.14537509,0.18518847,0.632522,0.31697068,0.55023634,168.59326,173.54675,171.0624,172.56891,0,0,0,0,0,0,0,0,0,0,0,0,0.60143614,0.7108437,0.6599935,0.7983713,0.6293013,0.95151603,0.7321625,0.96961683,-0.003270723,-0.022043904,0.008734658,-0.011608569,164,6,231,2,0,3609.8413,187.72029,941.0389,53.36813,615840.1,791.8571,150.80484,144.89459,156.3404,156.3404,0,1,378.90344,0,0,12.670365,12.670366,0,3,255,0,0,0,1,0,198,0
True,26448078,15999.99,0,7487.4473,20.296312,-1.0823007,8.021439,-2.211053,-0.23950756,53.98181,-0.0023393692,0.06603451,-0.04552318,1.8114704,0.05860019,-0.028747942,0.28772962,0.07672981,0.3052292,0.123931706,0.17492089,0.5812953,0.28145337,0.4316518,170.28955,175.24173,172.34677,173.65701,0,0,0,0,0,0,0,0,0,0,0,0,0.5874074,0.68749845,0.4005643,0.46811792,0.6128987,0.90031016,0.48955876,0.6367556,0.0026283711,-0.023254214,0.007396903,-0.014158027,164,6,231,2,0,3614.9915,187.40451,940.0914,54.027607,669097.25,853.5223,150.20132,144.33064,155.64473,155.64473,0,1,383.02567,0,0,12.768075,12.768076,0,3,255,0,0,0,1,127,197,0
True,26448203,15999.99,0,7542.6987,19.778664,1.692853,9.040693,-0.9465151,-0.31418514,54.971363,-0.059965305,0.2707295,-0.049851112,1.8292611,0.054401696,-0.03337213,0.32599515,0.13175847,0.40730542,0.18305558,0.15466082,0.3780047,0.14933632,0.2753167,173.46094,175.17099,173.95654,174.3025,0,0,0,0,0,0,0,0,0,0,0,0,0.64239645,0.7562599,0.19504341,0.23891449,0.660752,0.8454683,0.24564868,0.36452627,0.0073222667,-0.016504047,0.019533012,-0.0071286373,164,6,231,2,0,3621.0103,187.02547,938.74194,54.9804,752479.75,952.9541,149.62961,143.7522,154.73705,154.73705,0,1,387.8827,0,0,12.881445,12.881447,0,3,255,0,0,0,1,127,199,0
True,26448312,15999.99,0,7711.342,17.737045,1.1521592,8.611761,-1.1826143,-0.25409448,55.858204,0.023227725,0.41399753,-0.021647112,1.8709477,0.05374827,-0.03433361,0.32401282,0.12836461,0.37840605,0.2215227,0.17732966,0.58393973,0.19256523,0.36178452,176.79314,180.3478,177.66866,177.99074,0,0,0,0,0,0,0,0,0,0,0,0,0.69451284,0.83745474,0.2718104,0.31260344,0.7167942,1.0209388,0.33311,0.47813067,0.007079102,-0.01692036,0.016097084,-0.0025551803,164,6,231,2,0,3627.127,186.6599,937.1069,55.871296,717468.9,888.8984,149.10797,143.23877,153.84749,153.84749,0,1,393.14325,0,0,12.995833,12.995835,0,3,255,0,0,0,1,127,202,0
True,26448421,15999.99,0,7770.991,21.923496,2.4075475,8.8180275,-1.8206253,-0.24136579,56.5931,-0.08689329,0.5755118,0.007029591,1.9218376,0.051787496,-0.03252984,0.37223226,0.18034197,0.41603488,0.21515143,0.09923308,0.32836005,0.1406551,0.3455427,178.64096,178.87485,179.8145,179.88733,0,0,0,0,0,0,0,0,0,0,0,0,0.2849542,0.34347406,0.35817719,0.44638625,0.30173844,0.47517866,0.38480482,0.56450015,0.012994006,-0.010544483,0.020570878,-0.0033126771,164,6,231,2,0,3632.4377,186.34213,935.4764,56.622894,752317.5,924.41016,148.78738,142.88675,153.1867,153.1867,0,1,397.5065,0,0,13.094761,13.094763,0,3,255,0,0,0,1,0,207,0
True,26448531,15999.99,0,7897.0693,22.7285,2.7038636,9.2074,-1.886898,-0.22612584,57.516937,-0.025201974,0.28409016,-0.014077401,1.9727305,0.046791233,-0.030408232,0.4268534,0.23341542,0.47107804,0.26520848,0.11244706,0.31166482,0.1717445,0.32315525,181.0575,182.5456,182.38977,182.99284,0,0,0,0,0,0,0,0,0,0,0,0,0.24368425,0.28553084,0.3306926,0.40313935,0.26837727,0.42268527,0.37263086,0.5166727,0.019694183,-0.004034154,0.0271151,0.0026387386,164,6,231,2,0,3638.8064,185.99391,933.18353,57.54832,752256.7,909.9838,148.14658,142.25449,152.56355,152.56355,-1.384018,1,402.83035,0,0,13.21347,13.213472,0,3,255,0,0,0,1,0,211,0
True,26448640,15999.99,0,7958.9126,18.839437,2.656996,8.824301,-0.99316406,-0.26395178,58.360603,-0.06411878,0.05281033,-0.05715161,1.9889024,0.042526096,-0.03217619,0.43221804,0.23790477,0.5215205,0.30824313,0.096585795,0.1774027,0.14144279,0.18994807,182.9099,183.77966,183.89775,184.21693,0,0,0,0,0,0,0,0,0,0,0,0,0.15062538,0.16982803,0.1443463,0.1840523,0.17893244,0.24558762,0.20209382,0.26449105,0.020352244,-0.003483463,0.033112332,0.007755235,164,6,231,2,0,3644.1497,185.71408,931.00964,58.36964,752477.06,903.10706,147.62274,141.74568,151.98978,151.98978,-4.541525,1,407.49313,0,0,13.313107,13.313108,0,3,255,0,0,0,1,0,213,0
True,26448750,15999.99,0,8110.313,7.5155225,1.2553027,8.068506,-0.17610359,-0.26111126,59.277348,0.063348696,-0.028674725,-0.035885356,1.9885771,0.03954122,-0.038831037,0.3493337,0.2741892,0.49624366,0.36911196,0.24101998,0.23352362,0.1848028,0.1834592,187.61421,187.59398,187.10631,187.17628,0,0,0,0,0,0,0,0,0,0,0,0,0.040949542,0.04413799,0.00688406,0.029384412,0.24447392,0.23765825,0.18493098,0.18579754,0.0101851225,0.0009674169,0.030107103,0.014992088,164,6,231,2,0,3650.3105,185.41739,928.33124,59.278183,752774.44,886.89355,146.97186,141.15671,151.26888,151.26888,-8.599011,1,412.76993,0,0,13.427383,13.427385,0,3,255,0,0,0,1,0,217,0
True,26448859,15999.99,0,8212.192,-1.5084376,-1.9558048,7.999025,0.038898468,-0.2825756,60.06697,-0.015365498,-0.1868518,-0.05315923,1.9796516,0.043785978,-0.04269597,0.27771175,0.25780016,0.323504,0.27357548,0.20040467,0.12763394,0.2397961,0.18115158,189.14171,188.91714,189.99638,189.99525,0,0,0,0,0,0,0,0,0,0,0,0,-0.34116057,-0.3094737,-0.042372435,-0.038364965,0.39566725,0.3347602,0.24351096,0.18516956,0.0013995171,-0.0010429658,0.0095696375,0.0036335066,164,6,231,2,0,3655.6838,185.14201,925.9753,60.06765,752322.56,874.98303,146.44832,140.6999,150.64417,150.64417,0,1,417.37964,0,0,13.525811,13.525813,0,3,255,0,0,0,1,-127,223,0
True,26448953,15999.99,0,8332.47,-6.351035,-0.46226323,7.767091,0.6638832,-0.294958,60.817787,0.06741213,-0.16615893,0.034179922,1.9561167,0.04230566,-0.0452001,0.22012816,0.27226534,0.32250422,0.36262178,0.31948125,0.17418423,0.23858203,0.17409666,193.23045,191.92874,192.41676,192.2948,0,0,0,0,0,0,0,0,0,0,0,0,-0.07985646,-0.07273515,-0.14682096,-0.13326427,0.3293104,0.18876056,0.28013885,0.21924648,-0.0056640543,0.0007314235,0.009450775,0.014220454,164,6,231,2,0,3661.2302,184.85603,923.6192,60.822117,752812.44,863.26245,145.98431,140.32614,150.0708,150.0708,0,1,422.11212,0,0,13.625591,13.625592,0,3,255,0,0,0,1,0,230,0
True,26449078,15999.99,0,8426.318,-6.3726845,-1.7558256,7.9889092,0.56487846,-0.32658243,61.742863,-0.0031097517,-0.027685648,0.022813784,1.9454768,0.046188228,-0.042581066,0.18215105,0.27291378,0.24432744,0.32601127,0.18655235,0.12409634,0.19444206,0.16641591,194.5862,193.77043,194.93732,194.72412,0,0,0,0,0,0,0,0,0,0,0,0,-0.09244766,-0.085410945,-0.0983636,-0.09154116,0.20820266,0.15064837,0.2179062,0.18993168,-0.010322571,0.0008109659,0.00015613437,0.009867735,164,6,231,2,0,3667.89,184.49161,920.8831,61.74631,752269.44,852.6942,145.42787,139.83856,149.4342,149.4342,0,1,427.763,0,0,13.743217,13.743218,0,3,255,0,0,0,1,0,240,0
True,26449187,15999.99,0,8538.965,-3.3779156,-0.49956644,7.7626085,0.11861992,-0.336735,62.649536,-0.0024560988,0.01772551,0.06398309,1.9462178,0.046782672,-0.03707364,0.17889792,0.30543345,0.26597032,0.3216117,0.14803015,0.12354198,0.16721316,0.16804485,196.9612,196.47223,197.48415,197.44868,0,0,0,0,0,0,0,0,0,0,0,0,-0.027948694,-0.025314083,-0.018447857,-0.016648423,0.15064546,0.12610878,0.16822772,0.16886753,-0.010721622,0.0048000365,0.0027293116,0.0093446635,164,6,231,2,0,3674.7332,184.10776,918.15393,62.65055,752273.75,841.5144,144.8893,139.37631,148.82834,148.82834,0,1,433.54248,0,0,13.86181,13.861812,0,3,255,0,0,0,1,0,251,0
True,26449312,15999.99,0,8686.334,-0.44184446,-2.5045846,7.328718,-0.027359009,-0.32344866,63.528008,0.033363666,0.012141649,0.05220963,1.9480419,0.051534794,-0.029478809,0.15842997,0.2208747,0.24029338,0.3146968,0.15053996,0.1508074,0.2232405,0.22934087,199.66206,199.61389,201.11795,201.14322,0,0,0,0,0,0,0,0,0,0,0,0,-0.0013455398,-9.15667E-05,0.003475828,0.005513685,0.15054597,0.15080743,0.22326756,0.22940713,-0.01323235,-0.005572479,-0.00032348558,0.008522529,164,6,231,2,0,3681.7576,183.70013,915.37537,63.528835,752262.6,827.1093,144.37239,138.92726,148.25726,148.25726,0,1,439.467,0,0,13.981707,13.981708,0,3,255,0,0,0,1,0,7,0
True,26449421,15999.99,0,8753.674,0.3401823,0.16561846,7.299946,-0.039001465,-0.36462134,64.30015,-0.00022481754,0.0039883824,0.06160935,1.9488647,0.050189782,-0.023267072,0.19196555,0.25427276,0.22950259,0.30389503,0.13419423,0.1479493,0.142167,0.14260231,201.8874,202.0975,202.2554,202.25151,0,0,0,0,0,0,0,0,0,0,0,0,0.0015316787,0.0035158372,0.003246465,0.0043966295,0.13420297,0.14799106,0.14220406,0.14267008,-0.009118661,-0.001475662,-0.0016064309,0.0072382763,164,6,231,2,0,3687.88,183.32727,912.95135,64.30119,752274.56,820.961,143.96869,138.57957,147.8113,147.8113,0,1,444.63284,0,0,14.084867,14.0848675,0,3,255,0,0,0,1,0,18,0
True,26449531,15999.99,0,8867.602,0.25296855,-1.0299854,7.39173,-0.02360344,-0.3506769,65.15523,-0.031908866,0.000777349,0.06371853,1.9490008,0.05309682,-0.01629053,0.16510242,0.24804771,0.24356645,0.2900228,0.11190539,0.10975454,0.1530376,0.15546332,204.20027,204.16908,205.10645,205.13748,0,0,0,0,0,0,0,0,0,0,0,0,0.0006411703,0.0011203849,0.0005190123,0.0009975813,0.11190722,0.109760255,0.15303847,0.15546653,-0.012413863,-0.0022392645,6.565824E-05,0.005588975,164,6,231,2,0,3695.0098,182.88495,910.12354,65.15617,752271.3,810.18164,143.52696,138.19922,147.3259,147.3259,0,1,450.65082,0,0,14.203562,14.203563,0,3,255,0,0,0,1,0,30,0
True,26449640,15999.99,0,8990.089,0.17445993,-0.5942659,7.0074415,-0.0117435455,-0.32029855,65.86992,0.041087594,-0.00043043646,0.031855,1.9490384,0.053593464,-0.012077919,0.18840002,0.23383358,0.2751133,0.30869144,0.15309323,0.13274623,0.19335832,0.19813797,207.01553,206.68274,208.01154,208.06763,0,0,0,0,0,0,0,0,0,0,0,0,-0.0002507151,0.0014060622,0.00030989404,0.0014045296,0.15309344,0.13275367,0.19335857,0.19814295,-0.009556033,-0.0039828606,0.0038163438,0.00780854,164,6,231,2,0,3701.2402,182.49759,907.6503,65.87069,752260.75,799.34235,143.16914,137.88943,146.94571,146.94571,0,1,455.91013,0,0,14.306033,14.306034,0,3,255,0,0,0,1,0,41,0
True,26449750,15999.99,0,9104.985,0.05352521,-1.403625,7.1120405,-0.015439987,-0.3220234,66.71809,0.035063535,0.00047258264,0.04974711,1.9490391,0.056020208,-0.0061501865,0.15646668,0.21524888,0.24915186,0.3038465,0.14038152,0.15090954,0.19326623,0.19294876,209.47386,209.64273,210.6565,210.66951,0,0,0,0,0,0,0,0,0,0,0,0,-0.0005331667,0.0007553458,-0.0003036218,0.000880476,0.14038253,0.15091144,0.19326647,0.19295077,-0.013473181,-0.006262578,0.00072972104,0.0072325133,164,6,231,2,0,3708.5413,182.0297,904.75104,66.718864,752251.94,789.1815,142.78015,137.55887,146.52573,146.52573,0,1,462.07434,0,0,14.424716,14.424717,0,3,255,0,0,0,1,0,53,0
True,26449875,15999.99,0,9187.381,0.0033853054,0.90613115,7.0712614,-0.020906448,-0.3583082,67.56324,-0.00015413761,0.00019421062,0.05328094,1.9491049,0.054081768,-0.0007034428,0.25445658,0.29895797,0.2945272,0.32582542,0.12830137,0.12629576,0.13040629,0.13115753,211.9657,211.96547,212.29562,212.2905,0,0,0,0,0,0,0,0,0,0,0,0,-0.00035918376,0.001810487,0.0008775536,0.0021895217,0.12830186,0.12630874,0.13040924,0.13117582,-0.0014531128,0.0040057153,0.0061245114,0.0098456405,164,6,231,2,0,3715.8958,181.54909,901.8308,67.564186,752261.9,782.17535,142.4311,137.26683,146.14986,146.14986,-3.7267332,1,468.28506,0,0,14.542761,14.542763,0,3,255,0,0,0,1,0,66,0
True,26449968,15999.99,0,9288.111,0.094142914,-0.43367535,6.8751397,-0.015153885,-0.3217367,68.2581,-0.015357271,-0.0009817099,0.026892211,1.9490484,0.055794932,0.0029417593,0.20911618,0.2456832,0.28312188,0.32856655,0.11659745,0.11062801,0.15200329,0.1534058,213.96703,213.87814,214.80327,214.83495,0,0,0,0,0,0,0,0,0,0,0,0,0.0009591903,0.0018253429,0.0010885256,0.002776279,0.11660139,0.11064307,0.15200718,0.15343092,-0.0070148557,-0.002529312,0.0047685094,0.010171544,164,6,231,2,0,3722.2505,181.1377,899.3072,68.25886,752350.8,773.6574,142.14647,137.02441,145.84395,145.84395,-14.7,1,473.65073,0,0,14.643624,14.643625,0,3,255,0,0,0,1,0,77,0
True,26450093,15999.99,0,9428.632,1.637493,-1.7394918,6.415812,-0.025651932,-0.3313396,69.02008,0.056019098,0.09099228,0.049749687,1.9516943,0.05784208,0.0078809075,0.14925276,0.17874421,0.24191375,0.25851345,0.15406235,0.21113367,0.17782032,0.21207218,217.10057,217.64807,217.86414,218.04123,0,0,0,0,0,0,0,0,0,0,0,0,0.24926066,0.26364806,0.015829567,0.017359862,0.29302916,0.33776876,0.1785235,0.21278152,-0.014358085,-0.010740476,-0.00013083592,0.0018427446,164,6,231,2,0,3729.7087,180.64958,896.3401,69.02088,752265.94,762.1685,141.84204,136.76733,145.5199,145.5199,-14.7,1,479.9501,0,0,14.760749,14.760751,0,3,255,0,0,0,1,74,89,0
True,26450187,15999.99,0,9471.518,7.432613,-0.5641972,6.7913733,-0.58460045,-0.39505103,69.660416,-0.025470199,0.23990493,0.11096475,1.9720732,0.057672728,0.0194341,0.18777981,0.2434255,0.22007251,0.27486265,0.088209175,0.130784,0.1115566,0.16409504,218.45703,218.02371,219.12074,218.90001,0,0,0,0,0,0,0,0,0,0,0,0,0.025896277,0.028914532,0.10604898,0.114062816,0.09193191,0.13394217,0.15391965,0.19984372,-0.009632111,-0.0028062537,-0.002727598,0.0037865452,164,6,231,2,0,3736.0798,180.20987,893.74475,69.663994,752385.4,758.7029,141.7189,136.66254,145.28168,145.28168,-14.7,1,485.35074,0,0,14.86015,14.860154,0,3,255,0,0,0,1,0,98,0
True,26450312,15999.99,0,9574.925,6.8366575,-0.67603767,6.3072863,-0.59762573,-0.30658695,70.47424,-0.060090207,0.030097669,0.0278448,1.98571,0.058935378,0.03003141,0.33981654,0.2514338,0.3930252,0.27242547,0.07169863,0.11678076,0.06561066,0.20141576,220.23611,220.82852,220.77164,222.12943,0,0,0,0,0,0,0,0,0.120000005,0,0.120000005,0,0.0683638,0.075219914,0.06998256,0.08505751,0.09906716,0.13890925,0.09592871,0.21863918,0.009017687,-0.0018239059,0.017835196,0.003496781,164,6,231,2,0,3744.4707,179.62979,890.19464,70.47745,751481.25,749.18964,141.48277,136.42358,145.03606,145.03606,-14.7,1,492.51083,0,0,14.990442,14.990445,0,3,255,0,0,0,1,0,108,0
True,26450421,15999.99,0,9653.234,3.8939447,0.61949915,6.1162314,-0.17968178,-0.22499128,71.059204,0.030858453,-0.029120045,-0.09798582,1.9848186,0.057122443,0.0315176,0.22691585,0.27602386,0.33923033,0.33903223,0.08679532,0.14972138,0.107651584,0.14689077,222.31378,223.08206,223.38841,222.74347,0,0,0,0,0,0,0,0,0.120000005,0,0.120000005,0,0.03204267,0.035612326,0.018107988,0.024954813,0.09252113,0.15389845,0.109163925,0.14899544,-0.0048314333,0.0011924691,0.011439387,0.0114158355,164,6,231,2,0,3750.749,179.20981,887.4677,71.05979,751659.06,743.0054,141.33945,136.26117,144.9254,144.9254,-14.7,1,497.866,0,0,15.0873575,15.08736,0,3,255,0,0,0,1,0,114,0
True,26450531,15999.99,0,9780.078,0.20269704,-2.1698418,5.973206,0.12264824,-0.33030745,71.71153,-0.03766594,-0.04077008,-0.048312224,1.9803624,0.059413582,0.027930621,0.19211277,0.20111173,0.20804155,0.2820765,0.08453156,0.1628469,0.14611524,0.26404458,224.3327,225.95,224.74496,227.77133,0,0,0,0,0,0,0,0,0.120000005,0,0.120000005,0,-0.002265308,-0.007630072,-0.018760907,-0.02178322,0.08456191,0.16302554,0.14731476,0.26494157,-0.009100601,-0.0079967305,-0.00415799,0.004644215,164,6,231,2,0,3758.1204,178.70961,884.24713,71.7124,750226.06,731.21106,141.19016,136.08717,144.78192,144.78192,-14.7,1,504.18896,0,0,15.200284,15.200288,0,3,255,0,0,0,1,0,123,0
True,26450656,15999.99,0,9863.838,-1.8454027,3.175659,6.176071,0.14894867,-0.36361977,72.37688,-0.01612813,-0.030142268,0.0813376,1.9765114,0.055347934,0.0320861,0.24343936,0.35683724,0.36426002,0.39991418,0.25879985,0.07243053,0.22039686,0.07114362,229.389,226.07797,229.05412,226.61952,0,0,0,0,0,0,0,0,0.120000005,0,0.120000005,0,-0.029381203,-0.015110899,-0.0505969,-0.017394956,0.2604623,0.07399,0.2261301,0.07323933,-0.002804555,0.011105556,0.014415231,0.018654242,164,6,231,2,0,3765.6802,178.19008,880.9642,72.37794,753903.44,731.6043,141.12714,135.94455,144.6509,144.6509,0,1,510.66705,0,0,15.314879,15.314884,0,3,255,0,0,0,1,0,127,0
True,26450750,15999.99,0,9972.578,-1.8320967,0.33844858,5.463643,0.21689606,-0.38540724,72.926506,-0.014668696,-0.038530022,0.039296485,1.9730731,0.054901972,0.029810378,0.17420119,0.27386287,0.26106027,0.3614213,0.10163461,0.11711024,0.25792006,0.2629546,227.92511,229.19481,230.19792,232.32068,0,0,0,0,0,0,0,0,0.120000005,0,0.120000005,0,-0.019410258,-0.024069576,-0.036746673,-0.034908544,0.1034715,0.119558156,0.26052463,0.26526162,-0.011297751,0.00092738867,0.0021455437,0.014077723,164,6,231,2,0,3772.3005,177.7605,878.1131,72.92785,752256,718.97003,140.99712,135.81769,144.55124,144.55124,0,1,516.5447,0,0,15.414252,15.414257,0,3,255,0,0,0,1,0,127,0
True,26450875,15999.99,0,10010.233,-4.037176,-0.16627043,5.847213,0.10750198,-0.57092124,73.617195,-0.08802764,-0.098177545,0.08185594,1.9682977,0.0538097,0.041222654,0.25293586,0.295559,0.19004473,0.35369045,0.106416434,0.11630117,0.11934982,0.16089639,230.96774,231.12448,230.48715,232.02226,0,0,0,0,0,0,0,0,0.120000005,0,0.120000005,0,-0.18962134,-0.16568846,-0.027194293,-0.026620971,0.21744128,0.20243178,0.122408785,0.16308379,-0.001639653,0.0035887733,-0.0062976778,0.013158582,164,6,231,2,0,3780.1453,177.23557,874.76886,73.619484,752261.25,717.02216,140.89566,135.68216,144.40305,144.40305,0,1,523.2546,0,0,15.530839,15.530845,0,3,255,0,0,0,1,-104,127,0
True,26450984,15999.99,0,9500.1,-11.902693,2.1338937,-7.4540205,0.62096786,-0.13214791,72.9343,0.09805575,-0.32050884,-0.109166965,1.9419147,0.055615142,0.03635043,0.2515833,0.34270883,0.19490682,0.37369847,-0.71172994,-0.38335082,-0.13228199,-0.20674165,213.44624,217.2559,220.72583,222.4543,0,0,0,0,0,0,0,0,0.120000005,0,0.120000005,0,-0.63896126,-0.5297609,-0.10481063,-0.12242633,0.956468,0.65391475,0.16877142,0.24027133,-0.0018055663,0.009372473,-0.0057196133,0.015537389,164,6,231,2,0,3788.1514,176.7265,871.4746,72.937065,534086.56,537.70087,140.80954,135.77571,144.3039,144.3039,-6.8648405,1,530.55414,0,0,15.648614,15.64862,0,3,133,255,0,0,1,-127,127,129
True,26451078,15999.99,0,9245.892,-18.803158,1.6654123,-20.23292,1.4755173,0.64553237,70.527176,0.04712668,-0.47111145,-0.2465989,1.9024804,0.0647272,0.030019667,0.30609488,0.49526727,0.13304318,0.34963134,-0.21385817,-0.31660706,-0.034755334,-0.39312238,211.916,215.81537,213.75105,212.9439,0,0,0,0,0,0,0,0,0.120000005,0,0.120000005,0,-0.6875621,-0.5891519,-0.18942915,-0.23898774,0.72005343,0.6688348,0.19259112,0.46006557,0.0048811734,0.028086267,-0.013074741,0.012675989,164,6,231,2,0,3794.8164,176.3202,868.91315,70.545555,114674.734,118.85478,140.85773,136.15845,144.17116,144.17116,-8.487476,1,536.16125,0,0,15.748215,15.74822,0,3,0,255,0,0,1,-127,127,129
True,26451203,15999.99,0,8370.439,-23.686392,1.2347665,-21.113543,3.190279,0.95830536,67.9555,-0.04935575,-0.5795751,0.011491552,1.8384885,0.06828526,0.00958582,0.21953687,0.51885927,0.07120631,0.28875324,-0.24530958,-0.5098762,0,-0.19278371,203.4629,198.65031,170.66724,207.5774,0,0,0,0,0,0,0,0,0.120000005,0,0,0,-1.2362177,-0.8993384,0,-0.5037119,1.2603219,1.0338198,0,0.5393433,-0.0057365857,0.030980207,-0.020426687,0.0054380298,164,6,231,2,0,3802.423,175.88564,866.2826,68.03709,-88195.78,-100,140.9573,136.82639,144.11606,144.11606,0,1,542.4909,0,0,15.864543,15.864548,0,3,0,255,0,0,1,-127,124,129
True,26451312,15999.99,0,7541.347,-20.332445,-2.279332,-14.821308,5.552602,0.48718,66.04154,-0.08572555,-0.7031185,0.18940854,1.7736417,0.06662003,0.013811528,0.14886792,0.48038214,0.03821756,0.29711094,-0.3913933,-0.62557673,0,-0.45821103,191.49661,190.01453,133.50073,196.88,0,0,0,0,0,0,0,0,0.120000005,0,0.120000005,0,-1.0657471,-1.2097791,0,-0.89416176,1.1353438,1.3619515,0,1.0047301,-0.0144052915,0.026260361,-0.024348805,0.0064317025,164,6,231,2,0,3808.9736,175.50414,864.2517,66.276344,-73619.71,-92.59252,141.32315,138.00266,143.82349,143.82349,0,1,548.4095,0,0,15.966956,15.96696,0,3,0,255,0,0,1,-127,113,129
True,26451406,15999.99,0,8644.903,-27.627184,1.814991,-11.42307,7.5411153,0.5407146,64.037,-0.001221932,-0.73940194,0.052959077,1.6962104,0.06318305,0.0109053785,0.19905993,0.5069059,0.12956218,0.4032759,0.04570083,0.001780818,0.17611697,-0.013573746,197.46283,200.05586,199.7071,200.55583,0,0,0,0,0,0,0,0,0,0,0,0,-1.3395492,-1.0621513,-1.440257,-1.1482568,1.3403286,1.0621529,1.450985,1.148337,-0.008248419,0.029513933,-0.013488606,0.019053929,164,6,231,2,0,3815.4668,175.13748,862.49756,64.481766,243208.6,268.95932,142.84763,140.8729,145.24161,145.24161,0,1,553.6775,0,0,16.070433,16.070438,0,2,133,0,0,0,1,0,101,0
True,26451546,15999.99,0,8963.729,-24.755505,0.74895734,3.5866761,10.5569515,0.2799587,63.566586,-0.025867335,-0.69352293,0.06835138,1.5937216,0.06010531,0.014387729,0.14806709,0.4454365,0.119172834,0.40321606,0.7487381,0.2607637,0.6825647,0.3939272,208.22534,204.19148,207.7816,207.11464,0,0,0,0,0,0,0,0,0,0,0,0,-1.6500413,-1.3496114,-1.8584064,-1.5725871,1.8119727,1.3745722,1.9797901,1.6211752,-0.014503527,0.021973707,-0.0147238225,0.019046813,164,6,231,2,0,3824.171,174.66884,860.60675,64.43787,503135.7,536.0626,144.29445,142.61111,148.16852,148.16852,0,1,560.678,0,0,16.208931,16.208935,0,2,255,0,0,0,1,0,85,0
True,26451656,15999.99,0,8951.203,-25.092445,1.3986171,5.6262417,12.183273,0.21129568,63.30951,0.024345458,-0.55996734,0.07736022,1.525925,0.059070747,0.017538168,0.16665818,0.42756012,0.15389307,0.43830234,0.81995517,0.4198443,0.70927536,0.39648354,207.93909,204.88293,207.30894,206.47668,0,0,0,0,0,0,0,0,0,0,0,0,-2.2185142,-1.9528838,-2.1467583,-1.6932038,2.3651917,1.9975046,2.2608943,1.739005,-0.012223026,0.019780874,-0.010595843,0.023218311,164,6,231,2,0,3830.8372,174.31786,859.4914,64.47147,446436.1,476.31293,147.16951,145.92984,152.08125,152.08125,0,1,566.32733,0,0,16.313923,16.313925,0,2,255,0,0,0,1,-127,72,0
True,26451765,15999.99,0,8906.026,-23.806229,0.8674996,4.793844,13.387263,0.19906934,62.973618,-0.022681959,-0.55090475,0.026467323,1.468187,0.060641788,0.020634467,0.14843361,0.39059526,0.17000619,0.3916949,0.9813426,0.45550498,0.66994387,0.4284257,207.55548,203.0063,206.10052,205.69228,0,0,0,0,0,0,0,0,0,0,0,0,-2.848945,-2.420491,-2.2359765,-1.9142003,3.0132244,2.4629781,2.3341842,1.9615585,-0.014458569,0.015246529,-0.008680113,0.017677035,164,6,231,2,0,3837.514,173.96758,858.64417,64.381165,397010.38,425.6285,152.30394,152.31895,156.46494,156.46494,0,1,571.60187,0,0,16.41852,16.418522,0,2,255,0,0,0,1,-127,59,0
True,26451875,15999.99,0,8836.526,-24.299267,1.5715783,4.4235854,14.375789,0.21047282,62.542793,-0.040462065,-0.50301063,0.028824732,1.4076723,0.06046341,0.019707896,0.16859853,0.39331475,0.20121332,0.42953423,0.9308209,0.4010925,0.67601067,0.3994577,205.64128,200.86186,204.89221,204.14937,0,0,0,0,0,0,0,0,0,0,0,0,-2.9463546,-2.3458085,-2.4105852,-1.9235713,3.0898921,2.3798513,2.5035796,1.9646101,-0.01198501,0.015580118,-0.0049698167,0.022175848,164,6,231,2,0,3845.1277,173.56819,857.98834,64.17405,421572.66,455.46536,159.80972,161.53072,162.14154,162.14154,0,1,577.8026,0,0,16.53756,16.53756,0,2,255,0,0,0,1,-127,42,0
True,26452000,15999.99,0,8870.959,-22.751595,0.8986534,4.209719,14.794912,0.2164832,62.22363,0.009024857,-0.39910358,0.03517607,1.3562984,0.0597055,0.019591805,0.19337289,0.41691768,0.21795993,0.43201658,0.86211646,0.39227524,0.7842512,0.54868263,206.3712,201.72702,205.65038,204.97906,0,0,0,0,0,0,0,0,0,0,0,0,-2.488635,-2.0469346,-2.5410662,-2.1905742,2.633733,2.0841835,2.6593359,2.2582443,-0.008946028,0.018475406,-0.0029787682,0.02247098,164,6,231,2,0,3852.615,173.19366,857.6957,63.958702,394065.84,424.20224,166.13818,169.48166,168.01749,168.01749,0,1,583.641,0,0,16.654713,16.654709,0,2,255,0,0,0,1,0,24,0
True,26452093,15999.99,0,8875.464,-19.911982,-1.1066189,4.106657,15.029669,0.20239276,62.057327,0.023088744,-0.34060124,0.025615972,1.3201979,0.0632952,0.02144338,0.13815324,0.32108232,0.17287435,0.35974452,0.8268533,0.4630397,0.86756605,0.60819316,205.59798,202.12097,205.99823,205.157,0,0,0,0,0,0,0,0,0,0,0,0,-2.471404,-2.1826763,-2.6823363,-2.3046484,2.6060553,2.231251,2.8191485,2.3835485,-0.015719624,0.0067196265,-0.008339111,0.013878368,164,6,231,2,0,3859.0115,172.8644,857.68317,63.85173,355913.94,382.9421,169.83119,173.94183,172.6655,172.6655,0,1,588.64734,0,0,16.754948,16.754942,0,2,255,0,0,0,1,0,8,0
True,26452203,15999.99,0,8793.439,-20.079205,4.153777,6.544145,15.386586,0.1553185,62.06156,-0.033584453,-0.33308786,0.103376195,1.2739826,0.05725595,0.023092844,0.26467663,0.4724477,0.2700243,0.49266112,0.19151543,0.2338469,0.6173724,0.45994854,200.6092,202.6477,203.92584,203.80496,0,0,0,0,0,0,0,0,0,0,0,0,0.24160923,0.71126086,-2.287951,-2.0286548,0.30830696,0.7487165,2.3697824,2.0801425,-0.00019945577,0.02528707,0.0032113008,0.029681168,164,6,231,2,0,3866.4495,172.47975,857.9449,63.94066,668438.44,726.09454,171.122,175.48824,178.4778,178.4778,0,1,594.4651,0,0,16.871664,16.871656,0,2,255,0,0,0,1,127,246,0
True,26452328,15999.99,0,8873.277,-13.543307,1.0977888,5.5352983,15.567472,-0.0046937764,62.258236,-0.10627948,-0.14503531,-0.07198063,1.250993,0.05622643,0.0270821,0.25421634,0.36135355,0.21889444,0.34656796,0.36991087,0.18129109,0.7598807,0.5541666,204.06537,201.87659,206.25304,205.70757,0,0,0,0,0,0,0,0,0,0,0,0,-1.2668605,-0.99994797,-2.5438352,-2.02893,1.3197612,1.0162492,2.6549041,2.1032493,-0.0014825799,0.011659551,-0.0028676614,0.0123117715,164,6,231,2,0,3873.7595,172.12549,858.39294,64.175026,578081.9,621.98627,169.34442,173.53882,184.50024,184.50024,0,1,600.1818,0,0,16.986134,16.986126,0,2,255,0,0,0,1,0,228,0
True,26452437,15999.99,0,8860.36,-26.302656,3.222296,4.917083,12.850409,0.11391884,62.6877,-0.020542238,-0.04727817,-0.005002207,1.2399396,0.048364606,0.019421404,0.25621775,0.44153076,0.27585658,0.47422802,0.7928544,0.4138473,0.64852005,0.48554838,206.2374,201.30147,205.69492,204.48277,0,0,0,0,0,0,0,0,0,0,0,0,-2.5491922,-2.16598,-2.1620004,-1.814496,2.6696439,2.2051618,2.2571719,1.8783379,-0.0012370758,0.021494605,0.0039047152,0.02748961,164,6,231,2,0,3881.0007,171.80766,859.1508,63.991356,460265.8,496.13315,172.51154,178.16156,188.91965,188.91965,0,1,605.8879,0,0,17.099861,17.099854,0,2,255,0,0,0,1,-127,214,0
True,26452531,15999.99,0,8812.878,-27.548506,2.8919227,4.615986,10.395282,0.09791049,63.068523,-0.07750225,0.0053464547,-0.068721235,1.2367381,0.043747567,0.016072137,0.25939408,0.4300787,0.28334624,0.4775154,0.68158096,0.36117575,0.4733075,0.33234575,205.30516,200.8848,204.2776,203.25029,0,0,0,0,0,0,0,0,0,0,0,0,-2.344486,-1.9487497,-1.6503955,-1.3128358,2.44155,1.9819367,1.7169232,1.3542495,-0.00084744766,0.020089816,0.004795179,0.027880453,164,6,231,2,0,3887.1736,171.55115,860.0766,63.919556,561374.44,608.22394,176.61548,183.42758,190.49959,190.49959,0,1,610.7328,0,0,17.19756,17.19755,0,2,255,0,0,0,1,-127,206,0
True,26452656,15999.99,0,8871.365,-26.778042,1.5352231,4.38653,6.17414,0.023093432,63.729374,0.004256681,0.15886487,0.0015460529,1.2449023,0.036313176,0.011361272,0.23877153,0.42074645,0.26642942,0.46739218,0.70878273,0.3054893,0.42106664,0.32869893,208.32564,201.81145,205.49193,204.06377,0,0,0,0,0,0,0,0,0,0,0,0,-1.7599916,-1.4773093,-0.9987544,-0.84083956,1.8973517,1.5085645,1.0838853,0.9028035,-0.0033771396,0.018945064,0.0027838983,0.026676878,164,6,231,2,0,3895.2656,171.25903,861.74274,64.027756,576461.5,620.51733,179.39268,187.49786,189.72946,189.72946,0,1,617.22327,0,0,17.326874,17.326866,0,2,255,0,0,0,1,-127,204,0
True,26452750,15999.99,0,8838.536,-26.915844,1.461348,5.8781805,2.9457264,-0.12088084,64.389206,-0.03307479,0.13582695,-0.052811492,1.2549758,0.031676907,0.009056139,0.2425848,0.40451464,0.2638111,0.45038155,0.38029432,0.13313043,0.26263076,0.17824718,206.49483,201.99588,204.74059,203.3691,0,0,0,0,0,0,0,0,0,0,0,0,-0.54143363,-0.45995244,-0.45288473,-0.36023974,0.661645,0.4788319,0.523526,0.40192628,-0.002909381,0.016953968,0.0024725944,0.02465444,164,6,231,2,0,3901.2603,171.04822,863.2739,64.456665,752276.25,812.7693,179.26534,187.27257,187.68996,187.68996,-3.68501,1,622.0817,0,0,17.423279,17.423275,0,2,255,0,0,0,1,0,208,0
True,26452890,15999.99,0,8902.996,-10.168745,-0.47845298,6.977356,0.014593124,-0.29101387,65.34045,0.0065612104,0.14850914,0.036217943,1.2781043,0.029718222,0.009547927,0.2315564,0.31419796,0.2610242,0.37429467,0.12753664,0.1269505,0.158176,0.18269424,205.3304,204.61269,206.0703,205.8415,0,0,0,0,0,0,0,0,0,0,0,0,-0.03966714,-0.038016375,0.020394145,0.02455299,0.13356301,0.13252047,0.15948533,0.18433674,-0.004262194,0.005875148,0.002141256,0.015608277,164,6,231,2,0,3909.222,170.77122,865.61487,65.341095,752464.1,807.26855,176.83939,184.35812,184.91348,184.91348,-14.7,1,628.5591,0,0,17.55121,17.55121,0,2,255,0,0,0,1,0,219,0
True,26452984,15999.99,0,8966.127,0.40536737,2.4088788,6.9749317,-0.28500938,-0.31249332,66.0025,-0.040126756,0.025511744,0.026919723,1.2864289,0.02538352,0.014126604,0.29451627,0.31724244,0.3767685,0.39677152,0.095851004,0.1273956,0.110724255,0.11932319,206.66713,207.04152,207.18716,207.18114,0,0,0,0,0,0,0,0,0,0,0,0,-0.01773025,-0.017025841,0.03883274,0.048368417,0.097477056,0.12852828,0.11733645,0.12875375,0.0034608655,0.0062486045,0.015902396,0.018280607,164,6,231,2,0,3915.2578,170.56487,867.4216,66.00386,752516.1,801.7378,175.09656,182.22136,182.95573,182.95573,-14.7,1,633.5024,0,0,17.64718,17.647179,0,2,255,0,0,0,1,-1,227,0
True,26453093,15999.99,0,9187.093,-1.9456478,-3.7120986,5.874361,0.0463562,-0.2736913,66.673615,0.09399849,-0.16981684,-0.050721202,1.2786353,0.032415144,0.010361433,0.231389,0.19743478,0.3126212,0.29709134,0.42134178,0.22123943,0.3157321,0.2611124,213.5107,211.005,212.1656,212.08385,0,0,0,0,0,0,0,0,0,0,0,0,-0.4771537,-0.4330189,-0.035788152,-0.03359179,0.6365568,0.48626357,0.3177539,0.2632643,-0.004282728,-0.00844777,0.008275755,0.006429367,164,6,231,2,0,3922.4214,170.32576,869.55194,66.674194,752590.75,782.496,173.1763,179.8671,180.78389,180.78389,-14.7,1,639.3664,0,0,17.75988,17.759876,0,2,255,0,0,0,1,-127,234,0
True,26453218,15999.99,0,9212.974,-8.86574,-2.4477172,6.932001,1.0775585,-0.34887627,67.440575,0.034459494,-0.28009108,-0.059573956,1.2462536,0.036193307,0.0019981929,0.20303804,0.19410145,0.2585738,0.25260952,0.26808706,0.14584544,0.21523039,0.13324013,213.34361,212.56828,212.64319,212.69312,0,0,0,0,0,0,0,0,0,0,0,0,-0.10868213,-0.09913461,-0.20726883,-0.18735108,0.28927925,0.17634785,0.29880512,0.22989859,-0.007760439,-0.008856658,0.0018499196,0.0011408105,164,6,231,2,0,3929.717,170.0225,871.80695,67.45008,752607.6,780.4499,171.49149,177.80763,178.74908,178.74908,-14.7,1,645.342,0,0,17.873825,17.873821,0,2,255,0,0,0,1,0,242,0
True,26453312,15999.99,0,9373.4795,-8.139093,-5.2576537,6.555955,1.5040665,-0.3582794,68.03476,0.050301112,-0.1344731,-0.06998735,1.2279205,0.04440427,-0.004283239,0.16020097,0.1568828,0.20641166,0.22768031,0.3473427,0.23695919,0.3428365,0.25112832,217.13745,215.71953,216.8594,216.14392,0,0,0,0,0,0,0,0,0,0,0,0,-0.21305974,-0.20055017,-0.25824425,-0.23222934,0.4074818,0.31043524,0.42921668,0.34204665,-0.013015108,-0.013422135,-0.0043517724,-0.0018230863,164,6,231,2,0,3936.1,169.71686,873.887,68.05232,751993.56,765.9004,170.03268,175.98943,177.09875,177.09875,-14.7,1,650.6115,0,0,17.973036,17.973034,0,2,255,0,0,0,1,0,251,0
True,26453437,15999.99,0,8993.458,-7.636509,-5.3327146,5.068948,0.8564472,-0.38386095,68.64998,0.1420848,0.05321957,0.011192642,1.223451,0.052850325,-0.009158736,0.0874965,0.1301729,0.19030866,0.21124086,-0.7446812,-0.52712756,-0.02927903,-0.01872519,198.22296,201.94196,211.83339,211.80493,0,0,0,0,0,0,0,0,0,0,0,0,-0.16200617,-0.15556663,-0.12622288,-0.11814384,0.76209974,0.5496039,0.12957421,0.11961856,-0.021933503,-0.016698545,-0.0062662996,-0.0037776157,164,6,231,2,0,3943.6846,169.28522,876.4751,68.65639,738985,781.7162,168.39034,173.99088,175.2647,175.2647,-14.7,1,656.8991,0,0,18.090296,18.090296,0,2,251,163,0,0,1,0,6,175
True,26453531,15999.99,0,8134.841,-2.1114492,-7.375535,-11.969605,0.20333672,-0.11076826,67.239204,0.12335375,0.079207554,0.045083243,1.231383,0.06928853,-0.0055746958,0.08394057,0.17937204,0.11379169,0.14753382,-1.4508886,-0.9647576,-1.016694,-1.0340375,179.47395,188.79762,190.03954,189.74026,0,0,0,0,0,0,0,0,0,0,0,0,-0.049637176,-0.048034843,-0.02890603,-0.015613695,1.4517374,0.9659527,1.0171047,1.0341554,-0.022369696,-0.010663463,-0.0153636,-0.011351911,164,6,231,2,0,3950.2356,168.82848,878.76215,67.2396,739147.2,869.221,169.1507,174.3401,174.14517,174.14517,-14.7,1,662.3517,0,0,18.19234,18.192339,0,2,251,255,0,0,1,0,15,129
True,26453656,15999.99,0,9053.347,0.42115438,-2.8197331,-2.7373164,-0.20695496,0.22073984,66.423416,0.0059456117,0.034738917,0.080708876,1.2383379,0.07757123,0.0028118824,0.23713654,0.31572863,0.1517096,0.2122245,0.1214029,0.12519178,0.18208165,0.19442958,208.28285,208.2211,209.52702,209.53683,0,0,0,0,0,0,0,0,0,0,0,0,0.0209213,0.020251473,0.030156903,0.035696626,0.123192385,0.12681918,0.1845621,0.19767931,-0.003577698,0.00606291,-0.010855442,-0.0036606677,164,6,231,2,0,3957.757,168.25166,881.3922,66.4241,606115.5,639.5251,168.19827,172.53882,172.51128,172.51128,-14.7,1,668.6163,0,0,18.312737,18.312733,0,2,211,0,0,0,1,0,24,0
True,26453765,15999.99,0,9112.836,5.8605223,-0.78510475,4.585372,-0.2674713,-0.13688731,67.04185,-0.04376088,0.21343057,0.09572528,1.2490396,0.07337621,0.012031171,0.24076149,0.30349985,0.2608311,0.3145576,0.102124445,0.15337661,0.102033086,0.15653647,210.31906,210.16669,210.63043,210.51372,0,0,0,0,0,0,0,0,0,0,0,0,0.36585078,0.39520845,0.06613139,0.072202094,0.37983707,0.423927,0.12158993,0.17238565,-0.00313304,0.0045628473,0.002118297,0.008505978,164,6,231,2,0,3964.352,167.72336,883.66437,67.04252,645884.5,676.9578,166.8964,170.98152,171.1294,171.1294,-14.7,1,674.11743,0,0,18.417547,18.41754,0,2,223,0,0,0,1,95,30,0
True,26453875,15999.99,0,9265.769,5.7685556,-2.7189665,5.86009,-0.71461296,-0.27384526,67.67098,0.07045327,0.065347455,0.06760818,1.2651478,0.074896246,0.022102127,0.13657707,0.19179119,0.20881404,0.25615984,0.16141339,0.2780891,0.20214674,0.2403488,212.9611,214.57317,213.96823,214.24796,0,0,0,0,0,0,0,0,0,0,0,0,0.092476375,0.099594064,0.11415646,0.12082175,0.18602732,0.2953854,0.23215297,0.26900825,-0.015912967,-0.009140048,-0.004066147,0.0015629195,164,6,231,2,0,3971.104,167.17877,885.9044,67.67531,695653.44,717.25806,165.63448,169.48819,169.8496,169.8496,-14.7,1,679.7182,0,0,18.523453,18.523445,0,2,238,0,0,0,1,0,34,0
True,26453984,15999.99,0,9290.238,4.7836256,-2.4388332,6.505763,-0.43641663,-0.37235188,68.38396,-0.020594258,0.004336844,0.07622164,1.2684785,0.07778572,0.029390644,0.14915487,0.1871411,0.16901419,0.19963305,0.087541014,0.10455792,0.13170947,0.14568004,213.81653,214.0777,214.8035,214.95955,0,0,0,0,0,0,0,0,0,0,0,0,0.05845606,0.061049595,0.055979993,0.062893964,0.10526415,0.121076055,0.14311235,0.15867679,-0.014370091,-0.009710457,-0.008798055,-0.005157698,164,6,231,2,0,3978.0232,166.57997,888.13776,68.38636,642317.9,660.2745,164.42157,168.06377,168.62256,168.62256,0,1,685.4457,0,0,18.630672,18.630663,0,2,222,0,0,0,1,0,35,0
True,26454093,15999.99,0,9334.019,2.5596921,2.1799312,5.137851,-0.10421181,-0.3089913,68.94835,-0.021048281,-0.015803553,0.059076585,1.2673502,0.07410805,0.035878878,0.21098784,0.27277187,0.27487636,0.30100527,0.067696534,0.06476796,0.09139744,0.09315309,215.14299,215.16187,215.75099,215.82413,0,0,0,0,0,0,0,0,0,0,0,0,0.015609511,0.015926901,0.009647309,0.010169544,0.06947286,0.066697486,0.091905184,0.093706556,-0.006785266,0.0007935576,0.003788177,0.0068947114,164,6,231,2,0,3985.0505,165.98055,890.3587,68.94912,538936.4,551.4667,163.28375,166.7185,167.47275,167.47275,0,1,691.26495,0,0,18.738323,18.738314,0,2,191,0,0,0,1,0,35,0
True,26454203,15999.99,0,8745.263,0.2855153,1.608378,-14.983113,-0.019975662,0.061301112,67.40006,0.077979475,-0.011015074,0.053972956,1.2660537,0.07665918,0.042734835,0.28021348,0.32619473,0.25348988,0.30638966,-0.44299746,-0.44945124,-0.27276158,-0.2791386,199.48077,199.41856,203.34798,203.31075,0,0,0,0,0,0,0,0,0,0,0,0,0.0031266306,0.00259814,-0.0012595872,-0.0012262535,0.44300848,0.44945875,0.2727645,0.2791413,0.0017063953,0.0073467493,0.00124548,0.0075348727,164,6,231,2,0,3992.0356,165.41797,892.5564,67.40009,204428.12,222.9613,162.30112,165.55414,166.37979,166.37979,0,1,697.031,0,0,18.845434,18.845425,0,2,86,255,0,0,1,0,34,129
True,26454328,15999.99,0,8169.1265,-0.46196938,0.2066701,-29.657495,-0.015707016,0.52857816,63.51418,0.014541055,-0.007919687,0.049052067,1.2653157,0.08352878,0.049187057,0.35233045,0.39271805,0.1839088,0.23239206,-0.43686652,-0.42538363,-0.4003399,-0.46944827,188.03961,188.13048,189.46365,188.48454,0,0,0,0,0,0,0,0,0,0,0,0,0.0038921977,-0.00028003135,-0.0028984477,-0.0016991867,0.43688387,0.42538372,0.4003504,0.46945134,0.010552723,0.015506923,-0.007027194,-0.0012628958,164,6,231,2,0,3999.8003,164.80133,895.0059,63.51638,-85311.766,-99.67433,161.4345,164.4729,165.24023,165.24023,0,1,703.44165,0,0,18.97015,18.97014,0,2,0,255,0,0,1,0,32,129
True,26454421,15999.99,0,7827.2676,-0.9103756,3.4465935,-32.14022,-0.06385994,0.68258727,60.050266,-0.076833665,-0.030362178,0.049750537,1.2643023,0.07976102,0.05391306,0.45140547,0.52349544,0.18900904,0.23369601,-0.36902183,-0.33330342,-0.25885683,-0.24286762,178.8087,179.49344,181.42963,181.85213,0,0,0,0,0,0,0,0,0,0,0,0,-0.0737381,-0.07826658,0.0008357928,0.0015350201,0.3763169,0.34236944,0.2588582,0.24287248,0.022705898,0.03154891,-0.0064208135,-0.0011078641,164,6,231,2,0,4006.0217,164.32846,896.97705,60.054176,-78441.59,-95.576706,160.74445,163.62311,164.36028,164.36028,0,1,708.5836,0,0,19.07615,19.076143,0,2,0,255,0,0,1,-67,32,129
True,26454531,15999.99,0,7380.7407,-7.308863,2.6956758,-28.150665,0.08888245,0.6056051,57.08448,-0.028719746,-0.27646944,0.010824201,1.2476735,0.0743672,0.054823887,0.40420038,0.49121857,0.19274957,0.25522205,-0.78620404,-0.20935743,-0.39977604,-0.28159502,164.8849,174.26984,169.29556,172.56259,0,0,0,0,0,0,0,0,0,0,0,0,-0.4574826,-0.4096155,-0.0757633,-0.07140912,0.9096192,0.4600167,0.40689182,0.2905082,0.016915418,0.027589627,-0.005976092,0.0014514215,164,6,231,2,0,4011.8315,163.92924,898.8653,57.08776,-69531.44,-89.98487,160.09068,162.87799,163.53851,163.53851,0,1,713.3909,0,0,19.18089,19.180882,0,2,0,255,0,0,1,-127,34,129
True,26454656,15999.99,0,6923.871,-15.294114,0.81864977,-21.443243,1.1731339,0.46605384,54.559444,-0.067800306,-0.56682163,-0.020801535,1.1953503,0.07430353,0.0516729,0.35390595,0.4893876,0.18288825,0.29279047,-0.21314903,-0.110848084,-1.3323804,-0.24249752,163.95934,168.09915,146.8852,166.29564,0,0,0,0,0,0,0,0,0,0,0,0,-0.71066415,-0.6022962,-0.36248255,-0.30798402,0.74194074,0.6124116,1.3808081,0.39199388,0.010745984,0.027365029,-0.0071485303,0.0059180297,164,6,231,2,0,4018.3013,163.48509,901.12854,54.574047,-61491.73,-84.62277,159.50568,162.19081,163.04225,163.04225,0,1,718.78326,0,0,19.303944,19.303936,0,2,0,255,0,0,1,-127,36,129
True,26454765,15999.99,0,6693.0356,-21.40889,2.02335,-19.036186,2.5706959,0.4640633,52.31297,-0.027779229,-0.72406834,0.0012695473,1.1252923,0.0728662,0.04496154,0.3157655,0.503578,0.16070317,0.3026946,-0.9179534,-0.13290642,-0.5314171,-0.43211555,147.76031,160.88129,153.08902,156.32796,0,0,0,0,0,0,0,0,0,0,0,0,-1.0043236,-0.8269147,-0.719738,-0.59658885,1.3606265,0.83752733,0.8946658,0.7366425,0.0060674325,0.029105715,-0.009786174,0.007095553,164,6,231,2,0,4023.6155,163.12517,903.22473,52.37815,-57115.715,-81.556145,159.21484,161.80292,162.85129,162.85129,0,1,723.3947,0,0,19.4111,19.41109,0,2,0,255,0,0,1,-127,39,129
True,26454875,15999.99,0,6746.974,-24.884441,1.9599974,-10.572538,4.40114,0.43247366,50.696526,-0.04176867,-0.8471884,-0.00014310144,1.0376103,0.07196912,0.03929792,0.27117634,0.48549888,0.16421378,0.36185595,-0.10004674,-0.014614006,-0.1460717,-0.03238815,152.82341,158.01385,153.34796,158.7203,0,0,0,0,0,0,0,0,0,0,0,0,-1.4325984,-1.157823,-1.1634432,-0.9270906,1.4360875,1.1579152,1.1725771,0.9276562,0.00059784204,0.026888013,-0.009368788,0.014129404,164,6,231,2,0,4028.707,162.78645,905.5059,50.88904,-58093.664,-82.251396,159.72849,161.95688,163.16803,163.16803,0,1,727.7869,0,0,19.519724,19.519716,0,2,0,0,0,0,1,-127,45,0
True,26454984,15999.99,0,6683.8413,-25.399887,1.4084511,-1.8900127,6.23061,0.3080914,50.01196,-0.024074238,-0.7921593,0.035600644,0.94634616,0.07038326,0.034725875,0.25016472,0.50546974,0.19099429,0.39071485,-0.01616361,-0.00209174,-0.0070879683,-0.020654187,151.43999,155.54152,153.02727,156.63318,0,0,0,0,0,0,0,0,0,0,0,0,-1.931508,-1.5242827,-1.5161029,-1.2425295,1.9315755,1.5242841,1.5161195,1.2427012,-0.0019795783,0.029337764,-0.006184783,0.017560516,164,6,231,2,0,4033.5808,162.45944,908.0085,50.39952,-57092.938,-81.53988,160.93326,163.75862,163.46222,163.46222,0,1,732.0907,0,0,19.628126,19.62812,0,2,0,0,0,0,1,-127,53,0
True,26455093,15999.99,0,6581.8613,-21.370293,-0.4405781,-0.58393574,7.741867,0.31010318,49.340122,0.019390976,-0.67306745,0.0394362,0.87059224,0.07518906,0.03397715,0.17282891,0.368768,0.13257608,0.3376067,-0.011436662,-0.005881301,-0.01914162,-0.0332172,149.31956,152.72943,151.03056,154.0397,0,0,0,0,0,0,0,0,0,0,0,0,-2.218006,-1.8988793,-1.935496,-1.5760789,2.2180352,1.8988883,1.9355906,1.5764289,-0.011466084,0.012569059,-0.0131302755,0.01124635,164,6,231,2,0,4038.2373,162.13142,910.6982,49.94477,-55362.26,-80.294495,163.4335,166.92784,164.88013,164.88013,0,1,736.2962,0,0,19.735523,19.735518,0,2,0,0,0,0,1,-127,61,0
True,26455218,15999.99,0,6464.4746,-26.062473,2.8494375,-0.52365875,8.897537,0.33649683,48.398056,-0.06764993,-0.71833336,0.0077903355,0.7810891,0.07203437,0.02964108,0.2520719,0.47904018,0.15325117,0.38728976,0.0034165885,0.0024247635,0.0022836635,-0.020258406,146.32858,149.9114,148.36107,151.4965,0,0,0,0,0,0,0,0,0,0,0,0,-2.517395,-2.0600028,-2.0657203,-1.6734333,2.5173974,2.0600042,2.0657215,1.6735559,-0.0017456338,0.026095748,-0.0106721595,0.017153293,164,6,231,2,0,4043.383,161.75319,914.03546,49.210274,-53413.664,-78.868774,168.1832,172.85136,167.77563,167.77563,0,1,741.52875,0,0,19.859468,19.859463,0,2,0,0,0,0,1,-127,67,0
True,26455312,15999.99,0,6349.404,-22.815887,0.95332587,-0.3229065,9.797024,0.31632614,47.617805,-0.01408511,-0.6426789,0.03778047,0.71115667,0.071977735,0.027581127,0.20017946,0.43698716,0.15220809,0.37771606,0.0052660825,-0.0019265015,-0.0043410663,-0.039416876,143.86086,146.98706,145.98866,148.5956,0,0,0,0,0,0,0,0,0,0,0,0,-2.7436512,-2.3408024,-2.4056213,-2.0470686,2.7436562,2.3408031,2.4056253,2.047448,-0.0081110895,0.020937257,-0.010796174,0.016015053,164,6,231,2,0,4047.583,161.45161,917.1261,48.61622,-51527.29,-77.46357,172.3818,178.62077,171.19727,171.19727,0,1,745.6345,0,0,19.966309,19.966303,0,2,0,0,0,0,1,-127,72,0
True,26455421,15999.99,0,6239.3174,-22.720238,1.0144727,-0.3018694,10.521519,0.32722783,46.8184,0.023739174,-0.55587745,0.05270866,0.6452013,0.07301726,0.027187264,0.20538461,0.43407047,0.18263702,0.40356204,0.00019768153,0.0020087562,-0.009217553,-0.02848193,141.31209,144.15015,143.6311,146.03116,0,0,0,0,0,0,0,0,0,0,0,0,-3.0414076,-2.497629,-2.5971482,-2.1007693,3.0414076,2.4976296,2.5971646,2.1009622,-0.0074725933,0.020579476,-0.0071783997,0.019087948,164,6,231,2,0,4051.5964,161.149,920.3748,47.98721,-49758,-76.122025,177.31305,185.11551,175.23422,175.23422,0,1,749.6901,0,0,20.073402,20.073395,0,2,0,0,0,0,1,-127,76,0
True,26455531,15999.99,0,6132.353,-20.332932,0.35842127,-0.26132393,11.170219,0.3141625,46.04007,-0.009776795,-0.56548387,0.044351175,0.5847216,0.07540982,0.02805426,0.18840271,0.43110648,0.15457319,0.36721617,0.004877032,-0.0018058703,-0.011741529,-0.035296854,138.83696,141.60768,141.18607,143.57724,0,0,0,0,0,0,0,0,0,0,0,0,-3.1571116,-2.4954689,-2.7012842,-2.210725,3.1571155,2.4954696,2.7013097,2.2110069,-0.009555701,0.020215895,-0.010514982,0.014766693,164,6,231,2,0,4055.4014,160.84523,923.7544,47.37679,-48062.13,-74.81357,182.84259,192.01477,179.38173,179.38173,0,1,754.215,0,0,20.180328,20.18032,0,2,0,0,0,0,1,-127,80,0
True,26455656,15999.99,0,6092.9355,-22.657347,1.7058902,-0.3128338,11.495901,0.3259325,45.097046,-0.0452018,-0.5793296,0.012494695,0.5135279,0.07342153,0.027539194,0.20625982,0.4089545,0.157432,0.3513185,0.04761401,-0.01230689,0.18242,-0.016680473,139.24803,141.16475,140.69481,141.28033,0,0,0,0,0,0,0,0,0,0,0,0,-2.5224023,-2.135899,-2.8120465,-2.381532,2.5228515,2.1359346,2.8179572,2.3815904,-0.007365234,0.01749859,-0.01017509,0.012876581,164,6,231,2,0,4059.547,160.50415,927.8475,46.540363,67710.984,106.19134,189.55013,200.63622,184.74094,184.74094,0,1,758.8031,0,0,20.304684,20.304676,0,2,45,0,0,0,1,0,84,0
True,26455765,15999.99,0,6380.8994,-22.946383,1.9228034,3.6926765,11.735438,0.2935412,44.71315,-0.03730934,-0.5310137,0.06177574,0.4526865,0.07014873,0.026209459,0.22372532,0.42691925,0.18405999,0.41036582,0.32370895,0.0822203,0.89694405,0.57523954,145.23703,145.24588,148.69948,148.32375,0,0,0,0,0,0,0,0,0,0,0,0,-0.41559917,-0.069084875,-2.8792527,-2.4826684,0.52679235,0.107391335,3.015726,2.5484393,-0.005222805,0.019702263,-0.0070092194,0.019896869,164,6,231,2,0,4062.8552,160.2289,931.508,46.22848,351751.75,526.6401,191.11594,202.89435,189.9075,189.9075,0,1,762.6875,0,0,20.41141,20.411404,0,2,183,0,0,0,1,127,87,0
True,26455875,15999.99,0,6498.9424,-9.014757,1.1083013,5.007722,13.013237,0.076452255,44.70288,-0.008240706,-0.26659492,0.082377605,0.4098158,0.06748669,0.033960532,0.19067045,0.3664109,0.19507915,0.35619783,0.26267654,0.2798502,1.0307407,0.83510256,146.83492,148.22023,151.69673,151.25475,0,0,0,0,0,0,0,0,0,0,0,0,-0.007934853,0.5530207,-2.8960125,-2.6652677,0.26279637,0.6197968,3.073974,2.7930357,-0.009277526,0.01227992,-0.005699124,0.0134566985,164,6,231,2,0,4066.0784,159.9582,935.31946,46.558537,476399.16,700.258,188.76465,200.15106,196.76149,196.76149,0,1,766.6106,0,0,20.51917,20.519167,0,2,254,0,0,0,1,127,89,0
