IsRaceOn,TimestampMS,EngineMaxRpm,EngineIdleRpm,CurrentEngineRpm,AccelerationX,AccelerationY,AccelerationZ,VelocityX,VelocityY,VelocityZ,AngularVelocityX,AngularVelocityY,AngularVelocityZ,Yaw,Pitch,Roll,NormalizedSuspensionTravelFrontLeft,NormalizedSuspensionTravelFrontRight,NormalizedSuspensionTravelRearLeft,NormalizedSuspensionTravelRearRight,TireSlipRatioFrontLeft,TireSlipRatioFrontRight,TireSlipRatioRearLeft,TireSlipRatioRearRight,WheelRotationSpeedFrontLeft,WheelRotationSpeedFrontRight,WheelRotationSpeedRearLeft,WheelRotationSpeedRearRight,WheelOnRumbleStripFrontLeft,WheelOnRumbleStripFrontRight,WheelOnRumbleStripRearLeft,WheelOnRumbleStripRearRight,WheelInPuddleDepthFrontLeft,WheelInPuddleDepthFrontRight,WheelInPuddleDepthRearLeft,WheelInPuddleDepthRearRight,SurfaceRumbleFrontLeft,SurfaceRumbleFrontRight,SurfaceRumbleRearLeft,SurfaceRumbleRearRight,TireSlipAngleFrontLeft,TireSlipAngleFrontRight,TireSlipAngleRearLeft,TireSlipAngleRearRight,TireCombinedSlipFrontLeft,TireCombinedSlipFrontRight,TireCombinedSlipRearLeft,TireCombinedSlipRearRight,SuspensionTravelMetersFrontLeft,SuspensionTravelMetersFrontRight,SuspensionTravelMetersRearLeft,SuspensionTravelMetersRearRight,CarOrdinal,CarClass,CarPerformanceIndex,DrivetrainType,NumCylinders,PositionX,PositionY,PositionZ,Speed,Power,Torque,TireTempFl,TireTempFr,TireTempRl,TireTempRr,Boost,Fuel,Distance,BestLapTime,LastLapTime,CurrentLapTime,CurrentRaceTime,Lap,RacePosition,Accelerator,Brake,Clutch,Handbrake,Gear,Steer,NormalDrivingLine,NormalAiBrakeDifference
True,18057046,15999.99,0,9.2644904E-17,-0.013863658,0.0073197214,-0.04474338,-9.7733714E-09,-1.4794094E-05,-2.6773941E-08,-0.00017688225,0.00013390087,-0.0013163317,-2.000402,-0.0018097699,0.0006606264,0.27765745,0.25453502,0.24695252,0.24130297,0.0015301281,0.0015546228,-0.034781065,0.008726816,-8.2994234E-08,-8.2994234E-08,-8.2994234E-08,-8.2994234E-08,0,0,0,0,0,0,0,0,0,0,0,0,0.033556063,0.021435268,-0.0034960452,0.004710743,0.03359093,0.02149157,0.03495633,0.009917077,0.0013928562,-0.0014434904,0.00046823546,-0.000203453,164,6,231,2,0,-6995.0376,585.66034,4311.7134,1.4794121E-05,-1.0987466E-35,-1.1311693E-18,96.96523,96.64005,99.60233,99.60233,-14.7,1,0,0,0,0,816.3252,0,0,0,0,0,255,1,-127,0,0
True,18083906,15999.99,0,78.14606,-0.10130882,-0.014814278,3.4477816,0.0075507313,-0.0031289763,0.37989676,-0.018761277,-0.002695364,-0.007813696,1.9609387,-0.06355001,-0.04062696,0.2505994,0.26526618,0.25234622,0.24836367,-0.051881734,0.7213941,0.12952724,-0.04381356,1.9823525,1.1502029,1.3466369,2.5207963,0,0,0,0,0,0,0,0,0,0,0,0,-0.006240564,-0.006174999,-0.009181819,-0.009154167,0.05225571,0.7214205,0.12985227,0.044759654,-0.0019262545,-0.00012713671,0.0011095069,0.00063601136,164,6,231,2,0,-7072.8374,281.34332,4330.3057,0.37998468,3804.9617,599.67053,105.36409,107.85611,108.632645,108.632645,0,1,-56.655823,0,0,0.07761899,0.07761899,0,7,255,0,0,0,1,0,49,0
True,18084031,15999.99,0,319.71518,0.030089855,-0.119579315,11.056068,0.005117357,-0.015624049,1.7691485,-0.03783142,-0.0043816087,-0.014896991,1.9610263,-0.06711136,-0.042277336,0.21024755,0.24204282,0.26127756,0.27737877,2.9076831,0.47802353,0.8764277,0.56430393,10.714464,6.013417,7.0906796,6.6163282,0,0,0,0,0,0,0,0,0,0,0,0,0.019769566,0.020602671,-0.030584594,-0.028688818,2.9077504,0.47846732,0.87696123,0.5650327,-0.006876074,-0.0029758625,0.0021713786,0.00408569,164,6,231,2,0,-7072.7236,281.3505,4330.2583,1.769225,50212.344,1539.2284,105.51095,107.99985,108.85849,108.85849,0,1,-56.56836,0,0,0.19904384,0.19904386,0,7,255,0,0,0,1,0,49,0
True,18084140,15999.99,0,504.25836,0.105742455,-0.15034789,13.48782,0.0033733249,-0.030866731,2.7714403,-0.016204555,-0.0038734018,-0.003427622,1.9609629,-0.06916381,-0.0427999,0.17418107,0.22166288,0.2516823,0.28917354,0.9505281,0.85867953,2.154297,2.2006772,10.589685,9.608097,12.053479,12.910748,0,0,0,0,0,0,0,0,0,0,0,0,0.004063316,0.0057516303,-0.018728293,-0.01728914,0.9505368,0.8586988,2.1543787,2.200745,-0.011300217,-0.0054757968,0.0010305718,0.0054880045,164,6,231,2,0,-7072.5303,281.36255,4330.178,2.7716143,81099.3,1546.6406,106.94565,108.10133,110.14218,110.14218,0,1,-56.41983,0,0,0.2916984,0.29169843,0,7,255,0,0,0,1,0,49,0
True,18084234,15999.99,0,626.7284,0.46529865,-0.061983213,14.114472,0.003685832,-0.043037195,4.2109194,-0.019670233,0.00030533422,0.0019119945,1.9610738,-0.070814885,-0.042052135,0.1725504,0.21444042,0.26708123,0.3110766,1.168341,0.44537914,0.8432841,0.82448024,15.24204,13.776277,14.810387,14.0995455,0,0,0,0,0,0,0,0,0,0,0,0,-0.018473344,-0.015520248,-0.0047425507,-0.0024718654,1.1684871,0.44564947,0.84329736,0.824484,-0.011500247,-0.006361749,0.0028613918,0.008092113,164,6,231,2,0,-7072.1675,281.3859,4330.029,4.211141,100938.055,1546.6406,108.02788,108.259155,112.071655,112.071655,0,1,-56.14133,0,0,0.4050348,0.40503484,0,7,255,0,0,0,1,0,49,0
True,18084359,15999.99,0,881.5517,0.023361683,-0.053725943,14.202965,0.0055270195,-0.060075603,6.0664053,-0.015616754,-0.0059007313,-0.00091435947,1.9608569,-0.073121,-0.04161338,0.16933332,0.20183055,0.292776,0.3348574,2.084753,0.45697322,0.8199836,0.5211885,22.287582,19.611662,20.269907,19.809267,0,0,0,0,0,0,0,0,0,0,0,0,0.002166336,0.00528183,-0.02139106,-0.01706681,2.0847542,0.45700374,0.82026255,0.52146786,-0.011894876,-0.007908557,0.005916305,0.010919478,164,6,231,2,0,-7071.5615,281.42657,4329.7793,6.066704,141843.83,1546.6406,109.91258,108.43527,112.83212,112.83212,0,1,-55.676117,0,0,0.5326311,0.5326311,0,7,255,0,0,0,1,0,49,0
True,18084484,15999.99,0,1114.2292,-0.05200386,-0.12724224,15.245471,0.004258871,-0.078769475,7.692156,-0.0044082976,-0.009918,0.0057695066,1.9599781,-0.07430198,-0.04139941,0.15417258,0.19138373,0.30659813,0.34701827,1.8901417,0.54083705,0.74232876,0.5414517,28.04311,25.010338,25.489424,25.11675,0,0,0,0,0,0,0,0,0,0,0,0,0.0080613475,0.011422714,-0.024480404,-0.018788898,1.8901589,0.5409577,0.7427323,0.5417776,-0.0137545895,-0.00919003,0.007559661,0.012365315,164,6,231,2,0,-7070.884,281.47342,4329.501,7.6925607,179340.1,1546.6406,113.08923,108.57847,113.00783,113.00783,0,1,-55.15593,0,0,0.6390184,0.6390185,0,7,255,0,0,0,1,0,49,0
True,18084593,15999.99,0,1390.622,0.15285301,-0.1849433,14.454439,0.0037212372,-0.100596294,9.565057,0.013259761,-0.006176646,0.018567953,1.9588778,-0.07328971,-0.039381504,0.13749939,0.18865177,0.3162016,0.3395186,2.1483357,0.47777295,0.66037697,0.6829099,35.24175,30.957634,31.540453,31.626722,0,0,0,0,0,0,0,0,0,0,0,0,-0.0026647735,0.0010727948,-0.01885355,-0.014176623,2.1483374,0.47777417,0.660646,0.68305707,-0.015799828,-0.00952515,0.008701436,0.011473659,164,6,231,2,0,-7069.8496,281.54422,4329.0776,9.565587,224136.77,1546.6406,116.75473,108.75249,113.20552,113.20552,0,1,-54.363182,0,0,0.7686895,0.7686895,0,7,255,0,0,0,1,0,49,0
True,18084703,15999.99,0,1619.8883,0.038855076,-0.25400558,14.8599825,0.0074510574,-0.11017667,11.20815,0.020087833,-0.00042158988,0.011272624,1.9584045,-0.07145335,-0.03749727,0.13965586,0.17145534,0.327151,0.32921448,1.6676236,0.570999,0.6526976,0.72620463,39.558594,36.533657,36.969078,37.164494,0,0,0,0,0,0,0,0,0,0,0,0,-0.011129972,-0.007374798,-0.012322604,-0.008083314,1.6676608,0.57104665,0.6528139,0.72624964,-0.015535304,-0.011634573,0.010003243,0.010248572,164,6,231,2,0,-7068.7993,281.6148,4328.6484,11.208693,261699.9,1546.6406,119.47779,108.90617,113.357155,113.357155,0,1,-53.557747,0,0,0.8779853,0.87798536,0,7,255,0,0,0,1,0,49,0
True,18084828,15999.99,0,1868.9395,0.3825946,-0.3488214,15.214062,0.011440277,-0.123428896,13.045426,0.026905492,0.0022145254,0.012327412,1.958507,-0.06867429,-0.036271293,0.1331502,0.15192668,0.30795938,0.32805708,1.0182358,0.7339611,0.64949447,0.64573604,44.031227,43.06438,42.966347,42.94112,0,0,0,0,0,0,0,0,0,0,0,0,-0.01667404,-0.013108083,-0.010238993,-0.0070456597,1.0183723,0.73407817,0.6495752,0.6457745,-0.016333329,-0.014030086,0.0077214986,0.010110967,164,6,231,2,0,-7067.4536,281.70294,4328.098,13.046017,301859.6,1546.6406,119.65717,109.12431,113.54285,113.54285,0,1,-52.52576,0,0,0.9978506,0.9978506,0,7,255,0,0,0,1,0,49,0
True,18084921,15999.99,0,2079.391,0.32030582,-0.48305407,15.374445,0.012481689,-0.1385826,14.550849,0.023676217,0.0031396868,0.009856495,1.9586912,-0.066060245,-0.035172507,0.13067932,0.14506741,0.29720268,0.30819952,0.7964264,0.7410184,0.6594821,0.65668094,48.283302,48.021816,47.963303,47.941113,0,0,0,0,0,0,0,0,0,0,0,0,-0.016084623,-0.012940849,-0.008206245,-0.006535137,0.79658884,0.7411314,0.6595332,0.6567135,-0.016636422,-0.0148714855,0.00644261,0.007750053,164,6,231,2,0,-7066.197,281.7815,4327.584,14.551513,335971.94,1546.6406,119.3483,109.35111,113.71694,113.71694,0,1,-51.562027,0,0,1.0962867,1.0962867,0,7,255,0,0,0,1,0,49,0
True,18085046,15999.99,0,2320.432,-0.022595406,-0.33683032,15.42315,0.010665417,-0.1569063,16.356634,0.00048022345,0.0044265706,0.012924086,1.9590125,-0.06450892,-0.03374115,0.14998594,0.1827283,0.29420733,0.29160237,0.74678093,0.49832174,0.57394016,0.62171626,54.054188,52.964237,53.543285,53.72179,0,0,0,0,0,0,0,0,0,0,0,0,-0.014829697,-0.0117610805,-0.005862525,-0.004995346,0.74692816,0.4984605,0.5739701,0.62173635,-0.014268151,-0.0102517605,0.0060864836,0.0057767704,164,6,231,2,0,-7064.514,281.88245,4326.8955,16.357391,375031.47,1546.6406,118.99118,109.562485,113.92547,113.92547,0,1,-50.27195,0,0,1.2139434,1.2139434,0,7,255,0,0,0,1,0,49,0
True,18085140,15999.99,0,2533.1921,-0.004552841,-0.17541406,15.571525,0.009795189,-0.1881486,17.930935,-0.015986573,0.0043021934,0.0129520185,1.9595674,-0.06568125,-0.03260564,0.16678093,0.18876794,0.29942578,0.3157996,0.6373716,0.5712767,0.52564925,0.5231253,58.7701,58.452656,58.462795,58.425514,0,0,0,0,0,0,0,0,0,0,0,0,-0.013235332,-0.009995646,-0.0053123343,-0.0024745825,0.637509,0.57136416,0.5256761,0.52313113,-0.012207968,-0.009510901,0.006706916,0.0086536445,164,6,231,2,0,-7062.883,281.9795,4326.2275,17.931925,409396.5,1546.6406,118.67595,109.70885,114.0883,114.0883,0,1,-49.0211,0,0,1.3167958,1.3167958,0,7,255,0,0,0,1,0,49,0
True,18085265,15999.99,0,2787.1226,-0.047184944,-0.08827153,15.5237875,0.010015488,-0.20166233,19.737926,0.014946548,0.00338087,0.012296161,1.9599934,-0.06579233,-0.031033712,0.12994291,0.14729804,0.33951014,0.34895504,0.6759347,0.5563101,0.51084846,0.524901,64.84398,64.19845,64.25725,64.3107,0,0,0,0,0,0,0,0,0,0,0,0,-0.011453859,-0.008357251,-0.0075568077,-0.0010803737,0.6760317,0.5563729,0.5109044,0.5249021,-0.016726756,-0.014597865,0.01147265,0.012595579,164,6,231,2,0,-7060.818,282.10306,4325.3804,19.73896,450547.9,1546.6406,118.35057,109.92447,114.27124,114.27124,0,1,-47.43729,0,0,1.4353577,1.4353576,0,7,255,0,0,0,1,0,49,0
True,18085359,15999.99,0,2995.9255,0.44171143,-0.17780614,15.174029,0.0091843605,-0.20618483,21.234447,-0.0043941666,0.0034328895,0.016453981,1.9603184,-0.06493043,-0.029826947,0.13500969,0.16198322,0.30000117,0.30450478,0.5952975,0.45531446,0.539924,0.55755794,69.33363,68.52715,69.29277,69.36635,0,0,0,0,0,0,0,0,0,0,0,0,-0.010609834,-0.0080764415,-0.005373934,-0.0031757748,0.59539205,0.45538607,0.5399508,0.557567,-0.01610523,-0.012796484,0.0067753308,0.0073107705,164,6,231,2,0,-7058.958,282.21445,4324.6167,21.23545,484313,1546.6406,118.11363,110.07623,114.43798,114.43798,0,1,-46.010612,0,0,1.5335561,1.533556,0,7,255,0,0,0,1,0,49,0
True,18085484,15999.99,0,3235.5583,-0.13626862,0.13365547,15.033581,0.0041532516,-0.2396581,23.03788,-0.02579794,0.004661452,0.025847763,1.96086,-0.0672403,-0.027300347,0.15294409,0.19371402,0.30291992,0.3095555,0.5816327,0.43162814,0.457367,0.48420936,75.15734,74.23172,74.67748,74.80131,0,0,0,0,0,0,0,0,0,0,0,0,-0.0098213935,-0.006951963,-0.0034782647,-0.0009009469,0.5817156,0.4316841,0.45738024,0.4842102,-0.013905285,-0.008904181,0.0071223453,0.007911269,164,6,231,2,0,-7056.5366,282.3608,4323.622,23.039125,523215.03,1546.6406,117.84689,110.22861,114.637344,114.637344,0,1,-44.15303,0,0,1.6518836,1.6518835,0,7,255,0,0,0,1,0,49,0
True,18085578,15999.99,0,3443.4954,0.3673892,0.098214135,15.034666,0.0013189316,-0.25666878,24.586384,0.006109856,0.0037890433,0.03293277,1.9613237,-0.06855736,-0.02421407,0.19479972,0.24495426,0.3207612,0.33695117,0.5693582,0.45301697,0.4207219,0.4413873,80.06238,79.31124,79.38818,79.48941,0,0,0,0,0,0,0,0,0,0,0,0,-0.009291529,-0.0048593148,-0.0043101683,0.00045397054,0.56943405,0.453043,0.42074397,0.44138753,-0.008771002,-0.0026187263,0.0092435405,0.011168405,164,6,231,2,0,-7054.2393,282.50424,4322.6772,24.587723,529449.06,1470.3297,117.64459,110.36641,114.79732,114.79732,0,1,-42.39009,0,0,1.7562413,1.7562412,0,7,255,0,0,0,1,0,49,0
True,18085703,15999.99,0,3661.7334,-0.06309509,-0.4507899,13.582055,0.00045585632,-0.24268901,26.217064,0.034815636,0.0024653322,0.029720064,1.9616771,-0.06557635,-0.020702643,0.1711597,0.23059323,0.36020744,0.38423908,0.44897786,0.4166488,0.42864653,0.44022536,84.49108,84.251526,84.63644,84.70604,0,0,0,0,0,0,0,0,0,0,0,0,-0.0070227906,-0.0029933408,-0.006185877,0.0034075587,0.44903278,0.41665956,0.42869118,0.44023854,-0.011670839,-0.0043803416,0.013933409,0.016790595,164,6,231,2,0,-7051.456,282.67722,4321.5317,26.218187,526523.2,1374.9126,117.420265,110.5204,114.96422,114.96422,0,1,-40.254128,0,0,1.874804,1.8748039,0,7,255,0,0,0,1,0,49,0
True,18085796,15999.99,0,3838.959,0.14191961,-0.5681776,13.608583,-0.00030326843,-0.23909776,27.546638,0.010912544,0.0030195354,0.022797465,1.9619454,-0.06307919,-0.018142564,0.13984682,0.17696634,0.3204032,0.36223546,0.38352734,0.37776256,0.41939437,0.4194489,88.33358,88.2934,88.85207,88.83932,0,0,0,0,0,0,0,0,0,0,0,0,-0.0051472895,-0.002725529,-0.0027821606,0.0033003625,0.38356188,0.3777724,0.41940358,0.41946188,-0.01551188,-0.01095856,0.009200979,0.014174521,164,6,231,2,0,-7048.957,282.82648,4320.502,27.547674,551728.25,1373.919,117.227936,110.63138,115.103516,115.103516,0,1,-38.337013,0,0,1.9754404,1.9754403,0,7,255,0,0,0,1,0,49,0
True,18085921,15999.99,0,4053.2334,-0.13832664,-0.0017264336,13.663725,0.0011835098,-0.2610056,29.11354,-0.022048559,0.0020045685,0.017259538,1.9621631,-0.063992314,-0.015745917,0.18465605,0.21313035,0.28131577,0.29658234,0.3905055,0.35618627,0.38688454,0.40101695,93.46286,93.19642,93.71468,93.800766,0,0,0,0,0,0,0,0,0,0,0,0,-0.0045633563,-0.0019343856,-0.0015854043,-0.0004751316,0.39053214,0.35619152,0.3868878,0.40101722,-0.01001529,-0.0065224506,0.0045537725,0.006368853,164,6,231,2,0,-7045.9355,283.00482,4319.256,29.114714,598167.7,1411.1495,117.0229,110.75284,115.2658,115.2658,0,1,-36.017952,0,0,2.090916,2.090916,0,7,255,0,0,0,1,0,49,0
True,18086031,15999.99,0,4244.3125,-0.087781906,0.0029313155,13.155151,0.0019159317,-0.27623215,30.477592,0.015821487,0.0013076348,0.013686121,1.9623451,-0.06461606,-0.014034897,0.22533599,0.23537798,0.3342197,0.34844163,0.40253103,0.42470932,0.38621184,0.38389006,97.88212,98.05056,98.06318,98.035904,0,0,0,0,0,0,0,0,0,0,0,0,-0.0047027813,-0.00074341946,-0.0038283775,0.0018829462,0.4025585,0.42470998,0.38623083,0.38389468,-0.0050252303,-0.0037934147,0.010843661,0.01253454,164,6,231,2,0,-7043.1445,283.17233,4318.104,30.478844,613045.8,1380.9373,116.87356,110.86807,115.40654,115.40654,0,1,-33.87546,0,0,2.19234,2.1923397,0,7,255,0,0,0,1,0,49,0
True,18086125,15999.99,0,4434.4473,-0.19410467,-0.40751734,13.066743,0.0026159286,-0.27403724,31.828585,0.013752829,0.001726345,0.009257161,1.9624318,-0.062859245,-0.012828403,0.1826566,0.20681658,0.36838868,0.36646926,0.40688962,0.38587207,0.39963183,0.4099638,102.26787,102.08653,102.504395,102.571754,0,0,0,0,0,0,0,0,0,0,0,0,-0.004089229,-0.0009507554,-0.0053218803,0.0032679697,0.40691015,0.38587323,0.39966726,0.4099768,-0.010260556,-0.0072969384,0.0149060935,0.01467789,164,6,231,2,0,-7040.21,283.3469,4316.8926,31.829762,637836.5,1374.899,116.74498,110.98654,115.55356,115.55356,0,1,-31.622732,0,0,2.294342,2.2943413,0,7,255,0,0,0,1,0,49,0
True,18086250,15999.99,0,4656.331,2.1340947,-0.36856157,12.826807,0.10125446,-0.2825322,33.394093,0.0005898904,0.13283731,0.034331996,1.9669502,-0.061570313,-0.010840504,0.16939886,0.18631914,0.29522398,0.29916584,0.33241388,0.52917033,0.34901434,0.45450845,106.96604,108.04891,107.423874,107.67809,0,0,0,0,0,0,0,0,0,0,0,0,0.36533055,0.39379367,0.0141422935,0.016335528,0.49392852,0.6596171,0.34930074,0.45480192,-0.011886837,-0.009811286,0.0062073544,0.006676011,164,6,231,2,0,-7036.6035,283.5563,4315.3945,33.39544,645622.5,1325.3041,116.63082,111.14519,115.730354,115.730354,0,1,-28.851967,0,0,2.4141746,2.414174,0,7,255,0,0,0,1,94,49,0
True,18086359,15999.99,0,4820.5537,6.9749084,0.2646935,11.9404335,-0.020348549,-0.2942223,34.612305,-0.01846084,0.36821872,0.043370064,1.99433,-0.06267226,-0.007806954,0.24000792,0.23928942,0.3315802,0.3118106,0.24150181,0.635237,0.27426603,0.48452133,110.647316,112.14413,111.271255,111.3126,0,0,0,0,0,0,0,0,0,0,0,0,0.23384151,0.25776455,0.12024263,0.13492107,0.33616212,0.6855425,0.29946643,0.50295585,-0.0032254755,-0.0033136122,0.0105298385,0.0081793815,164,6,231,2,0,-7033.3496,283.74622,4313.978,34.61356,628759.94,1246.2119,116.67259,111.4364,115.86807,115.86807,0,1,-26.334534,0,0,2.5186172,2.5186167,0,7,255,0,0,0,1,0,47,0
True,18086453,15999.99,0,5006.5186,5.635231,-0.3690706,12.657611,-0.35864735,-0.28997353,35.933125,0.041007526,0.12148557,0.037219938,2.0198336,-0.061516438,-0.0061149993,0.20847003,0.2113557,0.36372697,0.34588507,0.373213,0.50165284,0.32961205,0.45598316,115.42502,115.950806,115.34249,115.83369,0,0,0,0,0,0,0,0,0,0,0,0,0.051663913,0.056604087,0.13107051,0.14716767,0.37677193,0.5048362,0.35471618,0.47914398,-0.007094115,-0.0067401417,0.014351856,0.012230586,164,6,231,2,0,-7029.943,283.95023,4312.412,35.936085,651641.25,1244.0515,116.58749,111.60036,116.02723,116.02723,0,1,-23.6774,0,0,2.624978,2.6249778,0,7,255,0,0,0,1,0,45,0
True,18086578,15999.99,0,5200.328,3.3151522,-1.8101356,11.730364,-0.18766785,-0.27212805,37.348534,0.03832888,0.01756763,0.031768054,2.0263195,-0.054288484,-0.0018957324,0.1956155,0.180011,0.31119704,0.29551652,0.28074226,0.38596827,0.42531583,0.4590711,118.75604,119.64272,120.48622,120.685,0,0,0,0,0,0,0,0,0,0,0,0,0.042140592,0.045906417,0.053748485,0.056545112,0.2838874,0.38868868,0.42869857,0.46254042,-0.008670934,-0.010585081,0.008106433,0.0062421374,164,6,231,2,0,-7025.88,284.17636,4310.4707,37.35,674100.56,1238.683,116.518486,111.765816,116.209076,116.209076,0,1,-20.487772,0,0,2.7479923,2.747992,0,7,255,0,0,0,1,0,40,0
True,18086687,15999.99,0,5326.533,4.0536437,0.5019838,13.137909,0.007200241,-0.27088827,38.66168,-0.09332197,0.13168538,0.02995225,2.0317013,-0.056181673,0.00063471316,0.38873792,0.3589689,0.37310734,0.33827153,0.14982699,0.19353966,0.27553985,0.3445692,122.0664,121.86038,123.57836,123.58514,0,0,0,0,0,0,0,0,0,0,0,0,0.14102647,0.15031327,0.031204203,0.039224226,0.20575857,0.24505444,0.2773011,0.34679458,0.015018694,0.011367038,0.015467111,0.011325389,164,6,231,2,0,-7022.36,284.35965,4308.7485,38.66263,752298.2,1349.2917,116.47113,111.888054,116.36351,116.36351,0,1,-17.714027,0,0,2.8511956,2.851195,0,7,255,0,0,0,1,37,35,0
True,18086796,15999.99,0,5520.616,3.619773,2.7634737,12.067158,-0.13567162,-0.2882995,39.906998,0.0364429,0.06753832,-0.009114331,2.045378,-0.064921856,0.0004712939,0.37180203,0.33985287,0.5278357,0.49187127,0.31019932,0.44118068,0.26927444,0.30145416,127.367874,128.36472,127.286835,127.304504,0,0,0,0,0,0,0,0,0,0,0,0,0.00879182,0.014816912,0.028840324,0.072651215,0.3103239,0.4414294,0.2708145,0.31008515,0.01294123,0.009022143,0.033863164,0.029587261,164,6,231,2,0,-7018.823,284.57446,4306.965,39.908264,751051.4,1300.7167,116.430145,111.99411,116.4998,116.4998,0,1,-14.9116745,0,0,2.952121,2.9521208,0,7,255,0,0,0,1,0,29,0
True,18086906,15999.99,0,5721.1177,1.4888744,-1.3281455,11.318829,-0.10101318,-0.24000305,41.240044,0.027064975,0.014416722,-0.019560024,2.0493114,-0.058262564,-0.0020561789,0.2831087,0.25120994,0.39680636,0.37331238,0.32048213,0.3235564,0.3704835,0.3944471,131.58975,131.5131,132.35358,132.5213,0,0,0,0,0,0,0,0,0,0,0,0,0.021176197,0.024241999,0.02390589,0.035681598,0.321181,0.32446328,0.37125397,0.39605767,0.0020615421,-0.001851365,0.01828475,0.015491489,164,6,231,2,0,-7014.502,284.8431,4304.7485,41.240864,708675.5,1183.447,116.39217,112.12962,116.65738,116.65738,0,1,-11.477512,0,0,3.0719497,3.0719495,0,7,255,0,0,0,1,0,21,0
True,18087015,15999.99,0,5871.1562,0.83804226,-1.3341624,11.197803,-0.03443718,-0.26583016,42.42442,0.015785053,0.00061742705,0.0010772943,2.0498495,-0.055368815,-0.0029852425,0.24516346,0.23148601,0.34870514,0.32618755,0.27624136,0.27334952,0.35393628,0.36079106,134.78235,134.77788,136.00764,136.05302,0,0,0,0,0,0,0,0,0,0,0,0,0.007132056,0.0095634,0.0053726733,0.010504964,0.27633342,0.27351677,0.35397705,0.36094394,-0.0025930665,-0.0042708293,0.012565866,0.009888694,164,6,231,2,0,-7010.605,285.06525,4302.733,42.425262,747099,1215.9421,116.38115,112.22612,116.79942,116.79942,0,1,-8.376465,0,0,3.1769252,3.1769252,0,7,255,0,0,0,1,0,14,0
True,18087125,15999.99,0,5990.4785,0.017569542,0.7110088,11.601662,-0.0023918152,-0.31079614,43.61522,-0.061786726,-0.0010687495,-0.0108161345,2.0498102,-0.05860384,-0.003240708,0.28607166,0.27056542,0.34875953,0.3408648,0.19467951,0.21052581,0.24823682,0.24509428,137.76418,137.93945,138.6234,138.6069,0,0,0,0,0,0,0,0,0,0,0,0,0.00080710725,0.0026218782,-0.0020521046,0.0035017687,0.19468118,0.21054213,0.2482453,0.2451193,0.0024249963,0.0005229004,0.012572337,0.011633713,164,6,231,2,0,-7006.662,285.2859,4300.687,43.61632,752273.3,1199.8013,116.36748,112.310165,116.93295,116.93295,0,1,-5.237275,0,0,3.2802672,3.2802672,0,7,255,0,0,0,1,0,6,0
True,18087234,15999.99,0,6209.685,0.14181042,0.0039055645,10.650259,0.0073719025,-0.30091548,44.896908,0.051179513,0.00027296343,-0.004950851,2.0497355,-0.059493884,-0.004688587,0.27036634,0.25634995,0.38952833,0.37098324,0.34818155,0.3130309,0.3204624,0.3219438,143.45378,143.0724,143.49161,143.48627,0,0,0,0,0,0,0,0,0,0,0,0,-0.0034148896,0.00046334823,-0.006932004,0.0030264007,0.3481983,0.31303126,0.32053736,0.321958,0.0004984811,-0.0012208596,0.017419446,0.01521457,164,6,231,2,0,-7001.941,285.56967,4298.2344,44.897915,747688.94,1150.7645,116.357346,112.39883,117.07442,117.07442,0,1,-1.4769249,0,0,3.4005923,3.4005923,0,7,255,0,0,0,1,0,253,0
True,18087343,15999.99,0,6352.869,-1.2972987,-1.7249502,10.039872,-0.03637123,-0.29800183,45.954617,0.02917454,-0.08980478,-0.017578099,2.0470707,-0.054558024,-0.0052926713,0.24827342,0.2467947,0.3450144,0.3396046,0.3463097,0.24836774,0.3594511,0.30745918,146.60243,145.87408,147.0596,146.8905,0,0,0,0,0,0,0,0,0,0,0,0,-0.2540834,-0.23817399,-0.01741777,-0.011410866,0.42952156,0.34411246,0.35987282,0.30767083,-0.0022115782,-0.0023929663,0.012127068,0.011483882,164,6,231,2,0,-6997.788,285.80466,4296.0825,45.955597,743249.25,1117.766,116.382706,112.49429,117.20176,117.20176,-0.93210125,1,1.8282955,0,0,3.503657,3.5036573,0,7,255,0,0,0,1,-127,245,0
True,18087468,15999.99,0,6465.0923,-3.7179577,-0.25669068,10.296043,0.29556084,-0.30748543,47.046986,-0.021544332,-0.143515,0.002047995,2.028726,-0.054530695,-0.0059450087,0.26479128,0.28619316,0.34312543,0.36167195,0.21463348,0.18695752,0.3072594,0.22775622,148.39824,148.79874,149.81003,149.57393,0,0,0,0,0,0,0,0,0,0,0,0,-0.02079307,-0.018288998,-0.10371515,-0.09091617,0.21563832,0.18784994,0.32429183,0.2452318,-0.0001853928,0.0024399012,0.011902485,0.014107525,164,6,231,2,0,-6993.412,286.03815,4293.8647,47.048916,752292.5,1111.7031,116.45389,112.62464,117.34112,117.34112,-6.1262064,1,5.297489,0,0,3.609245,3.6092455,0,6,255,0,0,0,1,0,237,0
True,18087578,15999.99,0,6611.395,-3.8226523,0.88942456,9.7826185,0.1990242,-0.31280014,48.131844,0.008470367,-0.013558094,0.010504912,2.0215967,-0.057294954,-0.0058890595,0.29203233,0.32411855,0.37486142,0.40078428,0.29213265,0.21563481,0.23874855,0.22636406,153.10245,152.24889,152.7272,152.65894,0,0,0,0,0,0,0,0,0,0,0,0,-0.043390114,-0.038401045,-0.048938368,-0.037661623,0.2953374,0.21902741,0.2437126,0.22947568,0.0031561702,0.00709207,0.015675656,0.018757693,164,6,231,2,0,-6988.7637,286.29575,4291.568,48.13327,752261,1087.2743,116.46656,112.699265,117.47148,117.47148,-10.75898,1,8.967126,0,0,3.718281,3.7182815,0,6,255,0,0,0,1,0,230,0
True,18087687,15999.99,0,6771.724,-1.0215952,-0.6319356,9.563628,0.04393387,-0.29676402,49.322376,-0.0057619046,0.00350244,0.012304006,2.0216668,-0.054702632,-0.0034169266,0.2347773,0.256985,0.34511572,0.3584247,0.19945651,0.21391353,0.25788403,0.24979734,155.74133,155.90012,156.73988,156.65497,0,0,0,0,0,0,0,0,0,0,0,0,-0.012062415,-0.010174748,-0.011759156,-0.0053177914,0.19982092,0.21415538,0.25815198,0.24985394,-0.0038670972,-0.00114296,0.012139112,0.013721455,164,6,231,2,0,-6983.3916,286.59232,4288.9536,49.32329,752284.94,1061.2054,116.49483,112.784744,117.60301,117.60301,-14.7,1,13.1971655,0,0,3.8410203,3.841021,0,6,255,0,0,0,1,0,223,0
True,18087796,15999.99,0,6900.6484,-0.438483,0.03887412,9.270251,0.007833481,-0.3118583,50.2846,0.01874607,0.0020180717,-0.003677715,2.0219767,-0.055486333,-0.003414701,0.26347178,0.2618468,0.34214857,0.3551993,0.24122548,0.22673331,0.2292699,0.23351927,159.27599,159.08032,159.45398,159.48465,0,0,0,0,0,0,0,0,0,0,0,0,-0.003493558,-0.0006522816,-0.003266032,0.0022456355,0.24125077,0.22673425,0.22929317,0.23353007,-0.0003472492,-0.0005465783,0.011786345,0.013337977,164,6,231,2,0,-6978.8066,286.843,4286.731,50.28557,752254.1,1041.4945,116.51335,112.85229,117.71269,117.71269,-14.7,1,16.804253,0,0,3.9434152,3.943416,0,6,255,0,0,0,1,0,217,0
True,18087906,15999.99,0,7015.281,0.011816025,0.2987207,9.220595,-0.0024490356,-0.31228438,51.265617,-0.036729682,0.001072784,0.013856604,2.0221689,-0.0557424,-0.002843615,0.28126043,0.29697093,0.33032072,0.34986603,0.16806751,0.16706333,0.2103873,0.21060179,161.49646,161.4833,162.29883,162.29767,0,0,0,0,0,0,0,0,0,0,0,0,-0.0015751229,0.00036675236,-0.0019458869,0.0028517148,0.16807489,0.16706373,0.2103963,0.2106211,0.001834821,0.0037619695,0.0103801,0.012703888,164,6,231,2,0,-6973.974,287.10635,4284.3887,51.266563,752266.75,1024.3597,116.54095,112.92452,117.82415,117.82415,-14.7,1,20.606781,0,0,4.0492773,4.0492783,0,6,255,0,0,0,1,0,211,0
True,18088015,15999.99,0,7179.851,-0.26176572,-0.35487992,9.304981,-0.03127098,-0.2893945,52.327488,0.015300447,-0.028180428,0.004672164,2.0218024,-0.05518084,-0.0013154864,0.30028796,0.30754638,0.3785208,0.38306078,0.21363464,0.18889698,0.25697082,0.24340142,165.31902,165.11263,166.16394,166.11472,0,0,0,0,0,0,0,0,0,0,0,0,-0.107807115,-0.10249506,-0.0051813186,0.0040645055,0.23929508,0.21491233,0.25702304,0.24343535,0.004168857,0.0050592236,0.016110726,0.016650502,164,6,231,2,0,-6968.3516,287.4207,4281.664,52.3283,752275.8,1000.913,116.56946,113.00008,117.948105,117.948105,-14.7,1,25.031078,0,0,4.1700206,4.170021,0,6,255,0,0,0,1,-60,203,0
True,18088125,15999.99,0,7319.3584,-4.37449,-0.9078357,8.324683,0.12953758,-0.2825031,53.17183,0.03921276,-0.23571466,-0.002419021,2.0086741,-0.053242855,-0.0008825493,0.23335235,0.2873545,0.34853098,0.37687567,0.39642516,0.18611786,0.3077503,0.22148374,169.81009,168.16449,169.09132,169.03658,0,0,0,0,0,0,0,0,0,0,0,0,-0.41866437,-0.37418014,-0.08081417,-0.06948862,0.5765698,0.41791224,0.3181842,0.23212866,-0.0040418915,0.0025823563,0.012545161,0.015915137,164,6,231,2,0,-6963.555,287.68115,4279.3706,53.172737,752268.3,981.9706,116.647606,113.118576,118.05199,118.05199,-14.7,1,28.796858,0,0,4.270901,4.270902,0,6,255,0,0,0,1,-88,197,0
True,18088218,15999.99,0,7392.071,-8.054107,0.18033499,8.426691,0.6972561,-0.30424523,54.021595,-0.01573024,-0.1874338,0.010269794,1.981959,-0.053860594,0.0012600146,0.2817532,0.35272655,0.32649812,0.3875077,0.23928426,0.14533184,0.2330367,0.16300935,170.66423,170.28674,170.85332,170.83975,0,0,0,0,0,0,0,0,0,0,0,0,-0.08774207,-0.07930179,-0.17071497,-0.15200134,0.25486395,0.16556002,0.28887662,0.22288215,0.0018952675,0.010601312,0.009925619,0.01717921,164,6,231,2,0,-6958.7075,287.93524,4277.1357,54.02695,752557.3,972.6013,116.73937,113.24808,118.179276,118.179276,-14.7,1,32.57986,0,0,4.3705807,4.370582,0,6,255,0,0,0,1,0,193,0
True,18088343,15999.99,0,7520.73,-6.6142373,-0.38606858,8.464196,0.39715576,-0.2838996,54.98328,-0.02782048,-0.025764488,0.01602253,1.9727027,-0.052460518,0.003790568,0.29284215,0.37870097,0.3255926,0.42007774,0.16943417,0.14610566,0.23060824,0.198328,173.11206,172.9328,174.16998,173.92482,0,0,0,0,0,0,0,0,0,0,0,0,-0.06968266,-0.066176824,-0.0815165,-0.067581646,0.18320376,0.160394,0.2445917,0.20952632,0.0032555088,0.013787501,0.009817962,0.021051541,164,6,231,2,0,-6952.899,288.2386,4274.5723,54.985443,752368.44,955.4867,116.79102,113.333725,118.311455,118.311455,-14.7,1,37.081905,0,0,4.487187,4.4871883,0,6,255,0,0,0,1,0,190,0
True,18088453,15999.99,0,7642.1245,-2.946578,0.40902397,8.09477,0.0871582,-0.2717244,55.894215,-0.005464784,0.008274492,0.04644489,1.9725773,-0.053627703,0.0060514044,0.3150336,0.37939674,0.40596154,0.45168358,0.19823937,0.13836727,0.19736214,0.20633839,176.44333,175.58197,176.70789,176.79205,0,0,0,0,0,0,0,0,0,0,0,0,-0.022992674,-0.019310376,-0.02293737,-0.003954494,0.19956832,0.13970824,0.19869055,0.20637628,0.005977653,0.013872847,0.019373234,0.024809241,164,6,231,2,0,-6947.1587,288.54065,4272.1084,55.89494,752551.9,940.70807,116.82923,113.40723,118.4246,118.4246,-14.7,1,41.51231,0,0,4.599968,4.599969,0,6,255,0,0,0,1,0,188,0
True,18088562,15999.99,0,7750.6074,-0.81090736,0.011666425,8.207117,-0.010663986,-0.2724445,56.691444,0.004852645,0.0030212754,0.05608747,1.9732522,-0.053689238,0.012573468,0.2830711,0.35976887,0.33759543,0.41730407,0.15701793,0.18492895,0.20222796,0.1991546,178.3369,178.72015,179.2691,179.23015,0,0,0,0,0,0,0,0,0,0,0,0,-0.0030279816,-0.000688091,-0.002657417,0.007805349,0.15704712,0.18493024,0.20224543,0.1993075,0.0020569265,0.011465166,0.011245009,0.02072177,164,6,231,2,0,-6941.924,288.8194,4269.8784,56.692097,752281.2,927.19476,116.862915,113.46558,118.52249,118.52249,-14.7,1,45.548035,0,0,4.701138,4.70114,0,6,255,0,0,0,1,0,187,0
True,18088671,15999.99,0,7889.0024,-0.38813734,-1.0163237,7.870686,-0.017539978,-0.27808893,57.611794,0.034743506,-0.0020796421,0.025319025,1.9732275,-0.051755108,0.01666364,0.28353986,0.32543793,0.34651348,0.37484878,0.19119824,0.19316895,0.22291717,0.22289348,181.69684,181.7192,182.4464,182.46321,0,0,0,0,0,0,0,0,0,0,0,0,0.0009178939,0.0037174681,-0.0014277357,0.0053400276,0.19120045,0.19320472,0.22292174,0.22295745,0.00211443,0.007253915,0.012305301,0.015674155,164,6,231,2,0,-6935.592,289.15146,4267.1846,57.612465,752264.75,910.94434,116.90136,113.53319,118.6357,118.6357,-14.7,1,50.42931,0,0,4.821656,4.821658,0,6,255,0,0,0,1,0,185,0
True,18088796,15999.99,0,7981.712,0.097971916,0.14558448,7.909225,-0.018611908,-0.2902733,58.528893,-0.02542522,-0.0033069686,0.0452782,1.9729861,-0.05159174,0.021110032,0.3450267,0.41261607,0.4134235,0.45502484,0.1416676,0.14428984,0.16687843,0.16737457,183.90024,183.95682,184.5458,184.56007,0,0,0,0,0,0,0,0,0,0,0,0,0.0005081426,0.0030663572,-0.006992657,0.01208721,0.14166853,0.14432241,0.16702488,0.16781044,0.009656798,0.01794774,0.020260401,0.025206491,164,6,231,2,0,-6929.226,289.47015,4264.477,58.52961,752483.8,900.58136,116.94709,113.60809,118.74908,118.74908,-14.7,1,55.335903,0,0,4.9408813,4.9408836,0,6,255,0,0,0,1,0,184,0
True,18088890,15999.99,0,8101.156,-0.3106947,-0.6274474,7.305572,-0.007505417,-0.26430678,59.242798,0.024062004,-0.0054528187,0.031186923,1.9725401,-0.050236568,0.024623306,0.2833801,0.342398,0.36940193,0.4068252,0.1760351,0.1642088,0.20971482,0.2110665,186.60056,186.44012,187.37941,187.4238,0,0,0,0,0,0,0,0,0,0,0,0,-0.00012690881,0.0022946547,-0.0051292405,0.006168582,0.17603515,0.16422483,0.20977753,0.21115662,0.0020948313,0.009334344,0.015026566,0.019475918,164,6,231,2,0,-6923.886,289.741,4262.208,59.243393,752513.06,887.2737,116.97905,113.66083,118.84057,118.84057,-14.7,1,59.450623,0,0,5.0395,5.039503,0,6,255,0,0,0,1,0,182,0
True,18089015,15999.99,0,8194.723,-2.0718043,0.6297442,7.3497515,-0.043224335,-0.28454757,60.080254,-0.0030788602,-0.085993744,0.035310954,1.9698153,-0.051479485,0.029096276,0.34503758,0.4093429,0.38085172,0.43025464,0.18694395,0.14366004,0.17144328,0.1495486,189.22662,188.97444,189.31145,189.35992,0,0,0,0,0,0,0,0,0,0,0,0,-0.20339291,-0.19064978,-0.014574432,-0.0012882352,0.2762548,0.23871645,0.17206165,0.14955416,0.009658132,0.017546237,0.016387857,0.0222615,164,6,231,2,0,-6917.579,290.05533,4259.535,60.080948,752586.1,877.3697,117.027176,113.73845,118.95026,118.95026,-14.7,1,64.309105,0,0,5.154405,5.154407,0,6,255,0,0,0,1,-121,181,0
True,18089125,15999.99,0,8313.582,-3.0597677,-1.4334239,7.0443897,0.36268997,-0.24416006,60.75761,0.0174631,-0.11205899,0.042070694,1.956324,-0.047529973,0.033937767,0.27539134,0.37515977,0.33176306,0.44064662,0.1587128,0.14793898,0.25338432,0.21313894,190.8606,191.23718,192.53688,192.48619,0,0,0,0,0,0,0,0,0,0,0,0,-0.036748014,-0.034382068,-0.087615676,-0.07139594,0.16291153,0.15188175,0.26810467,0.22477898,0.0011148788,0.013353113,0.010551579,0.02349703,164,6,231,2,0,-6912.085,290.326,4257.2476,60.759186,752261.4,864.23,117.0922,113.82515,119.04076,119.04076,-14.7,1,68.53023,0,0,5.2530003,5.253002,0,6,255,0,0,0,1,0,181,0
True,18089218,15999.99,0,8377.346,-4.3105354,-0.66641796,6.9985046,0.30794907,-0.25799203,61.381897,0.004606774,-0.02804183,0.027254391,1.9506345,-0.04678816,0.036638234,0.28689918,0.36347842,0.33744928,0.41996932,0.15511544,0.12583834,0.19821586,0.18061125,192.9303,192.64891,193.8918,193.78642,0,0,0,0,0,0,0,0,0,0,0,0,-0.04752439,-0.04416529,-0.05934622,-0.04709533,0.16223244,0.13336363,0.2069094,0.18665047,0.002526503,0.0119202025,0.01122763,0.021038651,164,6,231,2,0,-6907.102,290.55826,4255.21,61.38321,752270,857.73145,117.12729,113.880745,119.127045,119.127045,-14.7,1,72.3473,0,0,5.3412175,5.3412194,0,6,255,0,0,0,1,0,181,0
True,18089328,15999.99,0,8481.406,-2.7232983,0.5897658,6.3194337,0.07765579,-0.2720474,62.148975,0.036577463,0.0030728783,0.030207928,1.9494795,-0.048586495,0.039875288,0.33058158,0.37458178,0.3913745,0.4330616,0.19753441,0.17496265,0.16244462,0.16347145,196.08295,195.73161,195.85556,195.85637,0,0,0,0,0,0,0,0,0,0,0,0,-0.017926242,-0.014140914,-0.01809146,-0.0036030195,0.19834615,0.17553318,0.16344894,0.16351116,0.0078848675,0.013282213,0.01763894,0.022595227,164,6,231,2,0,-6900.639,290.86282,4252.6133,62.149616,752268.4,847.41266,117.17153,113.95062,119.233635,119.233635,-14.7,1,77.286606,0,0,5.454058,5.45406,0,6,255,0,0,0,1,0,182,0
True,18089453,15999.99,0,8626.6045,-0.95332694,-3.0215406,6.3221,-0.027542114,-0.2751422,62.98508,0.060920674,0.0016163145,0.04821838,1.9501698,-0.04171309,0.044300083,0.23989958,0.3009468,0.30386412,0.35340944,0.21996605,0.18857715,0.22558033,0.23014608,198.98044,198.49648,199.46393,199.51932,0,0,0,0,0,0,0,0,0,0,0,0,0.00040101697,0.0029847506,0.0017103587,0.0054182955,0.21996641,0.18860075,0.22558682,0.23020986,-0.0032387674,0.004249677,0.007234607,0.013125174,164,6,231,2,0,-6893.2505,291.18814,4249.667,62.98568,752268.4,832.97,117.21385,114.01586,119.33949,119.33949,-14.7,1,82.9268,0,0,5.581291,5.5812926,0,6,255,0,0,0,1,0,184,0
True,18089562,15999.99,0,8693.888,-0.23019671,0.12290704,6.937108,-0.044290543,-0.31443143,63.803585,0.019875795,-0.0036373548,0.022105277,1.9500729,-0.042369917,0.05027179,0.2641205,0.3108554,0.31053448,0.3611181,0.1425015,0.18224412,0.14895818,0.14634764,200.40407,201.04762,200.82283,200.79916,0,0,0,0,0,0,0,0,0,0,0,0,0.0057344977,0.0084551675,0.00418724,0.007858821,0.14261684,0.18244015,0.14901702,0.14655851,-0.00026767328,0.0054651275,0.008027658,0.014041677,164,6,231,2,0,-6886.137,291.46918,4246.8345,63.80437,752592.3,826.97217,117.2708,114.08818,119.4511,119.4511,-14.7,1,88.36052,0,0,5.7021055,5.702107,0,6,255,0,0,0,1,0,186,0
True,18089671,15999.99,0,8760.016,-0.29239142,1.0172207,6.324416,-0.029468536,-0.31851923,64.45226,-0.052625783,-0.0033238246,-0.0057911873,1.9496899,-0.043437492,0.05029508,0.31196025,0.3037466,0.343439,0.35422668,0.11080947,0.11660668,0.12132509,0.12114215,202.00128,202.117,202.43607,202.45009,0,0,0,0,0,0,0,0,0,0,0,0,0.004776433,0.006273613,0.0019427005,0.005983223,0.11091237,0.11677533,0.12134064,0.12128982,0.0056006573,0.004593119,0.011939768,0.0132223405,164,6,231,2,0,-6880.256,291.70377,4244.4937,64.45305,752273.75,820.1911,117.31546,114.152176,119.54057,119.54057,-14.7,1,92.848114,0,0,5.800878,5.80088,0,6,255,0,0,0,1,0,187,0
True,18089765,15999.99,0,8870.988,-0.3541479,-0.26237535,6.391326,-0.020357132,-0.2758937,65.07883,-0.01469222,-0.004013596,-0.012151183,1.9493121,-0.042563703,0.049380545,0.27804095,0.253814,0.31687656,0.3162682,0.10469567,0.11641359,0.18907852,0.18127595,203.82597,204.02153,205.42561,205.34158,0,0,0,0,0,0,0,0,0,0,0,0,0.003917288,0.0046936157,0.0014949389,0.0040687285,0.10476893,0.11650818,0.18908443,0.1813216,0.0014398955,-0.0015319325,0.008781686,0.00870936,164,6,231,2,0,-6874.1533,291.95917,4242.0664,65.07941,752270.06,809.8624,117.3518,114.203064,119.63411,119.63411,-14.7,1,97.504425,0,0,5.902352,5.902354,0,6,255,0,0,0,1,0,189,0
True,18089890,15999.99,0,8953.454,-0.41800368,3.4402628,5.9232454,-0.014957428,-0.2754165,65.850296,-0.011079975,-0.0020630057,-0.032123238,1.9485973,-0.049938556,0.045671135,0.38525033,0.33913562,0.4131168,0.39738578,0.12104228,0.12805527,0.12859127,0.124689676,206.50702,206.62866,206.90761,206.86858,0,0,0,0,0,0,0,0,0,0,0,0,0.0029644426,0.0052872347,-0.0038826813,0.007930593,0.12107858,0.12816438,0.12864988,0.124941625,0.0145908855,0.008934159,0.020223938,0.018353634,164,6,231,2,0,-6866.5825,292.3025,4239.0596,65.85087,752273.4,802.6037,117.42473,114.29047,119.76449,119.76449,-14.7,1,103.292625,0,0,6.026865,6.026867,0,6,255,0,0,0,1,0,192,0
True,18090000,15999.99,0,9047.715,-0.1386261,1.7393113,5.983243,-0.02088356,-0.25788236,66.575066,-0.053847134,-0.0006865121,-0.031115014,1.948392,-0.051693425,0.04225224,0.3839668,0.34218803,0.38612768,0.35733888,0.092206776,0.100582734,0.13230948,0.13151316,208.33067,208.4762,209.25429,209.2449,0,0,0,0,0,0,0,0,0,0,0,0,0.0037838663,0.004968556,-0.00052130537,0.0067168674,0.09228438,0.10070538,0.13231051,0.13168459,0.01443344,0.009308588,0.017015133,0.013592359,164,6,231,2,0,-6859.1714,292.67172,4236.12,66.57557,752272.75,794.1165,117.47861,114.36168,119.870926,119.870926,-14.7,1,108.94682,0,0,6.147398,6.1474004,0,6,255,0,0,0,1,0,195,0
True,18090125,15999.99,0,9135.342,0.26264727,3.2539876,5.6332493,-0.016431808,-0.25458896,67.236084,-0.073141016,-0.00015189731,-0.042718735,1.9480888,-0.057614233,0.037401047,0.38034475,0.32639766,0.3877382,0.37005728,0.087251045,0.09404779,0.13068408,0.12730466,210.33627,210.45119,211.31276,211.26999,0,0,0,0,0,0,0,0,0,0,0,0,0.0036553817,0.0044075437,-0.001093279,0.0073124403,0.087327585,0.09415102,0.13068865,0.1275145,0.013989136,0.0073716417,0.01720661,0.015104484,164,6,231,2,0,-6852.0996,293.0591,4233.3174,67.23657,752451.06,786.7568,117.54401,114.438576,119.98478,119.98478,-14.7,1,114.34284,0,0,6.2612247,6.2612267,0,6,255,0,0,0,1,0,197,0
True,18090218,15999.99,0,9214.625,-0.16022408,2.3393202,5.947006,-0.013990402,-0.23937058,67.77577,-0.04340788,0.00057559065,-0.04393369,1.9479651,-0.060937554,0.032485545,0.38603908,0.33493012,0.4054232,0.36563748,0.08950953,0.08889527,0.14642105,0.14612459,212.0376,212.02863,213.22403,213.22794,0,0,0,0,0,0,0,0,0,0,0,0,0.0031251914,0.0037917483,-0.0028679844,0.0072069494,0.08956408,0.0889761,0.14644913,0.14630221,0.014687639,0.008418288,0.019309226,0.014579002,164,6,231,2,0,-6846.0845,293.42188,4230.935,67.77619,752363.94,779.797,117.59047,114.49809,120.07995,120.07995,-14.7,1,118.93669,0,0,6.357199,6.357201,0,6,255,0,0,0,1,0,200,0
True,18090328,15999.99,0,9318.327,0.22655761,2.0761135,5.363529,-0.020627975,-0.23305666,68.38833,0.043691322,0.0011757708,-0.03902618,1.9479679,-0.06560147,0.027823484,0.3880143,0.3302149,0.42427352,0.38903508,0.15162027,0.17033665,0.15511313,0.15095617,214.94109,215.27164,215.28534,215.22284,0,0,0,0,0,0,0,0,0,0,0,0,0.0031521104,0.006280689,-0.003929852,0.009198382,0.15165304,0.1704524,0.1551629,0.15123616,0.014929932,0.007839885,0.021550387,0.017360803,164,6,231,2,0,-6838.884,293.89453,4228.084,68.38873,752629,771.5927,117.649796,114.572296,120.19899,120.19899,-14.7,1,124.433266,0,0,6.4711356,6.471138,0,6,255,0,0,0,1,0,203,0
True,18090437,15999.99,0,9363.079,0.2838421,3.2383063,5.6447096,-0.013484955,-0.28248513,69.01319,-0.10108158,0.0014896966,-0.047010053,1.94805,-0.06960643,0.023048928,0.4354116,0.37041786,0.41082948,0.37572566,0.08055768,0.08543085,0.10296689,0.10153032,215.79713,215.87662,216.46536,216.43762,0,0,0,0,0,0,0,0,0,0,0,0,0.0028780575,0.0038335556,-0.002710705,0.0065233014,0.080609076,0.08551682,0.10300257,0.10173967,0.020743988,0.012771439,0.019951992,0.015778411,164,6,231,2,0,-6831.7866,294.36887,4225.2734,69.01377,752415.1,767.544,117.717834,114.654205,120.29677,120.29677,-0.26310635,1,129.85143,0,0,6.582452,6.5824547,0,6,255,0,0,0,1,0,206,0
True,18090562,15999.99,0,9447.596,0.17428398,3.0917358,5.469206,-0.018180847,-0.22621322,69.59189,-0.06996342,0.0038446458,-0.043076795,1.9481921,-0.074099004,0.01803262,0.48595035,0.42899144,0.5151966,0.47479737,0.08123599,0.08663106,0.12105515,0.11730545,217.59976,217.67677,218.50945,218.46004,0,0,0,0,0,0,0,0,0,0,0,0,0.002723847,0.0039470107,-0.015663112,0.01757614,0.08128164,0.08672093,0.12206425,0.118614875,0.026943393,0.019956447,0.03236047,0.027557299,164,6,231,2,0,-6824.652,294.89536,4222.4473,69.592255,752356.75,760.5652,117.77884,114.729904,120.41441,120.41441,0,1,135.30037,0,0,6.6934414,6.693444,0,6,255,0,0,0,1,0,209,0
True,18090656,15999.99,0,9541.685,0.1816845,1.8151699,5.2140884,-0.020877838,-0.21438038,70.15447,0.00031843223,0.002925145,-0.056014653,1.9485453,-0.07765694,0.012097205,0.42809016,0.37911564,0.44576886,0.3933644,0.118445456,0.112940505,0.14233117,0.14373256,219.92543,219.8124,220.62573,220.62733,0,0,0,0,0,0,0,0,0,0,0,0,0.0036476257,0.005752639,-0.00549695,0.0108829895,0.1185016,0.11308692,0.14243728,0.14414398,0.019845892,0.013838366,0.024106026,0.017875522,164,6,231,2,0,-6817.376,295.47293,4219.564,70.1548,752465,753.2206,117.83615,114.79894,120.527374,120.527374,0,1,140.85953,0,0,6.805735,6.8057375,0,6,255,0,0,0,1,0,212,0
True,18090765,15999.99,0,9593.314,0.45229232,3.1286497,4.9974127,-0.010791779,-0.23823136,70.706665,-0.07127321,0.003455432,-0.06998333,1.9488494,-0.08209228,0.0056202947,0.41413656,0.33457932,0.45629644,0.3939528,0.082787,0.08501943,0.10582944,0.10777643,221.09955,221.11714,221.78784,221.79903,0,0,0,0,0,0,0,0,0,0,0,0,0.0030546887,0.0036593673,-0.0067978245,0.009384176,0.08284333,0.08509815,0.10604754,0.10818421,0.018134255,0.0083752535,0.025357679,0.017945476,164,6,231,2,0,-6810.327,296.04895,4216.767,70.70707,752410.44,749.1312,117.90183,114.873795,120.62657,120.62657,0,1,146.24133,0,0,6.913705,6.913707,0,6,255,0,0,0,1,0,214,0
True,18090890,15999.99,0,9689.731,0.25170076,0.6150496,4.9859657,-0.009086609,-0.23382485,71.216446,-0.004591886,0.0036971038,-0.062678754,1.9492494,-0.08317001,-0.000965085,0.3419776,0.26975533,0.40959337,0.34596854,0.1084089,0.1085676,0.15357707,0.15592323,223.10268,223.08136,224.1369,224.16623,0,0,0,0,0,0,0,0,0,0,0,0,0.0024326048,0.0035535658,-0.003325885,0.006961851,0.10843619,0.10862575,0.15361309,0.15607858,0.009282775,0.00042353198,0.019805029,0.01224051,164,6,231,2,0,-6803.239,296.6611,4213.951,71.21683,752391.06,741.6229,117.947784,114.93401,120.72839,120.72839,0,1,151.66238,0,0,7.0215273,7.02153,0,6,255,0,0,0,1,0,216,0
True,18091015,15999.99,0,9750.05,0.2434665,2.8217735,4.800338,-0.006225586,-0.26851463,71.845436,-0.045532946,0.0048067532,-0.056531817,1.9497685,-0.08800882,-0.008087167,0.38444588,0.33695576,0.4314905,0.3837329,0.089157194,0.10073524,0.1083805,0.10703496,224.75706,224.93681,225.36685,225.33083,0,0,0,0,0,0,0,0,0,0,0,0,0.0014737854,0.0028913277,-0.005339356,0.0070036165,0.08916937,0.100776725,0.10851194,0.10726385,0.014492206,0.008666765,0.022408433,0.01673041,164,6,231,2,0,-6794.656,297.41458,4210.537,71.84594,752421.1,737.0865,118.020966,115.024,120.84958,120.84958,0,1,158.22125,0,0,7.151071,7.1510735,0,6,255,0,0,0,1,0,218,0
True,18091125,15999.99,0,9836.769,1.3226205,0.4986973,4.667985,0.026769638,-0.23989204,72.36074,-0.0017268267,0.05820976,-0.037605323,1.9512473,-0.08826824,-0.0154367285,0.38079464,0.31965727,0.4274072,0.37084305,0.102176,0.11989171,0.13037889,0.14430216,226.6707,226.73936,227.43417,227.42546,0,0,0,0,0,0,0,0,0,0,0,0,0.14862701,0.1557914,-0.002209672,0.010304818,0.18036056,0.19658327,0.1303976,0.14466964,0.014044322,0.006544821,0.02192296,0.015197903,164,6,231,2,0,-6787.1055,298.10764,4207.527,72.361145,752405.1,730.5321,118.07234,115.08811,120.952576,120.952576,0,1,164.00114,0,0,7.264204,7.2642064,0,6,255,0,0,0,1,70,219,0
True,18091250,15999.99,0,9890.242,8.145795,2.5648868,4.6524496,-0.4725113,-0.24859825,72.84949,-0.022942552,0.23042296,-0.052387387,1.9724168,-0.091817774,-0.019980071,0.38434815,0.27124718,0.41635397,0.32938525,0.09078298,0.12125662,0.09049721,0.13099739,228.44183,227.88867,228.68701,228.39877,0,0,0,0,0,0,0,0,0,0,0,0,0.018252742,0.020607222,0.082600385,0.09567558,0.09259974,0.12299523,0.12252579,0.16221632,0.014480218,0.0006065294,0.020608816,0.0102688745,164,6,231,2,0,-6779.5864,298.8103,4204.4556,72.85145,752410.75,726.62146,118.26217,115.24161,121.07707,121.07707,0,1,169.77737,0,0,7.376475,7.3764777,0,6,255,0,0,0,1,0,219,0
True,18091359,15999.99,0,9957.087,7.9726434,1.2128121,4.688577,-0.5945091,-0.26337865,73.34566,-0.030692395,0.04232528,-0.03439028,1.9861964,-0.09263972,-0.026339423,0.34553012,0.25484273,0.39803588,0.31260756,0.08601687,0.10823046,0.10653088,0.12472753,229.46379,229.65251,230.12886,230.2076,0,0,0,0,0,0,0,0,0,0,0,0,0.071174264,0.07556522,0.074864335,0.08510863,0.11164532,0.13199975,0.1302056,0.15099813,0.009718552,-0.0014057457,0.01843093,0.0082741305,164,6,231,2,0,-6771.992,299.54254,4201.235,73.34853,752324.44,721.5978,118.33472,115.308914,121.216675,121.216675,0,1,175.63745,0,0,7.489764,7.4897676,0,6,255,0,0,0,1,0,216,0
True,18091453,15999.99,0,10049.02,4.608572,-1.6390766,4.567368,-0.20323372,-0.2628691,73.74812,0.017473407,-0.012818056,-0.06399225,1.9863234,-0.090228826,-0.030611308,0.33104116,0.23767854,0.369764,0.27632636,0.10018052,0.115177184,0.18566547,0.19059543,230.84058,231.14426,232.61177,232.7162,0,0,0,0,0,0,0,0,0,0,0,0,0.03152476,0.03359865,0.02494407,0.029097341,0.105023555,0.11997772,0.18733358,0.19280373,0.007941242,-0.0035112128,0.015069611,0.0039605647,164,6,231,2,0,-6765.513,300.16995,4198.4146,73.74887,752329.2,714.9006,118.37961,115.35574,121.313095,121.313095,0,1,180.66165,0,0,7.586214,7.5862174,0,6,255,0,0,0,1,0,211,0
True,18091578,15999.99,0,10108.854,1.6688405,0.6378639,3.8843713,0.02867508,-0.27224907,74.31127,0.047577772,-0.0042703124,-0.046036668,1.9853272,-0.0927612,-0.03825793,0.36374754,0.29607362,0.4048694,0.33077,0.13303755,0.12522075,0.1450957,0.14327566,233.13478,233.00168,233.67342,233.6675,0,0,0,0,0,0,0,0,0,0,0,0,-0.0023509462,8.867431E-05,-0.0090949,-0.0007963073,0.13305832,0.12522078,0.14538047,0.14327787,0.011953216,0.0036518984,0.019243382,0.010433514,164,6,231,2,0,-6756.755,301.0186,4194.5645,74.311775,752529.1,711.0525,118.447174,115.43837,121.4384,121.4384,0,1,187.44933,0,0,7.715924,7.715927,0,6,255,0,0,0,1,0,204,0
True,18091671,15999.99,0,10139.683,0.33527792,0.8654503,4.3138294,0.043310165,-0.29056558,74.72731,-0.035134815,0.0016202158,-0.045444164,1.9852982,-0.09354434,-0.041602556,0.39339867,0.3522382,0.3717974,0.33119968,0.0860486,0.09698633,0.11138644,0.10866561,233.68971,233.86731,234.40045,234.36629,0,0,0,0,0,0,0,0,0,0,0,0,-0.004984293,-0.0033647025,-0.0066870484,-0.0019405602,0.08619284,0.09704468,0.11158699,0.10868293,0.015590414,0.010541409,0.015311368,0.010484599,164,6,231,2,0,-6750.3125,301.6442,4191.7275,74.72788,752382.3,708.69196,118.49542,115.50029,121.51219,121.51219,0,1,192.45242,0,0,7.81075,7.8107533,0,6,255,0,0,0,1,0,197,0
True,18091781,15999.99,0,10213.092,4.3381777,-0.5015578,3.9058504,0.019086838,-0.27372178,75.16706,-0.05198694,0.16582595,0.02449882,1.9919046,-0.09217947,-0.04554774,0.33426753,0.27273506,0.38736778,0.32017428,0.07731302,0.112713985,0.121135466,0.15258214,235.26045,235.15448,236.28375,236.16174,0,0,0,0,0,0,0,0,0,0,0,0,0.27092436,0.2993072,0.01672531,0.023264604,0.2817398,0.3198269,0.12228466,0.15434556,0.00833701,0.00078904256,0.017162569,0.009173762,164,6,231,2,0,-6742.834,302.37598,4188.417,75.167564,752181.56,703.25696,118.5715,115.58234,121.60782,121.60782,0,1,198.26498,0,0,7.920306,7.92031,0,6,255,0,0,0,1,127,190,0
True,18091906,15999.99,0,10263.113,15.921721,4.0237803,3.6286807,-0.68374825,-0.22203293,75.53872,-0.06376527,0.4413685,0.07187022,2.0273232,-0.097454116,-0.043934423,0.41193175,0.3300438,0.41082546,0.31000143,0.07796235,0.1590352,0.078913555,0.16698985,236.89061,236.33253,237.42769,237.05905,0,0,0,0,0,0,0,0,0,0,0,0,0.51828814,0.6110478,0.1228165,0.15062848,0.52411896,0.63140446,0.14598371,0.22488786,0.017863799,0.0078189,0.019951519,0.007964283,164,6,231,2,0,-6735.072,303.1636,4184.826,75.54214,752266.8,700.0056,118.93692,115.85741,121.7751,121.7751,0,1,204.50484,0,0,8.034262,8.034266,0,6,255,0,0,0,1,127,185,0
True,18092015,15999.99,0,10291.365,25.162918,4.4675317,3.1734972,-2.692833,-0.1305539,75.72248,-0.06094773,0.6762182,0.0786425,2.095461,-0.10124169,-0.041073903,0.53799284,0.3909476,0.53614295,0.38373357,0.07198489,0.24019963,0.056878053,0.19083633,237.53297,237.47945,238.03262,237.49713,0,0,0,0,0,0,0,0,0,0,0,0,0.7285599,0.9321775,0.3416396,0.44819257,0.7321075,0.962627,0.34634194,0.48712942,0.03332725,0.01528975,0.034850836,0.016730491,164,6,231,2,0,-6727.1304,304.04034,4180.8174,75.77046,533854.1,495.33142,119.5264,116.26114,122.09438,122.09438,0,1,210.83823,0,0,8.15238,8.152385,0,6,0,0,0,0,1,127,179,0
True,18092109,15999.99,0,9398.684,26.272573,1.5424227,-11.964664,-4.663662,0.18789172,74.02279,-0.0116918385,0.66124374,0.048545778,2.155293,-0.09633214,-0.04246288,0.53384817,0.36295027,0.45224,0.30434516,-0.45346752,-0.3211343,-0.35696033,-0.8406387,217.06714,220.61441,222.20656,209.98122,0,0,0,0,0,0,0,0,0,0,0,0,0.9283739,1.1261278,0.61121184,0.7847838,1.0332042,1.1710215,0.7078139,1.1500256,0.03281884,0.011855416,0.024875395,0.0072917975,164,6,231,2,0,-6720.8286,304.7724,4177.3267,74.16979,126149.61,128.07167,120.339554,116.905235,122.47273,122.47273,0,1,216.34451,0,0,8.248749,8.248753,0,6,0,255,0,0,1,127,176,129
True,18092234,15999.99,0,9628.662,31.917267,3.9788053,-15.72766,-6.7105484,0.6342094,71.27231,-0.031715773,0.71409374,0.048789255,2.235063,-0.09571709,-0.041562174,0.67163813,0.47296184,0.49643314,0.3140124,0.032530647,0.116546944,-0.007933444,0.19102505,221.9921,220.22997,223.11395,222.98566,0,0,0,0,0,0,0,0,0,0,0,0,1.242664,1.5294349,0.89353347,1.1432779,1.2430897,1.533869,0.8935687,1.1591268,0.04972104,0.025350139,0.030129634,0.008441158,164,6,231,2,0,-6713.8716,305.6358,4173.0938,71.59034,303508.9,301.30557,123.104004,118.89567,123.201096,123.201096,0,1,222.1494,0,0,8.361571,8.361575,0,6,157,0,0,0,1,127,176,0
True,18092343,15999.99,0,9824.193,32.529144,3.824427,0.26996422,-9.0292,0.34864378,70.70393,-0.06956707,0.6716906,0.045374356,2.3201659,-0.10233665,-0.043723244,0.63761395,0.43044657,0.55705893,0.34103724,0.27589294,0.71784085,0.20570867,0.44601256,225.17976,229.01854,226.46904,227.06921,0,0,0,0,0,0,0,0,0,0,0,0,1.617918,2.0197754,1.0629861,1.371285,1.6412725,2.1435456,1.0827075,1.441995,0.04554742,0.020134944,0.037337594,0.011654217,164,6,231,2,0,-6707.1123,306.53406,4168.509,71.27899,625697.25,608.35474,127.05612,121.97952,124.94017,124.94017,0,1,227.9733,0,0,8.476681,8.476686,0,5,255,0,0,0,1,127,177,0
True,18092453,15999.99,0,9848.923,24.549934,-0.07340205,2.552744,-11.032171,0.16219401,70.26376,-0.0592202,0.5512375,0.07855091,2.3870652,-0.10125816,-0.046898466,0.46951818,0.3319721,0.42098427,0.28161716,0.36166432,0.7413008,0.34901127,0.5780939,224.99503,228.33344,227.58974,228.17902,0,0,0,0,0,0,0,0,0,0,0,0,1.8635447,2.242698,1.4052712,1.6853929,1.8983151,2.3620374,1.4479628,1.7817805,0.02492772,0.008055437,0.021159321,0.0045896024,164,6,231,2,0,-6700.5107,307.44897,4163.58,71.12476,506309.12,490.70975,132.14076,126.51877,128.25537,128.25537,0,1,234.22621,0,0,8.593104,8.593107,0,5,255,0,0,0,1,127,180,0
True,18092562,15999.99,0,9772.655,29.219929,3.3780012,3.5133219,-11.612587,0.15777111,69.94913,-0.08704973,0.49739233,0.04772849,2.4374962,-0.10594818,-0.045257162,0.53565925,0.3425353,0.46345153,0.29157165,0.27362612,0.71400315,0.300406,0.54594624,222.34232,226.89165,225.85825,226.697,0,0,0,0,0,0,0,0,0,0,0,0,1.7795931,2.331903,1.3873699,1.771413,1.8005064,2.4387643,1.4195207,1.8536346,0.033041,0.009351186,0.026208363,0.0057731196,164,6,231,2,0,-6695.2104,308.21347,4159.2896,70.906685,562711.06,549.7732,138.15778,131.15721,132.37407,132.37407,0,1,239.08986,0,0,8.689729,8.689733,0,5,255,0,0,0,1,127,185,0
True,18092671,15999.99,0,9813.492,24.32088,0.2546574,2.366418,-12.01672,0.08442259,69.59454,0.091238275,0.28964403,-0.021372726,2.4850729,-0.10630726,-0.050869945,0.41230583,0.3100772,0.57251257,0.35962966,0.650541,0.9099873,0.41892004,0.59857625,226.03822,228.50215,225.93103,226.66072,0,0,0,0,0,0,0,0,0,0,0,0,2.4881577,2.5896828,1.5795403,1.8794982,2.5717955,2.7449105,1.6341485,1.972513,0.017909687,0.005369667,0.039174914,0.013864711,164,6,231,2,0,-6689.2773,309.13788,4154.0293,70.62443,396359.66,385.73853,144.6323,136.10052,137.06404,137.06404,0,1,245.06934,0,0,8.802572,8.802577,0,5,255,0,0,0,1,127,191,0
True,18092796,15999.99,0,9720.657,23.989908,0.332251,2.233842,-12.132284,0.04965949,69.32335,-0.045203406,0.34429067,0.07104814,2.5234282,-0.104700424,-0.048555445,0.3802012,0.26058638,0.35364392,0.22629677,0.37573963,0.84565437,0.33834556,0.55552703,221.50182,226.92204,224.25093,225.04172,0,0,0,0,0,0,0,0,0,0,0,0,2.078135,2.5230086,1.467664,1.8627764,2.11183,2.6609592,1.5061592,1.9438483,0.013971526,-0.00070119277,0.013153058,-0.0019875802,164,6,231,2,0,-6683.5464,310.02554,4148.6,70.37701,495395.6,486.58624,151.04987,141.46918,141.35492,141.35492,0,1,250.68277,0,0,8.915248,8.915253,0,5,255,0,0,0,1,127,201,0
True,18092890,15999.99,0,8900.275,50.824707,1.9912789,-28.005892,-8.443207,0.07103324,63.802006,-0.014870806,0.28424847,0.07566853,2.5575714,-0.107124776,-0.039097514,0.58788234,0.3981405,0.59707177,0.3905322,0.266344,0.8013845,0.25935093,0.478263,202.42178,208.77548,204.6819,206.35796,0,0,0,0,0,0,0,0,0,0,0,0,1.576595,2.1021998,1.060439,1.389715,1.5989343,2.2497692,1.091693,1.4697086,0.039447017,0.016172074,0.04209482,0.017538793,164,6,231,2,0,-6679.292,310.712,4144.003,64.35828,557651.44,598.12787,156.16745,145.77927,144.9213,144.9213,-0.44290543,1,255.1499,0,0,9.012479,9.012484,0,5,255,0,0,0,1,127,206,0
True,18093000,15999.99,0,8989.931,24.502434,-1.8030008,-2.0088568,-7.4487476,0.081148624,63.900497,0.042940833,0.15955351,-0.00657804,2.5810604,-0.10347502,-0.04195111,0.4111078,0.26515812,0.46964404,0.31339583,0.44573668,0.7717222,0.46062478,0.6288052,205.01419,208.87523,207.49129,208.47328,0,0,0,0,0,0,0,0,0,0,0,0,1.752439,1.9617677,1.1490027,1.324109,1.8082377,2.1081004,1.2378943,1.465831,0.017762728,-0.00014039129,0.026944607,0.008367851,164,6,231,2,0,-6674.6357,311.53195,4138.4023,64.33322,458199.62,486.7798,159.25157,148.36414,146.01662,146.01662,0,1,260.56686,0,0,9.126414,9.126419,0,5,255,0,0,0,1,127,212,0
True,18093109,15999.99,0,8911.634,24.882616,0.179546,3.1008434,-6.136421,-0.03843856,64.14244,-0.031714622,0.15178841,0.052848145,2.6024978,-0.10487384,-0.039742924,0.4270958,0.26626226,0.4328832,0.2754873,0.28010663,0.66176414,0.2631996,0.43563724,203.42401,208.28473,205.13791,206.43369,0,0,0,0,0,0,0,0,0,0,0,0,1.4252943,1.7296906,0.8263094,1.0281906,1.4525576,1.8519615,0.8672146,1.1166717,0.019723918,-4.950911E-06,0.022574015,0.003860809,164,6,231,2,0,-6670.2373,312.3077,4132.7017,64.43531,610546.44,654.2265,161.42212,150.36542,146.41122,146.41122,0,1,265.6918,0,0,9.238913,9.238917,0,5,255,0,0,0,1,127,219,0
True,18093234,15999.99,0,8940.751,24.156813,0.018359184,3.9461594,-4.196493,-0.08883834,64.50739,0.009532746,0.06167987,0.014288714,2.6144798,-0.10639156,-0.036836263,0.43825886,0.2768931,0.44855878,0.27706838,0.24443524,0.61392957,0.25953624,0.39896283,204.12665,209.40782,205.6624,206.99402,0,0,0,0,0,0,0,0,0,0,0,0,1.081348,1.2839385,0.5883268,0.7070813,1.1086307,1.4231682,0.6430299,0.8118715,0.02109325,0.0012990981,0.024437726,0.004048787,164,6,231,2,0,-6666.27,313.05612,4127.0503,64.64381,643552.2,687.403,162.18352,151.06836,146.04666,146.04666,0,1,270.61572,0,0,9.346546,9.34655,0,5,255,0,0,0,1,0,227,0
True,18093343,15999.99,0,8960.187,21.03847,-1.1976597,5.6948953,-1.7633553,-0.19266772,65.14018,0.05130972,-0.1325807,0.0111530945,2.612845,-0.10628809,-0.033488657,0.35821903,0.24404193,0.42464188,0.30019376,0.17838587,0.46617985,0.21310198,0.26502204,204.96407,210.07799,206.067,207.15735,0,0,0,0,0,0,0,0,0,0,0,0,0.31097713,0.34244204,0.22677766,0.26410678,0.35850844,0.57843775,0.31119215,0.37415114,0.011275053,-0.0027306378,0.021594182,0.0067982264,164,6,231,2,0,-6662.46,313.805,4121.1353,65.16433,752579.25,802.27014,160.5606,149.72067,145.48872,145.48872,0,1,275.74332,0,0,9.455575,9.455579,0,4,255,0,0,0,1,0,236,0
True,18093453,15999.99,0,8964.632,12.490622,-0.73928833,6.071618,-0.08852768,-0.311728,65.815346,-0.04000949,0.05625589,-0.009717723,2.6054444,-0.10585581,-0.032989733,0.34455323,0.25608656,0.37808016,0.24798597,0.12098857,0.1866449,0.12922913,0.16246808,206.50865,207.27733,206.99889,207.2211,0,0,0,0,0,0,0,0,0,0,0,0,0.40687057,0.4447696,0.019604282,0.025467452,0.42447838,0.4823446,0.13070767,0.16445202,0.009598721,-0.001253169,0.016058344,0.0005911067,164,6,231,2,0,-6658.707,314.5404,4114.968,65.81615,752375.2,801.6145,158.76273,148.2059,144.73326,144.73326,-0.75690556,1,280.86923,0,0,9.566376,9.566379,0,4,255,0,0,0,1,127,248,0
True,18093562,15999.99,0,8399.4,9.378482,-2.7159414,-7.1230044,-0.44496346,-0.06899023,65.09765,0.11830839,0.29761627,0.019251667,2.6253967,-0.0976142,-0.034039438,0.35988712,0.27370632,0.3654966,0.29668406,-0.43709698,-0.8163119,-0.2682057,-0.27163333,192.26225,188.91943,196.45015,195.17604,0,0,0,0,0,0,0,0,0,0,0,0,0.5615384,0.6517255,0.119969845,0.13195689,0.7116032,1.0445627,0.29381466,0.30198887,0.011479672,0.0009081848,0.014562249,0.0063809454,164,6,231,2,0,-6655.0317,315.26828,4108.7017,65.0992,411698.6,467.417,157.15213,146.86407,143.97815,143.97815,-3.881093,1,285.98392,0,0,9.677452,9.677456,0,4,0,255,0,0,1,127,9,129
True,18093671,15999.99,0,7963.757,15.821516,-0.53262156,-18.410398,-1.4848671,0.2643335,62.875797,0.030388137,0.5276631,0.04526099,2.6665843,-0.09064333,-0.034855936,0.4354172,0.3590515,0.3502318,0.2520223,-0.4456198,-0.7721213,-0.21719939,-0.89514834,185.01254,181.4073,191.41905,177.18628,0,0,0,0,0,0,0,0,0,0,0,0,0.6842297,0.79410976,0.30647016,0.3583094,0.81654596,1.1076018,0.37563217,0.96419716,0.020744674,0.011377171,0.012747377,0.0010709949,164,6,231,2,0,-6651.953,315.87265,4103.2183,62.893887,3693.5134,4.4171276,156.03624,145.89253,143.43628,143.43628,-7.536861,1,290.37927,0,0,9.776262,9.776265,0,4,0,255,0,0,1,127,28,129
True,18093781,15999.99,0,7652.0566,18.563871,-0.86482173,-18.71106,-3.9125195,0.3752179,60.357403,0.012891101,0.697465,0.049512167,2.7402759,-0.084794834,-0.0359107,0.46183792,0.37979674,0.3664999,0.28522837,-0.24805081,-0.3293444,-0.6560363,-0.8116234,183.8784,178.69615,176.2106,172.29083,0,0,0,0,0,0,0,0,0,0,0,0,1.0541143,1.2291856,0.7232573,0.8453892,1.0829064,1.2725427,0.97646546,1.171928,0.02398561,0.013921913,0.014681533,0.0050189532,164,6,231,2,0,-6648.5996,316.55646,4096.816,60.48524,309938,386.93723,155.01363,145.31764,143.024,143.024,-11.619961,1,295.45676,0,0,9.8940115,9.894013,0,4,255,255,0,0,1,127,52,129
True,18093906,15999.99,0,8363.062,19.376339,-2.2133634,-2.9427774,-6.502266,0.25224066,59.50022,0.02128248,0.65650874,0.033660408,2.8211207,-0.079903945,-0.03757967,0.37880042,0.289147,0.29846966,0.1998212,0.4109239,0.92485434,0.3218684,0.64507294,191.68634,195.4807,192.45703,193.34584,0,0,0,0,0,0,0,0,0,0,0,0,1.6196694,1.8568754,1.090355,1.3101192,1.670984,2.0744498,1.13687,1.4603188,0.013799697,0.0028022341,0.0065932423,-0.0051353276,164,6,231,2,0,-6645.5923,317.18774,4090.5515,59.854984,464362.88,530.40204,155.51999,146.00627,143.0641,143.0641,-14.7,1,300.04773,0,0,10.010396,10.010397,0,4,255,0,0,0,1,127,76,0
True,18094015,15999.99,0,8351.466,19.087023,-2.2167988,2.2404032,-8.3442955,0.09777403,59.2918,-0.045345675,0.66003346,0.061892446,2.8835878,-0.076300964,-0.038813874,0.32481155,0.22895144,0.27643037,0.16282101,0.34575668,0.8593479,0.3740378,0.7050021,190.1572,193.99055,192.86491,193.74564,0,0,0,0,0,0,0,0,0,0,0,0,1.7310613,2.0968418,1.3402903,1.6352892,1.7652538,2.2661033,1.3915037,1.780786,0.0071770772,-0.0045817345,0.0039729364,-0.009534378,164,6,231,2,0,-6643.208,317.68832,4085.1365,59.87616,446127.75,510.0011,157.77046,148.27232,144.56598,144.56598,0,1,304.16342,0,0,10.109579,10.10958,0,4,255,0,0,0,1,127,97,0
True,18094125,15999.99,0,8410.701,18.793032,-2.3697548,2.6163702,-10.100715,-0.12656713,58.91378,0.050649613,0.49304342,0.1177644,2.9537961,-0.07503783,-0.037689365,0.23236875,0.1826839,0.23296739,0.19735876,0,1.0089653,0.40637153,0.9120223,195.25362,194.71567,192.07869,195.59917,0,0,0,0,0,0,0,0,0.120000005,0,0.120000005,0,0,2.4899395,1.5985714,1.9892237,0,2.686598,1.6494145,2.1883316,-0.0041625462,-0.010257207,-0.001194492,-0.0054280944,164,6,231,2,0,-6640.595,318.26978,4078.509,59.773518,444629.25,505.23724,161.09917,151.96457,147.71039,147.71039,0,1,309.15518,0,0,10.22905,10.229052,0,4,255,0,0,0,1,127,122,0
True,18094234,15999.99,0,8311.356,19.67619,-1.7234387,2.3924596,-10.925808,-0.10527849,58.571106,-0.04079056,0.48462543,0.055479452,3.0078347,-0.07366978,-0.029383156,0.21637054,0.17434031,0.19286917,0.20679389,0.2774035,1.0309943,0.41301155,0.98506165,186.20422,193.89928,191.52411,194.41922,0,0,0,0,0,0,0,0,0.120000005,0.120000005,0.120000005,0,1.983469,2.6507723,1.6376739,2.2821116,2.0027735,2.8442123,1.6889505,2.4856348,-0.006124988,-0.0112806875,-0.0059618726,-0.0043063276,164,6,231,2,0,-6638.34,318.79703,4072.0928,59.58152,348967.9,400.85416,161.21396,156.64452,148.49725,148.49725,-11.76,1,313.79605,0,0,10.343338,10.343341,0,3,255,0,0,0,1,127,127,0
True,18094328,15999.99,0,8400.325,21.266607,-0.010006547,3.2313008,-11.474064,-0.10463762,58.3308,-0.012339953,0.43518,0.2393221,3.0527256,-0.074637,-0.023233298,0.2324622,0.07436785,0.25814065,0.15464288,0.4480951,1.3845819,0.8257174,0.9691053,187.59854,197.0173,193.28165,196.55307,0,0,0,0,0,0,0,0,0.120000005,0.120000005,0.120000005,0.120000005,1.9515048,2.987236,2.142004,2.3779545,2.0022888,3.2925138,2.295646,2.5678458,-0.0041510835,-0.023543946,0.0017984211,-0.010506697,164,6,231,2,0,-6636.6504,319.2297,4066.648,59.44869,196614,223.43352,161.70895,155.46448,149.2142,149.2142,-11.76,1,317.73468,0,0,10.439417,10.43942,0,3,255,0,0,0,1,127,127,0
True,18094437,15999.99,0,8301.716,24.180397,2.4148412,3.3546796,-11.879833,0.10185528,57.98474,0.069075555,0.41758114,-0.018412845,3.1026917,-0.074902214,-0.016694328,0.30947474,0.10083637,0.4699442,0.14712995,0.57928675,0.94079775,0.5106396,0.93300045,191.05196,193.68486,191.57872,191.17262,0,0,0,0,0,0,0,0,0.120000005,0.120000005,0.120000005,0.120000005,1.7701764,1.8559879,2.028178,2.4950132,1.8625513,2.080815,2.0914729,2.6637533,0.0052957684,-0.02029715,0.026980296,-0.0113999285,164,6,231,2,0,-6634.9287,319.73785,4060.255,59.18928,397242.84,457.7084,162.33484,155.6867,150.10936,150.10936,-11.76,1,322.41504,0,0,10.551365,10.551369,0,3,255,0,0,0,1,-9,127,0
True,18094562,15999.99,0,8334.448,10.845242,0.08684446,3.1221204,-13.290649,0.018880367,57.763885,-0.025526717,0.3159109,-0.21842527,-3.1343553,-0.07153024,-0.031541243,0.24425822,0.060180295,0.3918139,0.112840086,0.41801167,0.19030087,1.3271441,0.6457129,189.72841,186.6841,198.10303,191.47993,0,0,0,0,0,0,0,0,0.120000005,0.120000005,0.120000005,0.120000005,-0.53136426,-0.1726079,2.7358356,2.1137843,0.6760782,0.25692004,3.0407412,2.2102103,-0.0027041063,-0.025284283,0.01769118,-0.015476739,164,6,231,2,0,-6633.4526,320.2479,4053.8494,59.273163,441726.8,505.6299,160.78065,154.3628,151.04733,151.04733,-11.76,1,327.0765,0,0,10.662713,10.662718,0,3,255,0,0,0,1,-127,127,0
True,18094671,15999.99,0,8324.638,8.693892,-0.3692451,2.7981737,-13.670536,-0.35642767,57.753544,0.027410444,0.035952818,-0.08811203,-3.1149695,-0.07499204,-0.040001474,0.12997901,0.11594237,0.24620071,0.20338625,0.054658208,0.9407401,0.80001,0.8246269,184.97827,198.17773,192.71799,192.5196,0,0,0,0,0,0,0,0,0.120000005,0.120000005,0.120000005,0.120000005,-0.35549086,-0.045321494,2.732341,2.219484,0.35966828,0.9418312,2.8470516,2.3677244,-0.016722327,-0.01844415,0.00037885085,-0.0047114715,164,6,231,2,0,-6632.0483,320.75412,4047.3818,59.350502,513777.4,590.2263,159.07094,152.75018,152.61162,152.61162,-11.76,1,331.81833,0,0,10.774626,10.774631,0,3,255,0,0,0,1,-127,127,0
True,18094781,15999.99,0,8326.235,17.6412,2.3696358,4.1112046,-11.350108,-0.21490431,58.360348,0.0112514375,-0.15411344,0.27406496,-3.1241207,-0.07818649,-0.03653293,0.24219473,0.25202882,0.404915,0.24097055,0.45624027,0.7932938,0.9059515,0.5204209,188.51918,193.7028,193.28377,192.5726,0,0,0,0,0,0,0,0,0.120000005,0.120000005,0.120000005,0.120000005,1.5022995,2.2903242,2.2080476,1.6100631,1.5700506,2.4238193,2.386676,1.6920819,-0.0029572286,-0.0017509162,0.01924881,-0.00024297461,164,6,231,2,0,-6630.7627,321.27115,4040.875,59.454193,410888.34,470.98694,157.64168,151.42555,153.4297,153.4297,-11.76,1,336.52997,0,0,10.886543,10.886548,0,3,255,0,0,0,1,0,127,0
True,18094890,15999.99,0,8263.36,19.16147,-0.7222779,-3.2279425,-7.822383,0.040507317,58.178062,-0.06445255,-0.15354931,0.20406017,3.13875,-0.07686801,-0.0227441,0.2758185,0.21689026,0.29080287,0.14774123,0.26968032,0.5762421,0.778061,0.70559865,185.3471,190.30878,190.90102,194.03181,0,0,0,0,0,0,0,0,0.120000005,0.120000005,0.120000005,0.120000005,1.1841586,1.4054607,1.3561703,1.2633245,1.2144789,1.5190045,1.5635142,1.4470171,0.0011672787,-0.0060612373,0.0056817196,-0.011327252,164,6,231,2,0,-6629.755,321.80734,4034.3716,58.701607,378739.94,436.6974,157.49814,150.98953,153.49141,153.49141,-11.76,1,341.20792,0,0,10.998515,10.998522,0,2,255,0,0,0,1,0,127,0
True,18095000,15999.99,0,8062.79,26.567402,2.0677621,4.8401523,-3.7008286,0.18852091,58.978268,-0.08800813,-0.18793917,0.22590639,3.1192935,-0.08197439,-0.0013560788,0.43288112,0.18859549,0.47764367,0.15743698,0.10737553,0.3077172,0.12836632,0.1607975,184.43849,189.25276,185.35934,186.36148,0,0,0,0,0,0,0,0,0.120000005,0.120000005,0.120000005,0.120000005,0.24444652,0.33478096,0.38225022,0.5085254,0.26698992,0.4547177,0.4032284,0.5333422,0.020433582,-0.009532053,0.027895704,-0.010174498,164,6,231,2,0,-6629.0273,322.33347,4027.9434,59.09456,750788.75,888.6181,156.50725,150.0876,152.85252,152.85252,-8.194012,1,345.80304,0,0,11.1088295,11.108835,0,2,255,0,0,0,1,-10,127,0
True,18095109,15999.99,0,8359.378,8.934451,-0.049220473,5.3164887,-1.008086,-0.5442424,59.657883,-0.050057214,-0.37216958,-0.023174442,3.085995,-0.093542226,0.0021344007,0.21135694,0.12329019,0.35510218,0.13965593,0.52384514,0,0.10036211,0.85065365,192.04996,194.14603,187.5377,198.52814,0,0,0,0,0,0,0,0,0.120000005,0,0.120000005,0.120000005,-0.12811011,0,0.06486205,0.13311133,0.5392828,0,0.11949744,0.86100537,-0.006739989,-0.01754282,0.013326429,-0.012288533,164,6,231,2,0,-6628.5117,322.9074,4021.2559,59.66888,750991.2,859.89514,155.13211,148.75769,151.90063,151.90063,-5.5871515,1,350.55353,0,0,11.222187,11.222192,0,2,255,0,0,0,1,-12,127,0
True,18095218,15999.99,0,8255.747,-2.6918325,0.5391317,6.6752357,0.9542308,-0.7052698,60.281425,0.030128682,-0.2788801,-0.18765184,3.0464606,-0.09544159,-0.0111369025,0.3066595,0.042877078,0.32172576,0.20609456,0.5231598,0.22776644,0.13961157,0.102475815,194.729,190.82002,189.93279,189.10767,0,0,0,0,0,0,0,0,0.120000005,0.120000005,0.120000005,0.120000005,-0.09415606,-0.08414953,-0.18125062,-0.17890376,0.5315652,0.24281411,0.2287863,0.20617431,0.0049504302,-0.027406806,0.0093582235,-0.0043894723,164,6,231,2,0,-6628.019,323.4576,4014.6033,60.293102,753030.25,871.85114,153.83664,147.50917,150.98465,150.98465,-3.8353882,1,355.2755,0,0,11.333977,11.3339815,0,2,255,0,0,0,1,0,127,0
True,18095328,15999.99,0,8404.801,-10.176444,1.8297017,6.2322345,1.1552968,-0.5935855,60.922474,0.040496457,-0.12554938,-0.19073156,3.0226874,-0.09769496,-0.023144405,0.15563472,0.20778874,0.32327414,0.35673815,0.30497172,0.1462041,0.21003412,0.49786836,193.46797,190.47385,192.86627,197.65149,0,0,0,0,0,0,0,0,0.120000005,0.120000005,0.120000005,0.120000005,-0.17164138,-0.13052303,-0.18309514,-0.23097125,0.34995502,0.19598953,0.27863625,0.5488357,-0.013575235,-0.007177688,0.009542309,0.013520937,164,6,231,2,0,-6627.4307,324.02225,4008.0537,60.936317,726054.9,825.2451,152.71828,146.50114,150.21419,150.21419,-4.7201347,1,359.93585,0,0,11.442857,11.442862,0,2,255,0,0,0,1,0,127,0
True,18095437,15999.99,0,8411.668,-7.0431333,2.1659925,1.9925557,0.80366373,-0.5259938,61.307983,0.084195785,-0.013891528,0.031916738,3.0139184,-0.101217136,-0.01208651,0.25524175,0.42417234,0.37192455,0.58468074,0.6418231,0.18975146,0.1316553,0.14614984,200.22961,192.96608,192.46506,193.53667,0,0,0,0,0,0,0,0,0.120000005,0,0.120000005,0,-0.1650869,-0.1319875,-0.12062954,-0.08918792,0.66271454,0.23114134,0.17856261,0.17121407,-0.0013567992,0.019365307,0.015326489,0.040621616,164,6,231,2,0,-6626.699,324.63425,4001.3499,61.315502,752671.7,854.8898,151.6819,145.52107,149.49036,149.49036,-3.687729,1,364.72543,0,0,11.55354,11.553545,0,2,255,0,0,0,1,0,127,0
True,18095546,15999.99,0,8538.004,-5.2084303,-0.6639436,5.5158653,0.37532806,-0.38604927,62.003124,-0.017126221,-0.02801463,0.10547911,3.0122175,-0.095682114,-0.0020679664,0.13421595,0.3122183,0.237102,0.4348243,0.09471376,0.22956057,0.45784387,0.23650025,194.07283,196.54137,199.59258,196.79652,0,0,0,0,0,0,0,0,0.120000005,0,0.120000005,0,-0.0563367,-0.06351764,-0.07667156,-0.055563077,0.11020218,0.23818594,0.46421927,0.24293955,-0.016202595,0.005632311,-0.0007029176,0.022804797,164,6,231,2,0,-6625.8853,325.25525,3994.5708,62.00546,752981.6,842.918,150.72176,144.56386,148.79538,148.79538,0,1,369.57755,0,0,11.664706,11.664712,0,2,255,0,0,0,1,0,127,0
True,18095671,15999.99,0,8604.645,-2.7152424,-1.3755126,6.827094,0.21819878,-0.43202448,62.76588,0.021071227,-0.018394427,-0.0052757775,3.0099242,-0.09148887,0.0046139993,0.081368126,0.17981595,0.18958342,0.3218148,0.14928827,0.11045996,0.4152274,0.13418554,197.56306,196.80678,201.25519,197.84554,0,0,0,0,0,0,0,0,0.120000005,0,0.120000005,0,-0.034240227,-0.029550351,-0.040137313,-0.03229726,0.15316455,0.11434433,0.41716284,0.13801765,-0.022685248,-0.010609008,-0.006352525,0.009368811,164,6,231,2,0,-6624.933,325.91046,3987.0503,62.767746,754044.3,838.696,149.74794,143.59288,148.11296,148.11296,0,1,374.9633,0,0,11.786675,11.786681,0,2,255,0,0,0,1,0,127,0
True,18095781,15999.99,0,8698.327,-1.4542401,-4.2931304,5.271975,0.18834877,-0.28126478,63.36174,0.1735244,-0.019123692,-0.17993954,3.0080545,-0.08198938,0.0047006514,0.021510147,0.1190904,0.092318565,0.22210653,0.5076662,0.15937155,0.19883882,0.2635395,203.07376,199.06116,200.41798,201.15053,0,0,0,0,0,0,0,0,0.120000005,0,0.120000005,0,-0.015205652,-0.016674686,-0.031231675,-0.028171835,0.50789386,0.1602415,0.20127666,0.26504096,-0.03002781,-0.018057993,-0.017916596,-0.002485767,164,6,231,2,0,-6624.088,326.43878,3980.5532,63.362644,671864.4,735.0749,148.90103,142.79443,147.51651,147.51651,-3.002736,1,379.6173,0,0,11.890927,11.890932,0,2,255,0,0,0,1,0,122,0
True,18095890,15999.99,0,8865.314,-1.2007761,-5.4865594,5.6170287,0.29205704,-0.31488514,63.92658,0.07739071,-0.034137316,-0.017217932,3.003923,-0.07235601,0.0024892,0.17298089,0.14361744,0.22769699,0.20986235,0.27081227,0.24183008,0.4866915,0.40451092,202.7296,202.52324,205.95374,205.81284,0,0,0,0,0,0,0,0,0,0,0,0,-0.040805038,-0.03842627,-0.056261517,-0.054403346,0.2738692,0.24486397,0.48993263,0.40815294,-0.011447443,-0.015049351,-0.0018211044,-0.00394151,164,6,231,2,0,-6623.1875,326.93634,3973.758,63.928013,709231.4,763.99036,148.16513,142.05981,147.02592,147.02592,-6.8933587,1,384.48376,0,0,11.998921,11.998929,0,2,255,0,0,0,1,0,118,0
True,18096000,15999.99,0,8852.615,0.31315005,-4.9845934,6.6712523,0.27559376,-0.39850378,64.65292,0.04209127,0.08558283,0.046942152,3.0039504,-0.06478923,0.004979693,0.15343589,0.17684203,0.2171543,0.22072527,0.1670741,0.26475158,0.20951973,0.22660767,203.6355,204.8189,204.5357,204.59566,0,0,0,0,0,0,0,0,0,0,0,0,0.29272443,0.31941155,-0.03035644,-0.028649246,0.337048,0.41487002,0.21170741,0.2284115,-0.013844958,-0.010973807,-0.0030745529,-0.002649989,164,6,231,2,0,-6622.2397,327.37906,3966.7427,64.65474,752350.7,811.6603,147.44815,141.35104,146.52997,146.52997,-11.521974,1,389.5011,0,0,12.109229,12.109236,0,2,255,0,0,0,1,89,113,0
True,18096109,15999.99,0,8965.089,3.60933,-5.014771,6.159659,-0.6096306,-0.39680195,65.29282,0.06980975,0.20190106,0.032134697,3.0249262,-0.05683337,0.007628831,0.111666024,0.13389158,0.21658596,0.2360421,0.20802677,0.24504556,0.23035777,0.3048592,206.60948,206.27037,207.30013,207.44246,0,0,0,0,0,0,0,0,0,0,0,0,0.04758893,0.050559945,0.1254424,0.13410905,0.21340066,0.2502072,0.2622985,0.33305308,-0.018968714,-0.016242385,-0.0031421222,-0.00082893297,164,6,231,2,0,-6621.323,327.76877,3959.7036,65.29687,752270.56,801.31415,146.83344,140.76773,146.0606,146.0606,-14.7,1,394.53476,0,0,12.21865,12.218656,0,2,255,0,0,0,1,0,108,0
True,18096218,15999.99,0,9055.998,5.0224233,-5.5207577,6.1596055,-0.82844067,-0.39942718,65.94419,0.050840463,0.064703226,0.05505518,3.0374513,-0.04808644,0.012317523,0.12107259,0.15789437,0.20444553,0.21620956,0.17956685,0.23502816,0.23572873,0.3300682,207.89014,208.49438,208.97136,210.34575,0,0,0,0,0,0,0,0,0,0,0,0,0.110793576,0.11692325,0.13352007,0.142738,0.21099636,0.26250577,0.27091628,0.35960972,-0.017814845,-0.013298051,-0.0045855306,-0.003186874,164,6,231,2,0,-6620.4624,328.09824,3952.636,65.9506,751891.56,792.5539,146.19336,140.16763,145.65213,145.65213,-14.7,1,399.5775,0,0,12.32726,12.327266,0,2,255,0,0,0,1,0,102,0
True,18096343,15999.99,0,9164.552,4.0303254,-4.1725507,5.764189,-0.317235,-0.36794996,66.67252,0.12594114,-0.03564553,0.0411772,3.0387154,-0.04144715,0.018359233,0.14316614,0.14753325,0.23857246,0.24743764,0.20612305,0.3071102,0.31798378,0.2308213,210.16873,212.0013,212.54362,211.37025,0,0,0,0,0,0,0,0,0,0,0,0,0.05580905,0.060966954,0.04321911,0.041505147,0.21354476,0.31310323,0.3209074,0.23452324,-0.015104709,-0.014569011,-0.0005280897,0.00052591413,164,6,231,2,0,-6619.564,328.41882,3944.5764,66.674286,752754.7,784.7893,145.53018,139.5328,145.23927,145.23927,-14.7,1,405.31882,0,0,12.449599,12.449604,0,2,255,0,0,0,1,0,93,0
True,18096437,15999.99,0,9167.663,2.1126504,-3.3892367,6.314906,-0.069298744,-0.41997528,67.26118,0.033327773,-0.021102509,0.009865245,3.0365915,-0.037165347,0.01943726,0.17370121,0.18064032,0.2400539,0.2341807,0.17252427,0.15269323,0.15671633,0.16075538,211.72646,211.47025,211.75534,211.82466,0,0,0,0,0,0,0,0,0,0,0,0,0.014429433,0.016302144,0.0055049118,0.0071282024,0.17312664,0.153561,0.15681298,0.16091335,-0.011359083,-0.010507885,-0.00035195798,-0.0010502376,164,6,231,2,0,-6618.916,328.61707,3938.5183,67.26252,752412.4,783.8884,145.06696,139.0982,144.93723,144.93723,0,1,409.63007,0,0,12.540618,12.540623,0,2,255,0,0,0,1,0,86,0
True,18096562,15999.99,0,9287.63,-3.0203197,-4.3384237,5.980546,0.030739784,-0.3809421,67.93203,0.016672717,-0.16184928,-0.0060270885,3.0297084,-0.02889902,0.02232608,0.15865059,0.20910333,0.21477295,0.23318888,0.18654425,0.12654822,0.25541335,0.19474922,213.68523,213.443,215.0851,214.9066,0,0,0,0,0,0,0,0,0,0,0,0,-0.35509387,-0.32491732,-0.03485467,-0.030944241,0.40111148,0.34869143,0.25778058,0.1971923,-0.013205288,-0.0070164315,-0.003357675,-0.0011681579,164,6,231,2,0,-6618.0703,328.83084,3930.6616,67.933105,752258.4,773.31104,144.51904,138.58551,144.5578,144.5578,0,1,415.21774,0,0,12.657564,12.657569,0,2,255,0,0,0,1,-127,77,0
True,18096671,15999.99,0,9370.227,-9.952465,-0.5904305,5.653563,0.8881693,-0.3318882,68.553665,0.08828901,-0.27627292,0.017876897,2.9973779,-0.028020673,0.02126675,0.22218554,0.3171189,0.30267653,0.37132007,0.2863416,0.16056867,0.2199558,0.1416046,216.93571,216.26477,216.29253,216.29349,0,0,0,0,0,0,0,0,0,0,0,0,-0.079907954,-0.07306147,-0.17852925,-0.1621929,0.29728237,0.17640941,0.28329003,0.21531,-0.0054116845,0.00623345,0.007093407,0.015254617,164,6,231,2,0,-6617.107,329.01968,3922.811,68.56022,752646.1,767.32904,144.1395,138.30566,144.2436,144.2436,-3.1015177,1,420.81808,0,0,12.773466,12.773472,0,2,255,0,0,0,1,0,70,0
True,18096781,15999.99,0,9396.298,-10.168868,-3.6388285,5.3257904,1.1187735,-0.30360126,69.116905,0.04981504,-0.0699341,0.049500994,2.9790044,-0.019982792,0.025547676,0.17768376,0.2914613,0.22888376,0.30631676,0.1571685,0.083458565,0.1733584,0.12927163,216.9203,216.10571,217.4125,217.1234,0,0,0,0,0,0,0,0,0,0,0,0,-0.1616347,-0.14647253,-0.18572573,-0.16983464,0.22545002,0.16858093,0.25406137,0.21343608,-0.010870559,0.0030861236,-0.0016800053,0.007526204,164,6,231,2,0,-6616.0454,329.1686,3915.1965,69.12663,504713.44,512.8491,143.68849,137.89333,143.96765,143.96765,-7.008958,1,426.26425,0,0,12.885134,12.88514,0,2,113,0,0,0,1,0,66,0
True,18096875,15999.99,0,9313.794,-8.7207575,-0.45967966,2.0658813,0.43866634,-0.24465346,69.239655,0.026193507,0.014861298,0.04974702,2.976673,-0.019006293,0.030845435,0.21294188,0.3197809,0.23472756,0.3676131,0.022657458,0.021857623,0.024460679,0.02295008,215.09132,215.0147,215.15996,215.0833,0,0,0,0,0,0,0,0,0,0,0,0,-0.072542585,-0.07014561,-0.06299581,-0.05637331,0.0759986,0.07347219,0.06757808,0.060865887,-0.0065455697,0.0065599866,-0.0009852201,0.014813889,164,6,231,2,0,-6615.048,329.26956,3908.7307,69.24148,103420.77,106.02608,143.3229,137.5831,143.71169,143.71169,-10.598304,1,430.90002,0,0,12.979654,12.97966,0,2,7,0,0,0,1,0,64,0
True,18097000,15999.99,0,8568.395,-2.6726036,-2.1472025,-21.135445,-0.01706028,0.12249279,66.88021,0.07342692,0.0239499,0.08255045,2.9804344,-0.009466365,0.03763626,0.26552176,0.38109922,0.1837999,0.26836914,-0.6392478,-0.43475387,-0.4144169,-0.46349815,194.36276,197.86049,199.3036,198.37816,0,0,0,0,0,0,0,0,0,0,0,0,-0.0052097733,-0.006391246,0.0008984051,0.0023479466,0.639269,0.43480083,0.4144179,0.4635041,-9.5784664E-05,0.014081683,-0.007040143,0.0030145124,164,6,231,2,0,-6613.824,329.36948,3901.1765,66.88033,-89714.33,-100,143.11417,137.32812,143.43727,143.43727,-13.9466,1,436.32224,0,0,13.09152,13.091526,0,2,0,255,0,0,1,0,63,129
True,18097093,15999.99,0,8638.958,-0.5884018,-0.64201814,-17.658537,-0.1085701,0.4432428,64.42967,-0.03812028,0.00929033,0.046304427,2.9821975,-0.0048284354,0.04455301,0.34428063,0.41750008,0.20403267,0.29094517,-0.006449308,-0.006709295,-0.01614591,-0.01687617,199.65262,199.6025,199.47807,199.42258,0,0,0,0,0,0,0,0,0,0,0,0,0.013810763,0.010904899,0.016006734,0.015547984,0.0152424,0.012803572,0.022735566,0.022946568,0.009565279,0.018546846,-0.004634615,0.005698636,164,6,231,2,0,-6612.644,329.45734,3893.9375,64.43128,-90473.8,-100,142.93156,137.1492,143.21161,143.21161,0,1,441.51862,0,0,13.203994,13.2039995,0,2,0,0,0,0,1,0,62,0
True,18097218,15999.99,0,8594.482,0.5064762,-1.4067743,-5.3220515,-0.079372406,0.16130733,64.10582,-0.0069668246,-0.002232127,0.038929444,2.9823403,-0.0070004696,0.048983198,0.3220725,0.3765173,0.24420312,0.2776803,-0.0074721263,-0.007023886,-0.0144498525,-0.016229833,198.57439,198.5924,198.44101,198.42383,0,0,0,0,0,0,0,0,0,0,0,0,0.011541292,0.010652227,0.010170909,0.009837148,0.013748967,0.012759503,0.017670473,0.01897833,0.0068410896,0.013519637,0.00014135242,0.004121542,164,6,231,2,0,-6611.516,329.53348,3886.9893,64.10607,-90010.77,-100,142.53722,136.77846,142.91617,142.91617,0,1,446.5062,0,0,13.313538,13.313543,0,2,0,0,0,0,1,0,62,0
True,18097328,15999.99,0,8650.489,0.5033718,0.4996786,-1.147648,-0.04474926,-0.0018379688,64.033,-0.03309323,-0.0048446655,0.02293556,2.9817696,-0.0106492685,0.053149942,0.36869252,0.39717925,0.30474427,0.33666202,0.050430205,0.055712685,0.068518184,0.067561455,199.49832,199.60457,199.89973,199.90396,0,0,0,0,0,0,0,0,0,0,0,0,0.0068661245,0.007286024,0.004789036,0.0062134042,0.050895475,0.056187093,0.068685345,0.06784657,0.012559798,0.01605416,0.0073392503,0.011134028,164,6,231,2,0,-6610.373,329.60297,3879.9285,64.03301,338150.34,373.33813,142.17557,136.4415,142.64668,142.64668,0,1,451.5742,0,0,13.425271,13.425277,0,2,225,0,0,0,1,0,61,0
True,18097437,15999.99,0,8777.095,-0.1506759,-1.7867734,3.5139592,-0.028083801,-0.11814213,64.48799,0.051798683,-0.0093192365,0.010676809,2.9811332,-0.0097103175,0.05409794,0.30240062,0.30007604,0.35547993,0.36251903,0.1456535,0.12653169,0.16158707,0.16353367,202.37448,202.167,202.90816,202.96458,0,0,0,0,0,0,0,0,0,0,0,0,-0.011705298,-0.009868821,-0.00074420235,0.005509639,0.14612308,0.12691598,0.16158879,0.16362646,0.0044280104,0.004142862,0.013371345,0.014208239,164,6,231,2,0,-6609.2026,329.67712,3872.7048,64.488106,519335.94,565.09314,141.84555,136.13687,142.44693,142.44693,0,1,456.74448,0,0,13.5391865,13.539192,0,2,179,0,0,0,1,0,60,0
True,18097546,15999.99,0,8802.5625,-4.831641,-2.2756293,3.6073763,-0.0072755814,-0.19512022,64.89125,-0.010185292,-0.19283205,-0.010455586,2.972713,-0.005772337,0.054623935,0.22885317,0.27323648,0.26870015,0.3143281,0.120559126,0.07160356,0.14470643,0.095901914,202.83783,202.95667,203.45609,203.55157,0,0,0,0,0,0,0,0,0,0,0,0,-0.37688932,-0.33861142,-0.034141112,-0.031090852,0.39570197,0.34609938,0.1486794,0.100815766,-0.0045937896,0.00085055083,0.00305387,0.008478694,164,6,231,2,0,-6608.0312,329.71085,3865.5989,64.89154,484032.47,525.1322,141.58145,135.91605,142.25067,142.25067,0,1,461.84738,0,0,13.650503,13.650509,0,2,174,0,0,0,1,-127,61,0
True,18097656,15999.99,0,8819.951,-12.965307,0.8901958,2.647387,0.7137146,-0.16961396,65.15644,0.036223494,-0.44050363,-0.012676041,2.9372015,-0.006272691,0.05308246,0.2288091,0.33667618,0.2869335,0.3888081,0.1709125,0.058199354,0.13802157,0.04301781,203.49545,203.78975,203.50848,203.93047,0,0,0,0,0,0,0,0,0,0,0,0,-0.69448,-0.5934753,-0.19277628,-0.1667334,0.7152018,0.5963221,0.23709206,0.17219338,-0.004599195,0.00863247,0.0052216835,0.017333813,164,6,231,2,0,-6606.7573,329.73804,3858.6367,65.16057,300188.62,325.03287,141.49721,135.94815,142.1018,142.1018,0,1,466.8612,0,0,13.759308,13.759314,0,2,107,0,0,0,1,-127,65,0
True,18097750,15999.99,0,8709.893,-17.591105,-1.1320492,0.15363693,2.0992393,-0.09498197,65.0009,0.049949855,-0.5443905,-0.01742934,2.889631,-0.00025368945,0.051871058,0.24080947,0.36961,0.2407194,0.37131783,0.028579185,-0.0039985417,-0.0021923636,-0.010177231,199.80952,201.99094,200.02354,202.54898,0,0,0,0,0,0,0,0,0,0,0,0,-0.93986267,-0.78674,-0.4501718,-0.380616,0.94029707,0.78675014,0.45017713,0.38075206,-0.003127154,0.012672342,-0.00027283654,0.0152543485,164,6,231,2,0,-6605.5073,329.7525,3852.6648,65.03486,-91246.58,-100,141.48943,136.07784,142.00082,142.00082,0,1,471.28607,0,0,13.85299,13.852997,0,2,0,0,0,0,1,-127,68,0
True,18097875,15999.99,0,8617.9,-27.301474,2.0018744,-2.1184664,3.637457,0.08555293,64.37245,-0.04388347,-0.6896503,-0.063947216,2.8172925,0.0032793903,0.04745777,0.27514952,0.43411785,0.2226452,0.39663872,-0.010388071,-0.004143772,-0.011281415,-0.009992862,196.65302,200.16228,197.6995,201.02208,0,0,0,0,0,0,0,0,0,0,0,0,-1.1473222,-0.91711956,-0.7207372,-0.5463093,1.1473691,0.9171289,0.7208255,0.54640067,0.001085218,0.020585287,-0.0024217255,0.018264815,164,6,231,2,0,-6603.7056,329.74698,3845.3555,64.475204,-90268.99,-100,141.66956,136.5214,141.98744,141.98744,-14.7,1,476.61853,0,0,13.969228,13.969234,0,2,0,0,0,0,1,-127,78,84
True,18097984,15999.99,0,8512.674,-29.83823,2.2825289,-2.2528257,5.086973,0.21173865,63.63371,-0.029499779,-0.6491499,-0.0085225,2.7404654,0.0038469408,0.04255163,0.31300366,0.5300155,0.21834593,0.42613602,-0.02800086,-0.007146781,-0.01637675,-0.013645816,194.108,197.66046,195.40468,198.55746,0,0,0,0,0,0,0,0,0,0,0,0,-1.3516228,-1.0621666,-0.9595674,-0.7565713,1.3519129,1.0621905,0.95970714,0.7566943,0.005728647,0.032348707,-0.0029328763,0.021771826,164,6,231,2,0,-6601.536,329.76193,3838.23,63.837067,-89168.45,-100,142.52396,137.80942,142.12396,142.12396,-14.7,1,481.87592,0,0,14.085346,14.085354,0,2,0,0,0,0,1,-4,90,115
True,18098093,15999.99,0,8438.218,-31.401695,2.8543105,-1.9684515,5.8298683,0.26323694,62.93749,-0.109158725,-0.61307293,-0.040191293,2.672011,0.0025798045,0.040634852,0.3449187,0.57316655,0.21567075,0.4296505,-0.008783283,-0.0036140576,-0.028420014,-0.015365016,193.53473,196.58899,193.21033,196.34232,0,0,0,0,0,0,0,0,0,0,0,0,-0.79809606,-0.63149863,-1.11332,-0.8287641,0.7981444,0.631509,1.1136826,0.8289065,0.009643551,0.037641883,-0.0032509342,0.02218967,164,6,231,2,0,-6599.0454,329.788,3831.387,63.20747,-88385.11,-100,142.73334,138.32585,142.35106,142.35106,-14.7,1,487.5604,0,0,14.200011,14.200019,0,2,0,0,0,0,1,0,99,118
True,18098187,15999.99,0,8359.15,-34.601643,4.1662946,-1.4288445,5.5271416,0.29035997,62.40394,-0.025977986,-0.42068857,0.073651865,2.6221814,-0.0024135357,0.040664263,0.33580887,0.63783973,0.28124028,0.55362296,-0.023813687,-0.002695776,-0.025517642,-0.014541713,191.77362,194.14609,191.98512,194.21399,0,0,0,0,0,0,0,0,0,0,0,0,-1.0300399,-0.80492556,-1.0159376,-0.7997815,1.0303152,0.8049301,1.016258,0.7999137,0.008526079,0.045575112,0.0045447946,0.03692908,164,6,231,2,0,-6596.6577,329.84067,3825.8381,62.648903,-87559.125,-100,142.77876,138.6809,142.62344,142.62344,-14.7,1,491.84274,0,0,14.296043,14.296049,0,2,0,0,0,0,1,-127,108,116
True,18098312,15999.99,0,8259.624,-31.021633,3.0843084,-2.5166283,4.9896946,0.26004624,61.738888,-0.07294215,-0.44548452,0.02037564,2.5694263,-0.005227837,0.048935253,0.30051738,0.5727644,0.2388502,0.50019574,-0.011251874,-0.0057701073,-0.023243269,-0.013670939,188.95287,191.248,189.95544,192.25339,0,0,0,0,0,0,0,0,0,0,0,0,-1.3586013,-1.0849129,-0.9385151,-0.7320246,1.358648,1.0849283,0.9388029,0.7321523,0.0041970015,0.037592553,-0.0004950687,0.030576982,164,6,231,2,0,-6593.2075,329.93195,3818.9026,61.94073,-86515.586,-100,143.41127,139.72514,142.88434,142.88434,-14.7,1,497.31238,0,0,14.420419,14.420424,0,2,0,0,0,0,1,-127,115,92
True,18098421,15999.99,0,8176.2554,-36.10806,6.579986,-2.7279434,4.2357597,0.26445055,61.08703,-0.07605435,-0.4387792,-0.018289672,2.5155847,-0.015630122,0.04540694,0.40860665,0.6592715,0.3039123,0.57981867,-0.026597228,-0.005887829,-0.014012465,-0.008601844,186.86156,189.35722,188.09729,190.33183,0,0,0,0,0,0,0,0,0,0,0,0,-1.2943022,-1.0012717,-0.7784817,-0.59097826,1.2945755,1.0012891,0.77860785,0.5910409,0.01745592,0.048204064,0.0072403327,0.040043555,164,6,231,2,0,-6589.8677,330.05286,3813.136,61.234276,-85440.89,-99.76302,144.5801,141.4915,143.12234,143.12234,-14.7,1,502.99265,0,0,14.5286875,14.528692,0,2,0,0,0,0,1,-127,117,46
True,18098531,15999.99,0,8100.6943,-34.418953,5.610682,-2.4504175,3.5993786,0.26506662,60.4887,-0.09911139,-0.48458058,-0.056836303,2.4654021,-0.02284629,0.044380687,0.4027498,0.6617591,0.30079114,0.5593429,-0.016744146,-0.0047051585,-0.011842967,-0.009338107,185.21182,187.79668,186.20119,188.58653,0,0,0,0,0,0,0,0,0,0,0,0,-1.1554426,-0.90256757,-0.67531556,-0.53569394,1.155564,0.9025798,0.6754194,0.5357753,0.016737483,0.04850921,0.006869249,0.037609138,164,6,231,2,0,-6586.1904,330.22675,3807.6104,60.596275,-83862.74,-98.835594,145.23994,142.48418,143.29195,143.29195,-14.7,1,507.70752,0,0,14.637714,14.637719,0,2,0,0,0,0,1,-127,116,0
True,18098640,15999.99,0,7835.0664,-28.76734,2.5207348,-3.4527245,3.349739,0.245888,59.8806,-0.040653065,-0.4390989,-0.012074486,2.4197712,-0.025437666,0.043386217,0.34729338,0.56006926,0.28654268,0.51740265,-0.41637754,-0.21274325,-0.25287274,-0.09692568,175.78319,181.371,179.81111,184.64655,0,0,0,0,0,0,0,0,0,0,0,0,-1.0731965,-0.90357095,-0.6991627,-0.5461935,1.151139,0.9282781,0.7434871,0.5547269,0.009934843,0.03603529,0.0051752105,0.032622755,164,6,231,2,0,-6582.387,330.42603,3802.535,59.974724,-79046.234,-96.089874,145.49661,142.92448,143.42645,143.42645,-14.7,1,513.17914,0,0,14.742932,14.742938,0,2,0,115,0,0,1,-127,112,199
True,18098750,15999.99,0,7166.592,-29.915483,5.32973,-21.113415,3.3083134,0.45245242,56.8201,-0.035002016,-0.49961907,0.018152168,2.36229,-0.030100228,0.045045722,0.43133765,0.672947,0.28128472,0.50748056,-0.33298674,-0.21329837,-1.3074127,-0.27781644,168.98405,173.55618,152.86539,171.92091,0,0,0,0,0,0,0,0,0,0,0,0,-1.0899397,-0.9073542,-0.71899074,-0.56972384,1.1396705,0.93208784,1.4920709,0.6338511,0.020244252,0.049881592,0.0045500807,0.03144309,164,6,231,2,0,-6578.018,330.671,3797.2793,56.918125,-65745.67,-87.5103,146.42526,144.25168,144.00099,144.00099,-14.7,1,517.98956,0,0,14.859917,14.859922,0,2,0,255,0,0,1,-127,102,129
True,18098859,15999.99,0,6920.1094,-24.902939,2.3133347,-18.75845,4.029688,0.5087428,54.69274,-0.020854203,-0.59271044,-0.0012661209,2.3059473,-0.029696347,0.04799925,0.4156168,0.6208323,0.25358835,0.45767668,-0.44659296,-0.22049037,-0.7886068,-0.58107644,160.77628,167.00468,153.87141,161.35512,0,0,0,0,0,0,0,0,0,0,0,0,-1.2373197,-1.0563334,-0.93467325,-0.7782667,1.3154488,1.0790998,1.2229124,0.9712615,0.018315833,0.043488875,0.0012571886,0.025521778,164,6,231,2,0,-6574.183,330.90854,3793.1064,54.84335,-61655.805,-84.84507,147.47156,145.12836,144.90999,144.90999,-14.7,1,522.0019,0,0,14.961462,14.96147,0,2,0,255,0,0,1,-127,91,129
True,18098984,15999.99,0,6516.6494,-28.414711,4.4714985,-18.254404,5.3075047,0.5107527,52.0093,-0.12206997,-0.79080147,-0.04541015,2.2207897,-0.035051897,0.04695295,0.4177064,0.60230935,0.23334982,0.43443075,-0.42600787,-0.117162704,-1.4181005,-0.42261598,151.9328,159.77736,140.38829,154.81583,0,0,0,0,0,0,0,0,0,0,0,0,-1.4578406,-1.1864182,-1.2630486,-0.97322965,1.5188094,1.1921892,1.8990263,1.0610279,0.018572155,0.041216724,-0.0011490248,0.022758007,164,6,231,2,0,-6569.5986,331.19815,3788.5588,52.281906,-54064.71,-79.31545,149.51305,147.33932,146.63759,146.63759,-14.7,1,527.2354,0,0,15.08215,15.082156,0,2,0,255,0,0,1,-127,75,133
True,18099078,15999.99,0,5907.274,-23.44329,1.3956628,-14.424737,6.873701,0.46609712,49.824944,-0.013844835,-0.74673563,-0.011633681,2.1425548,-0.03574114,0.04692759,0.43099308,0.57112956,0.24936004,0.4045157,-0.48916128,-0.9152642,-1.5617551,-1.3761799,144.4893,137.95306,133.03389,134.63017,0,0,0,0,0,0,0,0,0,0,0,0,-1.892262,-1.6263595,-1.7142075,-1.5051603,1.9544652,1.8662137,2.3189623,2.0394557,0.020201985,0.037392013,0.00075447187,0.019201335,164,6,231,2,0,-6565.5337,331.47894,3784.9421,50.299007,-45089.73,-72.61738,152.0883,150.25125,149.19597,149.19597,-14.7,1,531.005,0,0,15.188583,15.188589,0,2,0,255,0,0,1,-127,59,130
True,18099203,15999.99,0,6507.684,-24.226994,1.4815444,-6.8660564,8.825922,0.32708573,48.13751,-0.06274041,-0.8215197,-0.018129509,2.0477014,-0.03669493,0.04857591,0.35804147,0.5362113,0.25827852,0.3924702,0.19194408,0.03350572,0.25694072,-0.05275313,148.3234,150.21008,151.00494,150.68748,0,0,0,0,0,0,0,0,0,0,0,0,-2.4001796,-1.9606093,-2.1064272,-1.7836126,2.4078424,1.9608957,2.12204,1.7843926,0.011253271,0.03310872,0.0018148124,0.017769214,164,6,231,2,0,-6561.0366,331.77283,3781.268,48.94102,149403.77,219.47797,156.06955,155.5633,153.66243,153.66243,-14.7,1,535.0636,0,0,15.306079,15.306086,0,2,97,0,0,0,1,-127,39,3
True,18099312,15999.99,0,6693.8267,-25.111248,2.6331515,1.3927078,10.09033,0.31846547,47.511177,-0.06495223,-0.7413038,-0.026498605,1.9673382,-0.039246958,0.05005346,0.37213925,0.53113323,0.29460922,0.48419634,0.756064,0.3903747,0.75110376,0.34754014,153.66368,153.14682,155.43706,155.02655,0,0,0,0,0,0,0,0,0,0,0,0,-2.5989993,-2.2754042,-2.4129648,-1.9007775,2.7067378,2.3086483,2.5271637,1.9322885,0.012982596,0.032485813,0.006134264,0.028674766,164,6,231,2,0,-6557.0044,332.03946,3778.318,48.571884,294071.22,419.44226,160.92525,161.30765,157.82185,157.82185,-14.7,1,538.58545,0,0,15.4087715,15.408779,0,2,170,0,0,0,1,-127,21,3
True,18099421,15999.99,0,6660.4385,-23.833645,2.5539274,3.0413432,10.963815,0.25351143,47.045784,-0.060441166,-0.678013,0.00068227854,1.8999707,-0.042968694,0.05058549,0.32828435,0.5180543,0.3003368,0.46740416,1.0790488,0.37852427,0.75187075,0.4033605,155.32497,151.24365,154.31389,153.9043,0,0,0,0,0,0,0,0,0,0,0,0,-3.0327888,-2.4282322,-2.5633755,-2.164538,3.21903,2.4575582,2.6713674,2.2018,0.0076030754,0.030881464,0.006815236,0.026678301,164,6,231,2,0,-6553.1953,332.29996,3775.8188,48.3071,248710.5,356.53726,166.12689,167.63342,162.57956,162.57956,-14.7,1,541.8531,0,0,15.502984,15.502992,0,2,175,0,0,0,1,-127,4,1
True,18099531,15999.99,0,6618.144,-19.979902,-0.018352747,2.4578147,11.939961,0.22358179,46.464073,0.019383501,-0.5459649,0.0069332924,1.8287868,-0.03931022,0.054730736,0.24097179,0.3881157,0.2779912,0.4230002,1.0126865,0.5255734,0.86828524,0.55245256,152.92569,150.5301,153.55867,153.33295,0,0,0,0,0,0,0,0,0,0,0,0,-3.212698,-2.7878716,-2.920023,-2.5630052,3.3685253,2.8369799,3.0463836,2.6218696,-0.0031072423,0.01494237,0.0041585043,0.021398999,164,6,231,2,0,-6548.299,332.63013,3772.9355,47.97419,215414.19,310.82578,173.13692,175.76468,168.90683,168.90683,-14.7,1,545.7622,0,0,15.621252,15.621262,0,2,178,0,0,0,1,-127,239,2
True,18099656,15999.99,0,5471.1045,-24.476284,3.307555,-3.0340288,12.43228,0.23265791,45.217014,-0.027482467,-0.5627602,-0.027836986,1.7513596,-0.043877635,0.05641513,0.29325464,0.45092642,0.24434462,0.41740966,-0.63935775,-0.45892605,-1.224105,-0.96551234,128.12231,132.41068,122.77383,125.697556,0,0,0,0,0,0,0,0,0,0,0,0,-3.341999,-2.909237,-2.9298918,-2.3390698,3.4026072,2.945212,3.1753266,2.5305064,0.0033061057,0.022647135,0.00015817583,0.020734325,164,6,231,2,0,-6543.01,332.97803,3770.1875,46.895565,165650.84,288.17502,181.69336,186.71466,176.09944,176.09944,-14.7,1,549.9136,0,0,15.746636,15.746645,0,2,31,255,0,0,1,-127,215,141
True,18099765,15999.99,0,5128.3433,-18.48534,-0.07707393,-7.8646173,12.994875,0.3210926,43.464256,-0.00021314248,-0.5428411,-0.00893614,1.6963791,-0.037952095,0.057680983,0.2523748,0.3984555,0.20110682,0.3448178,-1.5087677,-0.6911994,-1.697988,-1.0002931,112.72499,124.195625,113.55587,123.29171,0,0,0,0,0,0,0,0,0,0,0,0,-3.5462127,-3.014139,-3.4007676,-2.918399,3.8538299,3.092376,3.8011029,3.0850673,-0.0017084777,0.016210716,-0.004982479,0.012103695,164,6,231,2,0,-6538.4956,333.28458,3768.1113,45.366413,-33556.133,-62.51246,188.23962,195.16428,182.67174,182.67174,-14.7,1,553.40497,0,0,15.8546715,15.85468,0,2,0,255,0,0,1,-127,194,129
True,18099875,15999.99,0,4958.0264,-18.642057,0.34885573,-8.841975,13.533737,0.3355484,41.650814,-0.009545501,-0.5542165,-0.00467162,1.6374375,-0.035713788,0.058354855,0.2791932,0.40436044,0.17127998,0.31851405,-1.759997,-0.5938448,-1.6044471,-0.68914217,105.348366,120.11537,109.944984,120.97745,0,0,0,0,0,0,0,0,0,0,0,0,-3.8824456,-3.2743645,-3.6021464,-3.1367524,4.2627425,3.327779,3.943312,3.2115624,0.0015812404,0.016935054,-0.008528668,0.008976374,164,6,231,2,0,-6534.117,333.56842,3766.2712,43.79572,-31529.535,-60.61287,194.76123,203.23276,188.86427,188.86427,-14.7,1,556.12634,0,0,15.96148,15.96149,0,2,0,99,0,0,1,-127,173,211
True,18099984,15999.99,0,4691.1543,-18.592388,0.45867336,-8.438552,14.102717,0.32884037,39.834583,-0.023381278,-0.5813524,-0.015234549,1.5751874,-0.033575702,0.059411183,0.25622314,0.38985375,0.1819523,0.3352653,-1.6354704,-0.6627275,-1.450401,-1.1050981,101.54855,113.98178,106.50571,110.79588,0,0,0,0,0,0,0,0,0,0,0,0,-4.0828786,-3.5475779,-3.903063,-3.308398,4.3982563,3.6089497,4.1638403,3.4880853,-0.0012364127,0.015155569,-0.0072598085,0.01096797,164,6,231,2,0,-6529.7637,333.84454,3764.622,42.2586,-28221.885,-57.367958,200.94403,211.05844,194.92249,194.92249,-14.7,1,559.2905,0,0,16.069872,16.069881,0,2,0,112,0,0,1,-127,151,201
True,18100078,15999.99,0,4880.5645,-18.49713,0.52114743,-5.8632026,14.628776,0.36473018,38.169937,0.005522128,-0.5976027,-0.078537546,1.510799,-0.031710204,0.059809096,0.29572693,0.5100912,0.17964116,0.19039172,-0.39228055,-0.14165725,-0.88675416,-0.22669625,110.17988,115.558136,108.083015,117.178154,0,0,0,0,0,0,0,0,0,0,0,0,-4.4396825,-4.3645787,-4.164692,-3.7021947,4.4569793,4.366877,4.25805,3.7091289,0.0036093742,0.029904656,-0.007534586,-0.006256424,164,6,231,2,0,-6525.5127,334.11606,3763.1934,40.878826,-30347.207,-59.423756,207.10449,216.20847,200.49876,200.49876,-14.7,1,562.3721,0,0,16.17819,16.1782,0,2,0,0,0,0,1,-127,130,0
True,18100187,15999.99,0,4886.941,-18.022224,0.21664387,-2.1870167,15.211448,0.38117892,36.942513,-0.049628064,-0.637917,0.04288077,1.4451478,-0.030540356,0.05516117,0.30538863,0.47852853,0.16788255,0.3564702,0.021880167,0.013858052,-0.16103706,-0.065278605,110.273125,113.405464,111.497086,115.33168,0,0,0,0,0,0,0,0,0,0,0.120000005,0,-4.6519585,-3.825906,-4.2464776,-3.7708943,4.65201,3.825931,4.24953,3.771459,0.004794538,0.026032984,-0.008932598,0.013489079,164,6,231,2,0,-6521.3784,334.36972,3761.981,39.953506,-30517.27,-59.619064,212.4582,222.32799,204.60693,204.60693,-11.76,1,565.3606,0,0,16.285011,16.285023,0,2,0,0,0,0,1,-127,129,0
True,18100296,15999.99,0,4874.072,-17.913803,0.16436672,-0.713634,15.769554,0.15224722,35.70085,-0.12013174,-0.6813831,-0.022737544,1.3748657,-0.03421924,0.059067283,0.26293728,0.44857088,0.21320614,0.402536,0.50849867,0.18331149,0.38463432,0.08422697,110.9477,111.58942,113.114975,113.4153,0,0,0,0,0,0,0,0,0,0,0,0.120000005,-5.2127175,-4.287774,-4.561735,-4.6982026,5.2374606,4.291691,4.577922,4.6989574,-0.00041281432,0.022358187,-0.003543958,0.018965963,164,6,231,2,0,-6517.312,334.6223,3760.9868,39.02887,74152.05,145.38615,216.7909,228.7819,203.20717,203.20717,-11.76,1,568.29126,0,0,16.391356,16.391365,0,2,34,0,0,0,1,-127,129,0
True,18100406,15999.99,0,5030.2637,-18.640036,0.25006288,0.55158806,16.014387,0.1091246,34.531624,0.0012497045,-0.6112174,-0.050673977,1.3039294,-0.034539063,0.065129355,0.29150409,0.3825444,0.30455366,0.35046613,1.5204312,1.098248,1.1797284,0.5571786,116.299034,116.16915,116.59922,115.67607,0,0,0,0,0,0,0,0,0,0.120000005,0,0.120000005,-5.1078234,-4.8246613,-4.895487,-3.6686454,5.3293123,4.948081,5.0356283,3.710715,0.0030913725,0.014258958,0.007316582,0.012775239,164,6,231,2,0,-6513.1904,334.88397,3760.1914,38.064487,101049.97,191.63707,221.05217,234.96414,209.66425,209.66425,-11.76,1,569.88196,0,0,16.500723,16.50073,0,2,135,0,0,0,1,-127,129,0
True,18100531,15999.99,0,5257.4453,-16.854702,0.91568905,2.1403751,16.33423,0.37964547,33.63732,-0.05311787,-0.61418504,0.055556912,1.2365814,-0.029582271,0.06102429,0.3527749,0.26741934,0.22302307,0.3092792,0.499597,0.32079396,0.5293432,0.4150455,119.50863,115.57011,123.50532,123.52655,0,0,0,0,0,0,0,0,0.120000005,0.120000005,0.120000005,0.120000005,-1.6784126,-1.5239251,-1.6203059,-1.5184989,1.7511898,1.5573235,1.7045808,1.5741987,0.010607239,0.00013698265,-0.0023767985,0.007878419,164,6,231,2,0,-6508.9365,335.15143,3759.585,37.39546,385978.78,703.0677,223.664,237.41397,212.6752,212.6752,-11.76,1,572.81586,0,0,16.614859,16.614868,0,2,149,0,0,0,1,-127,129,0
True,18100640,15999.99,0,5761.1304,-15.030993,-0.54574907,3.7830431,16.91555,0.22739571,32.693943,-0.06659441,-0.65394413,-0.16258444,1.1565018,-0.031924214,0.059310067,0.15040343,0.15453789,0.21231613,0.2534842,0.8935885,0.670344,0.9513188,0.8337105,129.63815,126.02546,135.74193,136.00401,0,0,0,0,0,0,0,0,0.120000005,0.120000005,0.120000005,0.120000005,-1.7163857,-1.6473371,-1.6801854,-1.6308984,1.9350659,1.7785051,1.9308109,1.8316393,-0.014216939,-0.013709778,-0.003649775,0.001244802,164,6,231,2,0,-6504.286,335.44794,3759.175,36.811424,320483.28,530.75494,219.70398,232.5733,209.31512,209.31512,-11.76,1,576.0488,0,0,16.741102,16.74111,0,2,189,0,0,0,1,-127,129,0
True,18100750,15999.99,0,5761.087,-15.441985,0.5358018,4.4977064,17.388348,0.26796335,31.98493,0.027201079,-0.6399221,0.032763094,1.0881714,-0.027759507,0.065444395,0.060085982,0.20403081,0.12133459,0.33153144,1.1798888,0.82717156,0.98918605,0.8128647,136.01515,128.45288,134.34851,132.63261,0,0,0,0,0,0,0,0,0.120000005,0.120000005,0.120000005,0.120000005,-1.8203732,-1.7651787,-1.7613171,-1.6614242,2.1693077,1.9493765,2.020081,1.8496159,-0.025295852,-0.0076386593,-0.014466805,0.010524042,164,6,231,2,0,-6500.4204,335.6923,3759.0332,36.406895,283225.72,469.15015,216.91168,229.00948,206.94867,206.94867,-11.76,1,578.7561,0,0,16.847054,16.847061,0,2,193,0,0,0,1,-127,129,0
True,18100859,15999.99,0,5715.497,-16.956963,1.3617294,5.383355,17.888275,0.20809415,31.226524,0.08968888,-0.64717746,0.35120586,1.0208806,-0.020916663,0.075388275,0.107879125,0.31494626,0.1382062,0.52556455,1.2497587,0.8238478,1.0444665,0.92936,134.71124,124.923,133.19363,133.15712,0,0,0,0,0,0,0,0,0.120000005,0.120000005,0.120000005,0.120000005,-1.9186536,-1.8399131,-1.8705977,-1.7996293,2.289788,2.0159378,2.1424394,2.0254323,-0.01943324,0.005966939,-0.012460897,0.03359314,164,6,231,2,0,-6496.6743,335.92126,3759.0566,35.987907,273120.97,457.2298,214.48703,225.9404,204.95598,204.95598,-11.76,1,581.3955,0,0,16.950703,16.95071,0,2,193,0,0,0,1,-127,129,0
True,18100968,15999.99,0,5630.3564,-16.835274,1.644167,5.2062984,18.200829,0.29205307,30.492317,0.08885553,-0.62762153,0.25294486,0.9529997,-0.007618381,0.0931448,0.21676426,0.37526312,0.1674259,0.5304237,1.1851295,0.9657443,1.069348,0.96399045,129.37053,126.45475,130.97305,131.37831,0,0,0,0,0,0,0,0,0.120000005,0.120000005,0.120000005,0.120000005,-1.9813454,-1.9043293,-1.9262098,-1.8536761,2.3087358,2.1352124,2.2031317,2.0893521,-0.0060766935,0.01336579,-0.00898689,0.03417086,164,6,231,2,0,-6492.8276,336.1629,3759.2783,35.51249,262893.03,446.77786,212.30966,222.97275,203.10251,203.10251,-11.76,1,583.16394,0,0,17.0587,17.058706,0,2,193,0,0,0,1,-127,129,0
True,18101078,15999.99,0,5485.708,-16.015127,0.62878346,5.1098223,18.254944,0.48163527,29.799559,0.07614575,-0.61515886,0.09446059,0.8834026,0.006942443,0.10883793,0.2438838,0.31322744,0.1646975,0.4204706,1.134538,1.1238203,1.1008034,0.8348277,124.39832,128.31024,128.24501,125.497406,0,0,0,0,0,0,0,0,0.120000005,0.120000005,0.120000005,0.120000005,-1.9995764,-1.9626085,-1.9354768,-1.777482,2.2990177,2.2615933,2.2266204,1.9637667,-0.0027500354,0.005756099,-0.009311277,0.021098249,164,6,231,2,0,-6488.903,336.4211,3759.7336,34.949795,247994.84,430.60144,210.3222,220.1907,201.36655,201.36655,-11.76,1,584.86847,0,0,17.1712,17.171206,0,2,194,0,0,0,1,-127,129,0
True,18101203,15999.99,0,5314.943,-17.561556,1.8041171,6.1235776,18.390741,0.4261374,28.949429,-0.03181729,-0.67373383,0.0054322574,0.8013013,0.010452188,0.115792714,0.19375405,0.34380093,0.14006521,0.48844042,1.2898107,1.0373001,1.0458955,0.80282545,125.33979,122.09944,123.469795,120.96914,0,0,0,0,0,0,0,0,0.120000005,0.120000005,0.120000005,0.120000005,-2.0806456,-1.9813653,-1.9698161,-1.8212019,2.4479985,2.2364705,2.2302628,1.9903028,-0.0088992715,0.009506438,-0.012239873,0.029179357,164,6,231,2,0,-6484.7666,336.69543,3760.4702,34.299713,271852.62,487.37393,208.48796,217.59238,199.6945,199.6945,-11.76,1,587.8116,0,0,17.292892,17.292896,0,2,209,0,0,0,1,-127,129,0
True,18101312,15999.99,0,5485.0605,-15.77944,0.45139456,5.669775,18.688656,0.38438743,28.218382,0.08206714,-0.6247719,0.13031915,0.73816675,0.026304686,0.12659435,0.16314422,0.21615018,0.16158952,0.3797114,1.3497931,1.1675189,1.3540589,1.0907372,124.183815,123.29628,129.5767,126.947334,0,0,0,0,0,0,0,0,0.120000005,0.120000005,0.120000005,0.120000005,-2.1242275,-2.0668006,-2.0844557,-1.9353802,2.5168004,2.373766,2.485645,2.221577,-0.01265407,-0.006152019,-0.009680793,0.01625228,164,6,231,2,0,-6481.3403,336.91266,3761.2751,33.848053,328143.03,571.01605,207.00963,215.46423,198.4185,198.4185,-11.76,1,590.29675,0,0,17.396425,17.396433,0,2,255,0,0,0,1,-100,129,0
True,18101406,15999.99,0,5498.38,-16.71151,1.4632257,6.6885834,18.799286,0.423787,27.601913,-0.0074558705,-0.6595724,-0.07286711,0.6723494,0.039606217,0.13522996,0.28855944,0.37499624,0.1116326,0.428574,1.236108,1.1206442,1.403315,1.2221602,123.97628,124.5233,128.82507,128.09555,0,0,0,0,0,0,0,0,0.120000005,0.120000005,0.120000005,0.120000005,-1.9497491,-1.876425,-2.0980558,-2.0182312,2.3085675,2.1855924,2.5241098,2.3594348,0.002730161,0.013333052,-0.015620301,0.022061683,164,6,231,2,0,-6477.99,337.11185,3762.2417,33.39848,327847.22,569.3989,205.79591,213.4844,197.38557,197.38557,-11.76,1,592.7699,0,0,17.500359,17.500368,0,2,255,0,0,0,1,0,129,0
True,18101531,15999.99,0,5378.6235,-17.228941,2.3621418,7.951592,18.82663,0.47815132,26.940231,-0.06359144,-0.6891857,0.0766136,0.5915016,0.05003195,0.14393754,0.32041803,0.39881095,0.1507891,0.43184355,1.2343372,1.2467538,1.4176623,1.131379,120.875404,126.11235,125.579254,123.636,0,0,0,0,0,0,0,0,0.120000005,0.120000005,0.120000005,0.120000005,-1.9668595,-1.9485881,-2.1412127,-1.9622297,2.322095,2.3133073,2.5679872,2.2650306,0.0066381395,0.016254317,-0.0109648835,0.02245041,164,6,231,2,0,-6474.2227,337.3342,3763.5886,32.870148,326580.88,578.4424,204.33897,211.34435,196.37766,196.37766,-11.76,1,595.61456,0,0,17.62134,17.621347,0,2,255,0,0,0,1,0,129,0
True,18101640,15999.99,0,5375.983,-17.25639,2.3884864,8.71794,18.961668,0.26284575,26.44078,0.054482006,-0.621211,0.22192115,0.5235186,0.058584966,0.15638466,0.22944835,0.3104601,0.21107273,0.5888357,0.78993386,0.69287723,1.5294986,1.2040614,120.58242,124.04309,126.36451,123.94036,0,0,0,0,0,0,0,0,0.120000005,0.120000005,0.120000005,0.120000005,-1.027124,-0.79862696,-2.219571,-2.0324082,1.2957544,1.0573003,2.6955264,2.362297,-0.0045207813,0.0054166354,-0.0037976056,0.04111561,164,6,231,2,0,-6471.1377,337.50882,3764.9119,32.538113,349104.4,620.17114,202.60934,209.06294,195.87244,195.87244,-11.76,1,597.34314,0,0,17.724205,17.72421,0,2,255,0,0,0,1,127,129,0
True,18101750,15999.99,0,5273.0996,-11.145529,2.9885044,9.4012165,19.217665,0.44789147,26.413464,-0.05975785,-0.39730048,0.2816395,0.46186465,0.065867655,0.15898035,0.31300557,0.3179652,0.17400077,0.6644586,0.26620722,0.58910143,1.4123759,1.2852058,109.3907,123.28733,124.3825,125.06178,0,0,0,0,0,0,0,0,0.120000005,0.120000005,0.120000005,0.120000005,-0.2889164,0.42297935,-2.1303368,-2.0316617,0.39286,0.7252255,2.556001,2.404039,0.005728882,0.0063372627,-0.008205187,0.050106615,164,6,231,2,0,-6467.6973,337.70465,3766.6396,32.667877,437612.34,789.76996,199.3479,205.26083,195.04697,195.04697,-11.76,1,598.2799,0,0,17.842554,17.842564,0,2,255,0,0,0,1,124,129,0
True,18101859,15999.99,0,5600.522,-14.377607,0.28350008,6.4749603,18.567434,0.35526824,26.435818,0.10498708,-0.23361358,0.0470474,0.43075055,0.07499568,0.1641387,0.21620904,0.20380558,0.116389625,0.37708658,0.9559908,0.9026384,1.6253787,1.5252669,126.29999,126.46068,130.19656,131.6889,0,0,0,0,0,0,0,0,0.120000005,0.120000005,0.120000005,0.120000005,-1.2402022,-1.0648321,-2.132434,-2.103835,1.5658926,1.395931,2.6812553,2.5985692,-0.0061447993,-0.007666286,-0.015054725,0.015940215,164,6,231,2,0,-6464.7075,337.87463,3768.3354,32.30678,369563.88,632.32623,196.53362,202.0987,194.67691,194.67691,-11.76,1,600.7194,0,0,17.948383,17.948391,0,2,255,0,0,0,1,-127,129,0
True,18101968,15999.99,0,5484.651,-17.102367,2.4973142,8.013756,17.481531,0.24436307,26.801474,-0.103049956,-0.26182258,-0.09186295,0.39966467,0.06970753,0.16918227,0.31315354,0.18077423,0.07566747,0.49283114,1.0196424,1.699135,1.3805987,1.4353212,112.85837,135.01535,125.61916,130.66289,0,0,0,0,0,0,0,0,0.120000005,0.120000005,0.120000005,0.120000005,-1.9783381,-1.96135,-1.9627784,-1.9312059,2.225644,2.5949862,2.3996983,2.4061801,0.0057470314,-0.010491461,-0.019896287,0.029701382,164,6,231,2,0,-6461.791,338.01773,3770.2075,31.999727,358868.6,624.3648,195.42664,200.26566,193.91867,193.91867,-11.76,1,603.18195,0,0,18.056225,18.056234,0,2,255,0,0,0,1,-127,129,0
True,18102078,15999.99,0,5546.3896,-16.986814,0.40422916,3.2930884,16.260818,-0.0015010834,26.105913,0.014603221,-0.26926333,0.03687743,0.3637062,0.064220205,0.1647974,0.231096,0.22300085,0.13449126,0.36398986,1.9346629,1.7440908,1.4964857,1.3946892,133.01541,130.2606,126.08831,126.257576,0,0,0,0,0,0,0,0,0.120000005,0.120000005,0.120000005,0.120000005,-2.0845072,-2.0517926,-1.8831576,-1.8381145,2.843957,2.6928992,2.405359,2.307341,-0.0043186694,-0.0053116716,-0.012902575,0.014383111,164,6,231,2,0,-6459.0234,338.14566,3772.2356,30.756023,348650.06,600.4339,194.84583,199.58783,193.30746,193.30746,-11.76,1,605.61523,0,0,18.16718,18.167189,0,2,255,0,0,0,1,-127,129,0
True,18102187,15999.99,0,5603.8486,-13.669077,-0.7100291,5.703298,15.47547,0.086078405,26.365614,-0.06305644,-0.3052004,-0.0022640247,0.3355834,0.0713506,0.1618084,0.3027843,0.24814107,0.120290846,0.31213716,1.7110374,1.62372,1.6228504,1.4823421,128.67029,128.70406,130.7293,128.8978,0,0,0,0,0,0,0,0,0.120000005,0.120000005,0.120000005,0.120000005,-1.9857575,-1.9503345,-1.8543699,-1.8157711,2.6212368,2.537769,2.46421,2.3440058,0.0044750758,-0.002227813,-0.0145908985,0.00821821,164,6,231,2,0,-6456.4536,338.24588,3774.3584,30.57193,341216,583.6927,194.4971,198.77142,192.50787,192.50787,-11.76,1,607.9661,0,0,18.275951,18.27596,0,2,255,0,0,0,1,-127,129,0
True,18102296,15999.99,0,5488.012,-13.9948225,-0.78135,6.079755,14.785568,-0.10997343,26.460089,-0.10828125,-0.35088977,0.10150009,0.29519835,0.059375305,0.14656681,0.25024766,0.21069829,0.14020218,0.3367987,1.7555857,1.4737873,1.5457375,1.2604281,130.25807,124.9283,127.98186,124.58446,0,0,0,0,0,0,0,0,0.120000005,0.120000005,0.120000005,0.120000005,-1.9069686,-1.8449881,-1.7981322,-1.665966,2.5920281,2.361362,2.3711987,2.0890481,-0.0019694045,-0.006820783,-0.012223588,0.011150278,164,6,231,2,0,-6454.059,338.3135,3776.5671,30.311077,331902.84,577.6732,194.01721,197.91382,191.71042,191.71042,-11.76,1,610.2444,0,0,18.383087,18.383097,0,2,255,0,0,0,1,-127,129,0
True,18102421,15999.99,0,5176.1455,-16.563946,2.2953591,7.5862513,13.640883,-0.012836099,26.866993,-0.24348651,-0.39820093,-0.16548835,0.2519031,0.05309143,0.14649215,0.4508508,0.2497778,0.19153488,0.4588292,0.8530388,1.4115666,1.2775251,1.111312,106.603195,125.745964,122.21094,120.51107,0,0,0,0,0,0,0,0,0.120000005,0.120000005,0.120000005,0.120000005,-1.7136565,-1.6910894,-1.6533164,-1.5688958,1.9142345,2.2027946,2.0893838,1.922615,0.022637859,-0.0020270422,-0.0061205104,0.025658801,164,6,231,2,0,-6451.5186,338.38388,3779.2744,30.131533,319592.8,589.52155,193.43256,196.76741,190.58614,190.58614,-11.76,1,611.52185,0,0,18.505953,18.505966,0,3,255,0,0,0,1,-127,129,0
True,18102531,15999.99,0,5199.7295,-14.032934,-0.23664635,6.6762285,13.237459,-0.32440507,27.011562,-0.038943395,-0.30972296,-0.16837972,0.21025284,0.040736638,0.1305527,0.25301307,0.21264485,0.28282228,0.35270733,1.3974427,1.2768842,1.1384138,1.0357875,122.87686,121.43933,119.228905,118.69944,0,0,0,0,0,0,0,0,0.120000005,0.120000005,0.120000005,0.120000005,-1.7222198,-1.6696335,-1.5472476,-1.5194278,2.2178564,2.10193,1.9209272,1.83889,-0.0016301796,-0.006582007,0.0047328845,0.013041697,164,6,231,2,0,-6449.4717,338.4315,3781.7646,30.082554,319021.53,585.8108,192.32803,195.58301,189.56285,189.56285,-11.76,1,612.74713,0,0,18.613064,18.61308,0,3,255,0,0,0,1,-127,129,0
True,18102625,15999.99,0,5067.526,-14.648419,1.2261447,7.002369,12.479141,-0.23866081,27.33434,-0.14306398,-0.35489646,-0.07497568,0.17256731,0.03201727,0.12056426,0.34148735,0.30834103,0.2600909,0.45879886,0.9040507,1.2730336,1.0901974,0.89620274,109.16324,123.828674,118.07716,116.56684,0,0,0,0,0,0,0,0,0.120000005,0.120000005,0.120000005,0.120000005,-1.5383261,-1.5933971,-1.4813055,-1.3858268,1.784308,2.0394924,1.8392379,1.6503621,0.009222638,0.0051566996,0.0020302907,0.025655195,164,6,231,2,0,-6447.627,338.47357,3784.3105,30.04916,319658.53,600.18585,191.37007,194.38208,188.42613,188.42613,-11.76,1,614.95825,0,0,18.717688,18.717705,0,3,255,0,0,0,1,-120,129,0
True,18102734,15999.99,0,5226.416,-13.264181,-0.15666708,6.43752,11.8972225,-0.08324933,27.603106,-0.07954413,-0.32493114,-0.2165816,0.13892074,0.030536974,0.09888226,0.430284,0.15666512,0.28212556,0.3394894,0.98045284,0.9251784,1.1594073,1.0366981,119.60742,118.39828,122.06083,121.179695,0,0,0,0,0,0,0,0,0.120000005,0.120000005,0.120000005,0.120000005,-1.143081,-1.0822589,-1.4308442,-1.3818164,1.5059621,1.4238117,1.8416135,1.727472,0.020115003,-0.01344884,0.0046500526,0.011470184,164,6,231,2,0,-6445.9336,338.51468,3786.9758,30.057981,343106.28,628.3282,190.20712,193.02818,187.24509,187.24509,-11.76,1,617.15643,0,0,18.82283,18.822845,0,3,255,0,0,0,1,78,129,0
True,18102859,15999.99,0,4936.165,-9.656293,4.708075,10.630214,11.650527,-0.06559706,28.39238,-0.18245539,-0.19420601,-0.1662395,0.100740604,0.013275946,0.08883628,0.47499427,0.36105356,0.35049057,0.41567385,0.3102043,0.65903336,0.7944782,0.76802826,105.556816,119.03194,114.973724,114.8661,0,0,0,0,0,0,0,0,0.120000005,0.120000005,0.120000005,0.120000005,0.107751384,0.5287114,-1.2936635,-1.263193,0.32838553,0.84490275,1.5181439,1.4783518,0.02559945,0.011622753,0.012778144,0.020527951,164,6,231,2,0,-6444.141,338.55063,3790.1445,30.68984,579560.9,1121.7957,187.91397,190.5224,186.00417,186.00417,-11.76,1,619.6612,0,0,18.943048,18.943064,0,3,255,0,0,0,1,127,129,0
True,18102953,15999.99,0,5315.3726,-7.582381,1.8762314,7.8080206,11.341747,-0.24607943,28.90203,-0.0752023,0.017274246,-0.22219153,0.091591865,-0.00076441705,0.075859696,0.40178195,0.26569885,0.3996468,0.33875558,0.6383068,0.80960345,0.937535,1.0059958,120.224846,122.73154,122.64326,124.25075,0,0,0,0,0,0,0,0,0.120000005,0.120000005,0.120000005,0.120000005,0.12050794,0.5148688,-1.2358881,-1.2487136,0.64958274,0.95945174,1.5512547,1.6035315,0.016618758,-7.40625E-05,0.018622454,0.011382941,164,6,231,2,0,-6442.8545,338.60794,3792.6343,31.04872,461949.56,832.032,186.05704,188.61827,185.00475,185.00475,-11.76,1,621.57056,0,0,19.033802,19.03382,0,3,255,0,0,0,1,117,129,0
True,18103062,15999.99,0,4807.776,-11.499886,1.6442547,9.445224,9.910504,-0.2716884,30.037382,-0.0700614,0.116222076,-0.05640628,0.10057898,-0.011033214,0.06752646,0.17331854,0.31735227,0.33860317,0.46649742,4.0159664,0.63970524,1.4701744,2.0410352,127.09993,100.96458,108.832115,109.990524,0,0,0,0,0,0,0,0,0,0.120000005,0.120000005,0.120000005,-2.8056788,-2.2778313,-2.6581967,-3.2390132,4.898961,2.365954,3.0376673,3.8284502,-0.011406025,0.006262075,0.011364821,0.026570499,164,6,231,2,0,-6441.3784,338.68088,3795.7087,31.631252,252594.78,500.6553,188.23811,188.42236,189.24835,189.24835,-11.76,1,623.8731,0,0,19.142502,19.142519,0,3,255,0,0,0,1,0,129,0
True,18103187,15999.99,0,4721.3477,-16.172411,0.30959603,5.502921,7.418051,0.0075201876,30.82857,0.16047584,0.20569387,0.10647753,0.12084691,-0.0057703676,0.061332747,0.096121795,0.30296484,0.26775038,0.47712305,0,0.542429,1.5689348,1.5408733,120.38553,99.0039,108.71998,108.643295,0,0,0,0,0,0,0,0,0,0,0,0.120000005,0,-2.7447517,-2.5688124,-2.389637,0,2.7978368,3.0100422,2.8433528,-0.020875469,0.0044972226,0.0029409453,0.027833804,164,6,231,2,0,-6440.0356,338.76196,3799.0195,31.708487,193652.9,391.96304,191.32393,194.85478,196.62413,196.62413,-11.76,1,625.6921,0,0,19.25535,19.255367,0,3,255,0,0,0,1,-127,129,0
True,18103312,15999.99,0,4500.072,-19.092228,0.63916284,5.032839,4.4708505,0.10928404,31.539831,-0.06341041,0.10137215,-0.03780815,0.13956344,-0.004273106,0.060778975,0.2860985,0.31527543,0.16200352,0.3700891,1.0714839,0.5725777,0.750424,0.5642251,106.019585,101.996925,104.52508,103.24099,0,0,0,0,0,0,0,0,0,0,0,0,-2.245501,-2.0751693,-1.5227803,-1.2401286,2.4880419,2.1527128,1.6976444,1.3624496,0.0024282895,0.0060073175,-0.00963157,0.015108265,164,6,231,2,0,-6438.74,338.83038,3802.9163,31.85532,294908.22,625.9321,192.21213,201.55298,199.11432,199.11432,-11.76,1,627.6138,0,0,19.384716,19.384733,0,3,255,0,0,0,1,-127,129,0
True,18103406,15999.99,0,4557.8184,-19.630363,0.4962623,6.0394373,2.160048,0.09300548,32.220425,-0.03598172,0.11420369,0.0060668197,0.15220018,-0.0074838065,0.05531661,0.21610156,0.39847633,0.21559076,0.36252484,1.3998839,0.1947315,0.5470216,0.45995867,111.54773,101.400185,104.90605,104.302704,0,0,0,0,0,0,0,0,0,0,0,0,-0.96074873,-0.81379825,-0.680354,-0.6238529,1.6978554,0.8367723,0.87299156,0.7750835,-0.006157983,0.016213272,-0.0032604448,0.014208928,164,6,231,2,0,-6437.971,338.87756,3805.9517,32.29288,332052.72,695.4783,193.70605,202.06656,197.41739,197.41739,0,1,629.7547,0,0,19.482399,19.482416,0,3,255,0,0,0,1,0,132,0
True,18103546,15999.99,0,4688.0103,-10.438076,0.7953326,11.972314,0.13934517,-0.18675342,33.771034,-0.06716528,0.10132161,0.082490936,0.16679253,-0.018242432,0.059603132,0.20130801,0.34306,0.2600941,0.40872252,0.35453033,0.32308772,0.35009655,0.35127297,108.36316,107.61922,108.61094,108.222404,0,0,0,0,0,0,0,0,0,0,0,0,-0.09926488,-0.097434774,-0.0139836315,-0.0057837674,0.36816472,0.33745995,0.3503757,0.3513206,-0.007972654,0.009415548,0.0020306744,0.019701492,164,6,231,2,0,-6437.1636,338.92923,3810.1772,33.771835,718654.1,1465.6134,191.75653,198.9942,194.49777,194.49777,0,1,632.6417,0,0,19.613007,19.613024,0,3,255,0,0,0,1,0,161,0
True,18103656,15999.99,0,4899.008,-0.72472644,1.0943829,13.90328,-0.097528934,-0.28329566,35.336914,-0.045947984,0.07193695,0.059846338,0.17674765,-0.025453549,0.068183325,0.24387692,0.30556327,0.31327808,0.41008145,0.2648974,0.43710753,0.31515637,0.33915824,112.45945,113.70277,113.23456,113.10973,0,0,0,0,0,0,0,0,0,0,0,0,0.031060783,0.035505395,0.044876505,0.054388493,0.26671222,0.4385472,0.3183354,0.34349152,-0.002750881,0.004815962,0.008353855,0.019863058,164,6,231,2,0,-6436.515,338.9864,3813.906,35.33818,728385.4,1421.2067,189.5773,196.45917,192.16864,192.16864,0,1,635.16705,0,0,19.722475,19.72249,0,3,255,0,0,0,1,6,185,0
True,18103765,15999.99,0,5105.7017,1.0761466,0.28104627,13.687845,-0.0942812,-0.29416335,36.8029,0.008983409,0.0044137463,0.011433963,0.17982602,-0.027011128,0.0715189,0.20331807,0.22814232,0.3546746,0.38314456,0.32194576,0.3857786,0.34571987,0.35952187,117.428505,117.99,117.98323,118.06534,0,0,0,0,0,0,0,0,0,0,0,0,0.022926437,0.026302103,0.022414235,0.031517807,0.32276106,0.3866742,0.3464457,0.36090073,-0.007726088,-0.0046809874,0.0132755935,0.01666046,164,6,231,2,0,-6435.8257,339.0592,3817.7725,36.804195,714167.75,1336.9052,187.5359,194.11237,190.00331,190.00331,0,1,637.79205,0,0,19.831291,19.831308,0,3,255,0,0,0,1,0,207,0
True,18103875,15999.99,0,5292.104,-3.0594888,0.40340188,13.347344,-0.1772623,-0.30175257,38.24352,-0.048240103,-0.16876368,-0.035951804,0.17364624,-0.027573539,0.07035529,0.2563175,0.25676015,0.32952914,0.32883784,0.354114,0.2247672,0.37299153,0.29030013,122.04206,121.53139,122.45467,122.44959,0,0,0,0,0,0,0,0,0,0,0,0,-0.33098724,-0.3017819,-0.007199754,-0.0024672241,0.48471567,0.37628794,0.373061,0.29031062,-0.0012248382,-0.0011705421,0.010285981,0.010203794,164,6,231,2,0,-6435.1025,339.13696,3821.8457,38.245117,747924.25,1350.722,185.6247,191.88202,187.95964,187.95964,0,1,640.30304,0,0,19.941507,19.941523,0,3,255,0,0,0,1,-127,226,0
True,18103968,15999.99,0,5455.097,-7.8858395,1.6640617,12.187632,-0.014760971,-0.31702113,39.398045,-0.031771615,-0.38755205,-0.026953699,0.14623871,-0.031057011,0.06770346,0.29123303,0.3120838,0.39216748,0.42736185,0.5823002,0.2413436,0.36017463,0.20589802,127.333694,125.82199,125.53453,125.78752,0,0,0,0,0,0,0,0,0,0,0,0,-0.48242944,-0.42616814,-0.11761406,-0.09277831,0.7561823,0.48976117,0.37889156,0.2258358,0.0030581243,0.005615812,0.017733216,0.021917567,164,6,231,2,0,-6434.523,339.21545,3825.4785,39.399323,707739.8,1239.9701,184.17905,190.16464,186.31813,186.31813,0,1,642.8925,0,0,20.036222,20.03624,0,3,255,0,0,0,1,-69,241,0
True,18104078,15999.99,0,5644.03,-7.722276,-0.17795709,11.877225,0.5412712,-0.27443707,40.706898,0.029375525,-0.19925418,-0.017556874,0.109868184,-0.026940046,0.06714775,0.2567065,0.28689975,0.36916667,0.40623266,0.37280563,0.24843492,0.44899526,0.2994394,129.82193,129.54605,130.95172,130.4568,0,0,0,0,0,0,0,0,0,0,0,0,-0.070212916,-0.06404099,-0.20458719,-0.17787696,0.37935984,0.25655633,0.49340922,0.3482875,-0.001177121,0.0025265738,0.014998592,0.019405462,164,6,231,2,0,-6433.9194,339.31757,3829.9521,40.71142,714805.5,1210.1738,182.51797,188.15091,184.5129,184.5129,0,1,646.05927,0,0,20.148905,20.148922,0,3,255,0,0,0,1,0,2,0
