IsRaceOn,TimestampMS,EngineMaxRpm,EngineIdleRpm,CurrentEngineRpm,AccelerationX,AccelerationY,AccelerationZ,VelocityX,VelocityY,VelocityZ,AngularVelocityX,AngularVelocityY,AngularVelocityZ,Yaw,Pitch,Roll,NormalizedSuspensionTravelFrontLeft,NormalizedSuspensionTravelFrontRight,NormalizedSuspensionTravelRearLeft,NormalizedSuspensionTravelRearRight,TireSlipRatioFrontLeft,TireSlipRatioFrontRight,TireSlipRatioRearLeft,TireSlipRatioRearRight,WheelRotationSpeedFrontLeft,WheelRotationSpeedFrontRight,WheelRotationSpeedRearLeft,WheelRotationSpeedRearRight,WheelOnRumbleStripFrontLeft,WheelOnRumbleStripFrontRight,WheelOnRumbleStripRearLeft,WheelOnRumbleStripRearRight,WheelInPuddleDepthFrontLeft,WheelInPuddleDepthFrontRight,WheelInPuddleDepthRearLeft,WheelInPuddleDepthRearRight,SurfaceRumbleFrontLeft,SurfaceRumbleFrontRight,SurfaceRumbleRearLeft,SurfaceRumbleRearRight,TireSlipAngleFrontLeft,TireSlipAngleFrontRight,TireSlipAngleRearLeft,TireSlipAngleRearRight,TireCombinedSlipFrontLeft,TireCombinedSlipFrontRight,TireCombinedSlipRearLeft,TireCombinedSlipRearRight,SuspensionTravelMetersFrontLeft,SuspensionTravelMetersFrontRight,SuspensionTravelMetersRearLeft,SuspensionTravelMetersRearRight,CarOrdinal,CarClass,CarPerformanceIndex,DrivetrainType,NumCylinders,PositionX,PositionY,PositionZ,Speed,Power,Torque,TireTempFl,TireTempFr,TireTempRl,TireTempRr,Boost,Fuel,Distance,BestLapTime,LastLapTime,CurrentLapTime,CurrentRaceTime,Lap,RacePosition,Accelerator,Brake,Clutch,Handbrake,Gear,Steer,NormalDrivingLine,NormalAiBrakeDifference
True,10027828,10999.993,999.9994,1140.0165,0.6249606,0.012622265,-0.5455464,-0.0036064386,-0.0043113157,3.3162575,-0.0054192794,-0.00027096114,0.0013303075,-0.55586666,-0.013932044,0.03836152,0.5284174,0.5298671,0.48525816,0.48241737,-0.003667999,0.0013962697,-0.00839337,0.0012539029,9.830777,9.82096,9.282279,9.265092,0,0,0,0,0,0,0,0,0,0,0,0,0.009473136,0.0082489215,0.0063396804,0.007429407,0.01015847,0.008366258,0.010518565,0.007534478,0.0009312127,0.001043506,0.00012515485,-8.089095E-05,36,6,231,2,6,6020.8896,106.241844,-1417.6622,3.3162622,-665.01373,-5.569384,90.20445,90.70662,85.578674,85.578674,-11.024998,1,217.4361,0,0,0.7034599,117.273254,0,12,0,0,0,0,1,0,7,0
True,10046093,10999.993,999.9994,1998.1001,0.19675492,0.006040809,0.00041432335,0.0015994024,-0.00041883055,-5.841142E-05,-9.674589E-05,-3.3045635E-06,-0.004804852,1.5728756,-0.00087090087,-0.00024207476,0.51512533,0.51824456,0.4825104,0.48535493,4.4328597E-05,4.770261E-05,4.0703006E-05,4.3061504E-05,-3.7462152E-05,1.2550168E-05,-3.788346E-05,7.042203E-06,0,0,0,0,0,0,0,0,0,0,0,0,0.0004037794,0.00040559098,0.000221933,0.00022389603,0.0004062054,0.00040838655,0.00022563463,0.0002279994,-9.839423E-05,0.00014322251,-7.414445E-05,0.0001321733,36,6,231,2,6,2434.8896,346.30637,-3185.4001,0.0016543635,62292.633,303.9668,92.513824,92.51369,92.51645,92.51645,-11.0250025,1,-56.856804,0,0,0.10901363,0.10901363,0,8,255,0,0,0,1,0,53,0
True,10046203,10999.993,999.9994,4713.6074,0.19766325,0.010612416,0.00042029683,0.0028142352,-0.0006819226,-8.870622E-05,-2.8305209E-05,-3.4763061E-06,-0.008827949,1.5728763,-0.0008778041,-0.0010238116,0.510033,0.5247312,0.47777918,0.491861,3.0907548E-05,2.5581754E-05,2.7780972E-05,2.331176E-05,-0.00021981605,-0.00016681332,-0.00021108877,-0.00016207388,0,0,0,0,0,0,0,0,0,0,0,0,0.000227244,0.00024857227,0.0001573821,0.00018095945,0.00022933625,0.00024988517,0.00015981523,0.00018245482,-0.00049284287,0.0006456822,-0.0004173033,0.000604067,36,6,231,2,6,2434.8896,346.3063,-3185.4004,0.002897034,286242.3,589.3624,92.47238,92.472244,92.47498,92.47498,-4.520385,1,-56.856804,0,0,0.21883117,0.21883117,0,8,255,0,0,0,1,0,53,0
True,10046312,10999.993,999.9994,7434.297,-0.0713628,0.0018306104,1.9691966,0.0014588665,-0.0007085516,0.21768644,-0.01953973,-0.00092895987,-0.0045023365,1.5728682,-0.0011191699,-0.0017600085,0.5018389,0.52880806,0.4736588,0.50037026,0.19025636,0.16387285,0.7663161,0.6350263,1.0760913,1.0293771,2.4686253,2.1707094,0,0,0,0,0,0,0,0,0,0,0,0,0.0014433593,0.0014726927,-0.0011668004,-0.0011427749,0.19026183,0.16387947,0.766317,0.6350273,-0.0011275541,0.00096147135,-0.000716161,0.0012212545,36,6,231,2,6,2434.8923,346.30627,-3185.4006,0.2176925,458594.44,589.3624,92.43178,92.43157,92.43628,92.43628,22.240715,1,-56.85513,0,0,0.3288507,0.3288507,0,8,255,0,0,0,1,0,53,0
True,10046421,10999.993,999.9994,7678.4683,0.14138433,0.03852629,11.23157,0.004202764,-3.853539E-05,1.6321833,-0.036069192,-0.027405012,-0.0064919665,1.5716909,-0.005570942,-0.003252185,0.4185898,0.47109744,0.50660795,0.5581347,30.555815,22.462349,27.97255,26.890131,64.32616,50.31903,65.22022,64.67971,0,0,0,0,0,0,0,0,0,0,0,0,0.21782993,0.20743564,-0.14923729,-0.13907383,30.556591,22.463306,27.972948,26.890491,-0.0075760353,-0.0035087913,0.0016736835,0.0054109767,36,6,231,2,6,2434.996,346.30615,-3185.4011,1.6321888,840018.2,1050.6514,93.90756,93.847084,94.85785,94.85785,34.04353,1,-56.790573,0,0,0.43858522,0.4385852,0,8,255,0,0,0,1,0,53,0
True,10046515,10999.993,999.9994,8259.987,-0.0051115565,-0.6110635,11.309741,0.010126763,-0.0708712,2.9150958,-0.0121646365,-0.044797026,0.0061234036,1.567262,-0.0080667045,-0.003196786,0.31852463,0.37411496,0.46560493,0.51362777,33.726337,27.988134,28.817291,28.069582,72.94581,63.149105,68.41226,67.73973,0,0,0,0,0,0,0,0,0,0,0,0,0.17983647,0.17519172,-0.16547742,-0.15670887,33.726818,27.988684,28.817766,28.070019,-0.01532708,-0.011021054,-0.0013003163,0.0021828376,36,6,231,2,6,2435.2505,346.3052,-3185.4014,2.9159749,326573.25,377.39285,96.56723,96.54909,98.138794,98.138794,36.24636,1,-56.632328,0,0,0.5484727,0.5484727,0,8,255,0,0,0,1,0,53,0
True,10046640,10999.993,999.9994,8461.824,-0.02296871,0.015188706,12.126572,0.025099175,-0.06667829,4.2008157,-0.007953406,-0.06194823,0.006221346,1.5614581,-0.009203316,-0.0017246777,0.369971,0.39830372,0.5294293,0.580114,28.5611,29.622232,27.716848,27.0942,67.576324,69.99474,70.19419,69.80416,0,0,0,0,0,0,0,0,0,0,0,0,0.14750499,0.14667454,-0.17804489,-0.16853894,28.561481,29.622595,27.71742,27.094725,-0.011342046,-0.009147395,0.0033289418,0.0070051663,36,6,231,2,6,2435.6294,346.3008,-3185.4006,4.20142,252964.94,285.01294,99.11922,98.98759,100.98462,100.98462,36.650562,1,-56.39661,0,0,0.6545674,0.65456736,0,8,255,0,0,0,1,0,53,0
True,10046734,10999.993,999.9994,8833.386,0.101450644,0.3898572,12.564236,0.052506518,-0.037323847,5.473277,-0.008683487,-0.07893006,0.011150282,1.5544274,-0.009808313,-0.0010026828,0.41242206,0.4310538,0.57150537,0.6303061,27.072351,27.760483,27.75346,25.76931,69.694046,71.11006,73.978966,72.95534,0,0,0,0,0,0,0,0,0,0,0,0,0.105954744,0.10795358,-0.20269129,-0.18541253,27.07256,27.760693,27.7542,25.769976,-0.008053789,-0.0066105723,0.0063807704,0.0106456615,36,6,231,2,6,2436.1294,346.2991,-3185.3982,5.4736567,542038.5,586.32404,101.405334,101.27774,103.63025,103.63025,36.72958,1,-56.085564,0,0,0.7581388,0.7581388,0,8,255,0,0,0,1,0,53,0
True,10046843,10999.993,999.9994,8987.219,-0.1325748,-0.06550315,12.194949,0.08706763,-0.04669214,6.531353,0.00877091,-0.075741604,-0.016137542,1.5474907,-0.00992247,-0.0012040422,0.38130963,0.39293766,0.5857737,0.5923501,27.03595,24.941755,23.976503,23.846394,74.99957,72.760994,73.96463,74.26345,0,0,0,0,0,0,0,0,0,0,0,0,0.05055694,0.05279618,-0.193139,-0.18938366,27.035997,24.941813,23.977282,23.847147,-0.010463756,-0.0095630465,0.007415671,0.0078926645,36,6,231,2,6,2436.657,346.30133,-3185.3936,6.5320997,725805.2,773.4978,103.20948,103.112076,105.86261,105.86261,36.744637,1,-55.75736,0,0,0.84555984,0.8455598,0,8,255,0,0,0,1,0,53,0
True,10046968,10999.993,999.9994,10235.933,-0.1096074,-0.10135818,12.029884,0.15400766,-0.058412258,8.035995,0.0042360253,-0.09092508,-0.013332201,1.5365158,-0.009618366,-0.0012184584,0.38333103,0.38812375,0.5677527,0.57879657,23.874186,22.792582,21.587202,21.580456,84.38895,83.73914,84.194214,84.67489,0,0,0,0,0,0,0,0,0,0,0,0,-0.0076473407,-0.0033137493,-0.23514277,-0.23238628,23.874187,22.792582,21.588482,21.581707,-0.010307179,-0.009935935,0.0061085857,0.006909609,36,6,231,2,6,2437.563,346.30377,-3185.382,8.037683,657090.3,613.77185,105.69622,105.5929,108.76221,108.76221,36.749195,1,-55.19376,0,0,0.9696999,0.96969986,0,8,255,0,0,0,1,0,53,0
True,10047062,10999.993,999.9994,9790.061,0.39775148,-0.099306926,11.914892,0.25100225,-0.06684225,9.118493,0.0022057262,-0.07164757,0.01275544,1.5288131,-0.008853058,-0.0012741856,0.4213491,0.38450366,0.5398462,0.59382993,16.878433,18.215094,18.408644,16.322731,75.79978,79.30652,83.44766,79.66598,0,0,0,0,0,0,0,0,0,0,0,0,1.2989231,1.5179577,-0.28085062,-0.2635826,16.92834,18.278234,18.410786,16.32486,-0.0073622987,-0.010216346,0.0040844902,0.007999998,36,6,231,2,6,2438.3455,346.30463,-3185.3696,9.122191,-360037.78,-348.58984,107.41087,107.30155,110.81516,110.81516,34.760685,1,-54.70699,0,0,1.0608814,1.0608813,0,8,255,0,0,0,1,127,54,0
True,10047187,10999.993,999.9994,9880.988,0.645679,-0.2544747,11.842355,0.36859816,-0.081420854,10.629666,0.008013139,0.0013343395,0.0019617465,1.5253532,-0.008026501,-0.0018592892,0.4095944,0.3888543,0.5459231,0.5810437,12.966806,14.67737,14.395499,13.201428,76.6277,82.00362,83.143616,80.89955,0,0,0,0,0,0,0,0,0,0,0,0,-0.045054633,-0.03713831,-0.26371935,-0.24995196,12.966885,14.677417,14.397915,13.2037945,-0.008272819,-0.009879347,0.004525259,0.0070725977,36,6,231,2,6,2439.605,346.3061,-3185.3552,10.636365,119729.21,115.32086,109.651726,109.51064,113.48018,113.48018,34.094204,1,-53.92349,0,0,1.1880752,1.1880752,0,8,255,0,0,0,1,0,54,0
True,10047296,10999.993,999.9994,9607.474,-0.28342646,-0.16869307,12.02267,0.3392378,-0.09049172,11.942556,0.0076796515,0.0056220926,-0.01862855,1.5252371,-0.007926145,-0.001854264,0.38720027,0.37414476,0.5727647,0.5555908,11.284908,11.648447,10.487414,11.089819,78.31183,79.87146,78.57397,79.82093,0,0,0,0,0,0,0,0,0,0,0,0,-0.2549475,-0.2489641,-0.20350647,-0.20677385,11.287787,11.651108,10.489388,11.091746,-0.010007467,-0.0110187465,0.0064721107,0.005226467,36,6,231,2,6,2440.8115,346.30728,-3185.338,11.947717,124822.28,123.689865,111.402405,111.26103,115.54727,115.54727,36.22973,1,-53.172897,0,0,1.2946694,1.2946694,0,8,255,0,0,0,1,0,54,0
True,10047390,10999.993,999.9994,8540.255,-0.36547464,-0.056826632,12.537301,0.3055951,-0.094261125,13.052179,-0.008134252,-0.0031696777,0.010913013,1.5255632,-0.0076747085,-0.002236775,0.4071249,0.40237778,0.54850984,0.57824004,6.1742716,6.7041783,7.853517,7.275039,64.78121,66.83976,72.37093,70.95428,0,0,0,0,0,0,0,0,0,0,0,0,-0.20236528,-0.20147143,-0.18245485,-0.17363654,6.1775866,6.707205,7.855636,7.277111,-0.008464104,-0.008831816,0.004712876,0.0068692416,36,6,231,2,6,2441.927,346.3071,-3185.3162,13.056096,129447.52,144.19757,112.72289,112.58539,117.07733,117.07733,36.617085,1,-52.478996,0,0,1.3838931,1.3838931,0,8,255,0,0,0,1,0,55,0
True,10047500,10999.993,999.9994,7206.3203,1.1545463,-0.08582843,13.824431,0.3317629,-0.114333086,14.47085,0.00040064257,0.056641433,0.0117350975,1.5275542,-0.0076630213,-0.0028366274,0.4079854,0.38372156,0.55685055,0.5752334,2.798759,3.3298657,4.041824,3.660124,55.434536,57.513615,60.92769,59.48145,0,0,0,0,0,0,0,0,0,0,0,0,0.9758548,1.1199186,-0.14192581,-0.13556117,2.964008,3.51315,4.044315,3.6626337,-0.0083974525,-0.010276928,0.005317837,0.006651167,36,6,231,2,6,2443.4946,346.30716,-3185.2805,14.475103,125797.29,165.90457,114.15375,114.03433,118.867584,118.867584,36.726723,1,-51.503826,0,0,1.4976623,1.4976622,0,8,255,0,0,0,1,117,56,0
True,10047625,10999.993,999.9994,6031.9927,2.2045376,-0.17140846,12.6657915,0.35228455,-0.13725035,15.965527,-0.006571107,0.25937596,-0.0035566008,1.5460784,-0.008384943,-0.0013449899,0.38806155,0.36783615,0.5832396,0.5585503,0.340635,1.1309134,0.70187765,0.94798857,49.851368,51.991997,49.388035,49.348934,0,0,0,0,0,0,0,0,0,0,0,0,0.019058373,0.025348388,-0.033514883,-0.031793553,0.34116775,1.1311975,0.70267737,0.94852155,-0.009940751,-0.0115074115,0.007231869,0.0054411218,36,6,231,2,6,2445.2085,346.30728,-3185.2637,15.970002,398457.5,631.19763,113.75778,114.61191,119.19237,119.19237,36.745853,1,-50.43765,0,0,1.6102345,1.6102345,0,8,255,0,0,0,1,0,56,0
True,10047734,10999.993,999.9994,6688.2197,-0.124998555,-0.08036286,14.716555,-0.069258615,-0.16154222,17.662369,-0.009623759,0.13278143,0.009142568,1.5673507,-0.009331755,-0.0018370511,0.36526173,0.3793376,0.5840869,0.5847176,0.49794298,0.46503323,0.81930923,0.96458703,55.514584,54.66034,55.029102,55.22138,0,0,0,0,0,0,0,0,0,0,0,0,-0.07550602,-0.07230665,0.08720215,0.09214145,0.50363517,0.47062102,0.8239368,0.9689779,-0.011706826,-0.010616508,0.007293325,0.0073390678,36,6,231,2,6,2447.0894,346.3072,-3185.2498,17.66324,537790.5,769.45746,112.61746,113.44317,117.74768,117.74768,36.749252,1,-49.267605,0,0,1.7219794,1.7219794,0,8,255,0,0,0,1,0,57,0
True,10047828,10999.993,999.9994,7195.083,0.84837335,-0.05684749,15.149051,-0.1179435,-0.18152086,19.076376,-0.007910691,0.07661106,0.011174286,1.5767086,-0.010144493,-0.0008560254,0.3656686,0.37164012,0.58977395,0.58919895,0.43509376,0.5281064,0.7950822,0.8986843,59.42835,59.576443,59.108917,59.361954,0,0,0,0,0,0,0,0,0,0,0,0,-0.00568917,-0.0014699588,0.0756057,0.080184415,0.43513095,0.5281085,0.79866886,0.90225446,-0.011675308,-0.011212757,0.0077058114,0.007664107,36,6,231,2,6,2448.7925,346.3079,-3185.2432,19.077604,581499.44,773.2318,111.71893,112.50278,116.62152,116.62152,36.749817,1,-48.208103,0,0,1.8145913,1.8145913,0,8,255,0,0,0,1,0,57,0
True,10047937,10999.993,999.9994,7766.7446,1.142866,-0.055795588,15.287428,-0.09280993,-0.19880573,20.762846,0.0004512705,0.039259784,0.003597118,1.5828668,-0.010634968,-0.0001017191,0.36853665,0.35984233,0.59531516,0.5898713,0.43159682,0.52149063,0.72997326,0.78760815,64.53447,64.893776,63.713478,63.898132,0,0,0,0,0,0,0,0,0,0,0,0,0.010107229,0.015025775,0.04679955,0.05051419,0.43171516,0.52170706,0.7314719,0.78922635,-0.011453152,-0.012126613,0.008107722,0.007712871,36,6,231,2,6,2450.9985,346.30988,-3185.2522,20.764004,620283.2,763.9824,110.70486,111.45364,115.34419,115.34419,36.749954,1,-46.835716,0,0,1.9252106,1.9252106,0,8,255,0,0,0,1,0,57,0
True,10048046,10999.993,999.9994,8264.226,0.39606267,-0.29291123,15.2149,-0.06228599,-0.20683487,22.218502,0.01149708,0.021615712,3.5182093E-05,1.5857098,-0.010002703,-1.8171265E-06,0.36253485,0.35301542,0.5946845,0.5844635,0.4383709,0.45893654,0.6875058,0.7258324,69.02821,69.04941,67.76441,67.92023,0,0,0,0,0,0,0,0,0,0,0,0,0.0086634,0.01364895,0.02731464,0.030573538,0.4384565,0.45913947,0.6880482,0.726476,-0.01191805,-0.012655424,0.008061979,0.0073206387,36,6,231,2,6,2453.0886,346.31183,-3185.2732,22.21955,649467.6,751.2568,109.87074,110.588715,114.27658,114.27658,36.749958,1,-45.535454,0,0,2.0223703,2.0223703,0,8,255,0,0,0,1,0,56,0
True,10048156,10999.993,999.9994,8766.779,0.43450356,-0.3297933,14.9832325,-0.03938204,-0.21292995,23.673685,0.010613028,0.011509652,-0.00035291712,1.5873067,-0.008768705,-5.237839E-05,0.36300382,0.35539606,0.5852903,0.5750292,0.39942962,0.42474613,0.6632541,0.675614,73.23067,73.354225,71.93562,71.969,0,0,0,0,0,0,0,0,0,0,0,0,0.005732263,0.01020006,0.015037076,0.017986173,0.39947075,0.42486858,0.6634245,0.6758534,-0.011881724,-0.01247102,0.0073806085,0.006636359,36,6,231,2,6,2455.3748,346.31235,-3185.3044,23.674675,672789.4,733.73535,109.06496,109.74788,113.23644,113.23644,36.749958,1,-44.11324,0,0,2.1219096,2.1219094,0,8,255,0,0,0,1,0,56,0
True,10048265,10999.993,999.9994,9278.9375,0.32239133,-0.24631207,14.773694,-0.010928392,-0.22441907,25.209455,0.0037728476,0.012308543,-0.00061725033,1.5882684,-0.008105093,-0.00016756382,0.3741318,0.36218336,0.576632,0.57024425,0.37587395,0.41194284,0.59762466,0.61310023,77.801125,78.02558,76.025116,76.09596,0,0,0,0,0,0,0,0,0,0,0,0,0.081371784,0.08675932,0.006145937,0.0089784805,0.38458106,0.4209799,0.59765625,0.613166,-0.0110197505,-0.0119452765,0.00675261,0.0062892996,36,6,231,2,6,2457.9812,346.31085,-3185.346,25.210455,705802.44,727.25433,108.24808,108.89783,112.18021,112.18021,36.749958,1,-42.491737,0,0,2.228467,2.2284667,0,8,255,0,0,0,1,38,55,0
True,10048375,10999.993,999.9994,8547.457,3.2938774,-0.21130118,6.24375,0.13176924,-0.19332053,26.010134,0.056648683,0.15363164,0.016819287,1.5955533,-0.0058792974,0.00060710893,0.3969913,0.37267116,0.5728333,0.552413,-0.0006262943,0.006440726,-0.0016431165,0.0036666053,77.31876,76.585976,73.04777,72.38556,0,0,0,0,0,0,0,0,0,0,0,0,0.37350002,0.40894863,0.008590414,0.011322493,0.37350053,0.40899935,0.008746144,0.01190138,-0.009249052,-0.011132891,0.0064770877,0.0049959756,36,6,231,2,6,2460.7588,346.3079,-3185.4072,26.011187,-224444.48,-250,107.46451,108.09359,111.12672,111.12672,7.0232763,1,-40.763775,0,0,2.3360965,2.3360965,0,8,255,0,0,0,2,121,54,0
True,10048484,10999.993,999.9994,6368.5117,2.2823198,0.04858153,11.223355,-0.22934103,-0.11827525,27.088028,-0.035650004,0.16398957,0.002648157,1.6218662,-0.003085261,0.0008553962,0.48783073,0.46224064,0.5398421,0.51543826,0.26857975,0.29514185,0.47233972,0.57637894,83.13957,82.51202,80.913124,81.02711,0,0,0,0,0,0,0,0,0,0,0,0,-0.011751442,-0.010632013,0.10983604,0.11458068,0.2688367,0.2953333,0.48494202,0.5876576,-0.0022126324,-0.004194841,0.004084196,0.002314154,36,6,231,2,6,2464.1052,346.30194,-3185.5352,27.089256,653912.2,981.6391,106.576225,107.18023,109.9916,109.9916,24.366505,1,-38.68185,0,0,2.463183,2.4631827,0,8,255,0,0,0,2,0,51,0
True,10048609,10999.993,999.9994,6733.667,2.4763963,0.14923936,14.225014,-0.24324477,-0.20922863,28.531065,-0.031489454,0.079761565,0.00892251,1.6338826,-0.0072012637,0.0015627628,0.44029993,0.4180774,0.58825946,0.5574986,0.35073778,0.41336417,0.49393865,0.57678396,88.046074,88.1583,85.29906,85.63021,0,0,0,0,0,0,0,0,0,0,0,0,0.032810748,0.03658815,0.08211679,0.08699996,0.3522691,0.41498026,0.50071806,0.5833084,-0.0058943667,-0.007615721,0.007595964,0.005364839,36,6,231,2,6,2466.9656,346.2999,-3185.675,28.53287,735592.94,1044.1595,105.91851,106.50279,109.1243,109.1243,34.187424,1,-36.9023,0,0,2.5661259,2.5661256,0,8,255,0,0,0,2,0,48,0
True,10048718,10999.993,999.9994,7128.3354,2.6881852,0.072373666,15.515393,-0.15625405,-0.28174925,30.254843,-0.013473907,0.032195006,-0.010072293,1.6402403,-0.010422888,0.0018911224,0.37087828,0.3491432,0.60036147,0.57248384,0.32517794,0.58506083,0.50267124,0.50386524,92.97111,95.268745,90.298225,90.16972,0,0,0,0,0,0,0,0,0,0,0,0,0.029521978,0.035246063,0.045940347,0.048778974,0.3265153,0.58612156,0.50476617,0.5062209,-0.011271768,-0.012955368,0.008473739,0.006451737,36,6,231,2,6,2470.4888,346.30246,-3185.887,30.25656,746712.5,1001.3509,105.22154,105.78819,108.163826,108.163826,36.341568,1,-34.710308,0,0,2.686095,2.6860948,0,8,255,0,0,0,2,0,44,0
True,10048828,10999.993,999.9994,7463.4575,2.1428845,-0.20377646,14.342864,-0.0875833,-0.30221063,31.588943,-0.009671772,0.0148983495,-0.029046223,1.642102,-0.011285096,0.00082598114,0.37590566,0.35187998,0.5621558,0.5508174,0.42219955,0.37421268,0.5266427,0.58801794,97.978195,97.398026,94.46684,94.96658,0,0,0,0,0,0,0,0,0,0,0,0,0.018475842,0.02300454,0.025167886,0.02925496,0.4226036,0.37491912,0.52724373,0.58874524,-0.010882346,-0.012743377,0.0057026334,0.004880242,36,6,231,2,6,2473.446,346.30826,-3186.0847,31.59051,754476,966.5129,104.69975,105.26915,107.44989,107.44989,36.65576,1,-32.870388,0,0,2.7818384,2.7818382,0,9,255,0,0,0,2,0,40,0
True,10048921,10999.993,999.9994,7741.976,0.7573337,-0.5815118,13.232419,-0.049285173,-0.2809362,32.89417,0.029469876,0.006824324,-0.005945447,1.6431377,-0.009146199,-0.00093011593,0.33849537,0.32542935,0.5459823,0.54577005,0.34873158,0.34740758,0.52560174,0.5380563,101.17776,101.12582,98.26139,98.34337,0,0,0,0,0,0,0,0,0,0,0,0,0.008750644,0.012699233,0.012127412,0.014710814,0.34884134,0.34763962,0.52574164,0.53825736,-0.013780149,-0.014792242,0.0045295507,0.004514154,36,6,231,2,6,2476.5745,346.31293,-3186.3037,32.895405,769884.8,950.173,104.21492,104.759796,106.7664,106.7664,36.7287,1,-30.923986,0,0,2.8790135,2.8790133,0,9,255,0,0,0,2,0,35,0
True,10049031,10999.993,999.9994,8067.337,1.0494548,-0.22460324,13.302847,-0.02462864,-0.28722918,34.513626,-9.8905584E-05,0.0030731652,0.0056806845,1.6437099,-0.007998583,-0.0009327771,0.37692013,0.38612843,0.5479106,0.5400422,0.32712397,0.31420666,0.4511665,0.45702943,105.95431,105.803604,102.2792,102.320496,0,0,0,0,0,0,0,0,0,0,0,0,0.0025110943,0.0065030167,0.00441885,0.006703214,0.3271336,0.31427395,0.45118815,0.45707858,-0.0108037675,-0.010090493,0.0046694092,0.0040987097,36,6,231,2,6,2480.6543,346.31232,-3186.5964,34.514824,811949.1,961.6767,103.61219,104.12576,105.945526,105.945526,36.746674,1,-28.385242,0,0,3.0003197,3.0003197,0,9,255,0,0,0,2,0,29,0
True,10049140,10999.993,999.9994,8356.596,0.44410676,-0.6009191,12.986843,-0.014570236,-0.27884933,35.777508,0.028948197,0.001106395,0.005591382,1.6438996,-0.006328288,-0.0002956784,0.36041632,0.3683332,0.55771583,0.5603676,0.31851465,0.3259761,0.4519132,0.45522773,109.6761,109.74822,105.94366,105.97139,0,0,0,0,0,0,0,0,0,0,0,0,0.0005363981,0.00482096,0.0016982872,0.0041236267,0.3185151,0.32601175,0.4519164,0.4552464,-0.012082151,-0.011468909,0.005380597,0.0055729337,36,6,231,2,6,2484.0896,346.30984,-3186.8457,35.7786,807806.7,923.7151,103.16342,103.65228,105.29449,105.29449,36.749256,1,-26.247946,0,0,3.098245,3.0982447,0,9,255,0,0,0,2,0,24,0
True,10049234,10999.993,999.9994,8633.252,-0.08138788,-0.2073878,12.818985,-0.008166552,-0.29194182,37.095837,-0.020778555,0.00054864975,0.0011098417,1.6439834,-0.0056170113,8.6033186E-05,0.40666065,0.40859327,0.53982145,0.54382473,0.252841,0.2636183,0.42310306,0.421264,113.05011,113.16956,109.54241,109.52005,0,0,0,0,0,0,0,0,0,0,0,0,0.00041656356,0.002949293,0.0004814583,0.0028500834,0.25284132,0.26363477,0.42310333,0.42127362,-0.008500066,-0.008350367,0.0040826984,0.0043730587,36,6,231,2,6,2487.8508,346.30133,-3187.12,37.096985,841848.06,931.6759,102.69972,103.166336,104.65099,104.65099,36.749844,1,-23.907862,0,0,3.2017171,3.2017171,0,9,255,0,0,0,2,0,19,0
True,10049343,10999.993,999.9994,8897.233,0.11412251,0.71956706,12.285845,-0.00082707405,-0.30410033,38.425247,-0.018237716,-0.00043753308,-0.012270912,1.6439886,-0.008356283,-0.0004901011,0.4496708,0.42708272,0.5926947,0.59426993,0.25455874,0.26922387,0.3631928,0.36098468,117.101585,117.26645,112.716805,112.69823,0,0,0,0,0,0,0,0,0,0,0,0,-0.0005372964,0.0031708893,-0.0004527193,0.0021613587,0.2545593,0.26924253,0.3631931,0.36099115,-0.0051685013,-0.0069181733,0.0079176575,0.008031912,36,6,231,2,6,2491.7231,346.29782,-3187.4038,38.42645,859874.1,923.4684,102.24457,102.69801,104.01265,104.01265,36.749958,1,-21.498667,0,0,3.3044786,3.304479,0,9,255,0,0,0,2,0,13,0
True,10049468,10999.993,999.9994,9238.534,0.26698393,0.3648303,12.257759,0.004152298,-0.30662772,39.913307,0.0012645371,-0.000115166855,-0.00011083095,1.643943,-0.009535298,-0.0016448637,0.4432505,0.4403321,0.60721,0.5949841,0.29381537,0.26386252,0.35751662,0.36109683,122.08046,121.72121,116.9497,116.98785,0,0,0,0,0,0,0,0,0,0,0,0,-0.0032988105,0.0013615439,-0.0021010705,0.0005775021,0.29383388,0.26386604,0.3575228,0.3610973,-0.005665818,-0.0058918744,0.008970469,0.008083712,36,6,231,2,6,2496.483,346.30444,-3187.753,39.914482,852065.44,881.27277,101.734344,102.16915,103.268936,103.268936,36.749958,1,-18.53731,0,0,3.4262507,3.426251,0,9,255,0,0,0,2,0,5,0
True,10049578,10999.993,999.9994,9456.329,0.15095842,-1.1194596,11.659772,-0.0009548664,-0.28295186,41.062428,0.055124752,0.00085572386,0.020722322,1.6439577,-0.005685018,-0.0004633974,0.3310507,0.36452273,0.5747505,0.5725378,0.25307828,0.221265,0.3233247,0.3258945,124.92027,124.55741,119.727196,119.74542,0,0,0,0,0,0,0,0,0,0,0,0,-0.0037173699,0.00044535848,-0.002206615,0.00030651863,0.25310558,0.22126545,0.32333225,0.32589465,-0.014356812,-0.01176407,0.0066161416,0.0064556524,36,6,231,2,6,2500.6433,346.30753,-3188.0579,41.063396,-247699.22,-248.80173,101.38257,101.778336,102.670876,102.670876,34.117474,1,-15.949247,0,0,3.5292122,3.5292125,0,9,255,0,0,0,2,0,255,0
True,10049671,10999.993,999.9994,6791.2026,-0.7019162,-0.8430317,5.016521,-0.007662773,-0.1827121,41.313377,0.030375414,0.0009145751,0.006131826,1.6440588,-0.00031408612,0.0013751108,0.4247141,0.43252844,0.46301746,0.48237607,0.32125705,0.34214956,0.74819785,0.7421625,126.99237,127.28575,127.39005,127.31682,0,0,0,0,0,0,0,0,0,0,0,0,0.00026250034,0.0017290101,0.00069477566,0.0016417732,0.32125717,0.3421539,0.74819815,0.7421643,-0.0071016476,-0.0064963456,-0.001487989,-8.388609E-05,36,6,231,2,6,2504.8613,346.29398,-3188.3667,41.313786,429711.8,593.21423,100.98857,101.35728,102.12041,102.12041,8.094064,1,-13.324756,0,0,3.6319344,3.6319344,0,9,255,0,0,0,3,0,249,0
True,10049796,10999.993,999.9994,6703.2783,0.27864677,-0.33903947,9.299815,-0.0007224083,-0.21425302,42.639885,-0.017036095,7.61793E-05,-0.009648765,1.6441005,-0.0005548467,0.0003694592,0.48750585,0.47329077,0.5321049,0.5259649,0.22520576,0.20874493,0.33634847,0.34065914,129.535,129.32043,124.57614,124.622955,0,0,0,0,0,0,0,0,0,0,0,0,-0.00047439526,0.0019232582,-0.000102080136,0.0015753177,0.22520626,0.2087538,0.33634847,0.34066278,-0.0022377986,-0.0033388976,0.003523007,0.0030776672,36,6,231,2,6,2510.0527,346.27206,-3188.7473,42.640427,812277,1157.7922,100.52472,100.88472,101.49434,101.49434,32.398193,1,-10.094592,0,0,3.7558262,3.755826,0,9,255,0,0,0,3,0,241,0
True,10049906,10999.993,999.9994,6878.2427,0.16513789,0.057450596,10.850967,-0.0014028549,-0.28460735,43.784058,0.000523948,0.00052885717,0.012881682,1.6441324,-0.002616817,0.00068770355,0.4196845,0.44382223,0.6091463,0.60562336,0.2683339,0.25990057,0.31628123,0.31446862,133.55309,133.45558,127.66836,127.64286,0,0,0,0,0,0,0,0,0,0,0,0,-0.0026068653,0.0011501993,-0.0015616621,0.00077355135,0.26834658,0.25990313,0.31628507,0.31446958,-0.0074912384,-0.0056215283,0.009110913,0.008855388,36,6,231,2,6,2514.4265,346.25385,-3189.0686,43.784985,859643.75,1194.1315,100.19615,100.528435,100.96294,100.96294,35.82863,1,-7.3755174,0,0,3.8572853,3.857285,0,9,255,0,0,0,3,0,234,0
True,10050015,10999.993,999.9994,7114.874,-0.08767748,-1.1217417,11.557222,-0.0015170574,-0.31125927,45.091,0.025713125,-0.00021632126,-0.0074318447,1.6441505,-0.00021802915,0.0012271472,0.34857637,0.34989762,0.5022146,0.51606405,0.27429447,0.28565025,0.3675744,0.36875886,137.611,137.7536,132.15428,132.17345,0,0,0,0,0,0,0,0,0,0,0,0,-0.0008458335,0.002723857,-0.00026818004,0.0015871193,0.27429578,0.28566325,0.36757448,0.36876228,-0.012999275,-0.012896931,0.0013550259,0.002359543,36,6,231,2,6,2519.6533,346.22717,-3189.4524,45.09207,866061.6,1163.0743,99.871765,100.187294,100.43672,100.43672,36.598442,1,-4.123962,0,0,3.975182,3.975182,0,9,255,0,0,0,3,0,226,0
True,10050125,10999.993,999.9994,7300.562,0.3164786,-1.3267114,10.925088,0.002483368,-0.32950848,46.35476,0.0153528815,-0.0001727281,-0.0021018488,1.6441267,0.0026236877,0.0005242415,0.36145076,0.35233808,0.49224338,0.48996753,0.24913211,0.2487904,0.35594285,0.35395196,141.1107,141.11385,135.67245,135.6456,0,0,0,0,0,0,0,0,0,0,0,0,-0.0018122472,0.0012097819,-0.0012289837,0.0005918731,0.2491387,0.24879335,0.35594496,0.35395247,-0.012002023,-0.012707894,0.0006318018,0.00046673045,36,6,231,2,6,2524.864,346.1835,-3189.8354,46.35593,874448.1,1144.2831,99.55212,99.86232,99.94682,99.94682,36.723648,1,-0.8823121,0,0,4.0894165,4.089417,0,9,255,0,0,0,3,0,218,0
True,10050234,10999.993,999.9994,7438.7876,-1.6638017,-0.414438,10.861655,-0.043497562,-0.33271354,47.392097,0.0058332123,-0.11486001,-0.022017766,1.6398555,0.0033842872,-0.0007192909,0.36589542,0.37376347,0.5050094,0.51010704,0.3075241,0.21267387,0.3340964,0.2925425,144.76537,143.98578,138.10484,138.01794,0,0,0,0,0,0,0,0,0,0,0,0,-0.35270476,-0.32748705,-0.011796669,-0.009779815,0.46794415,0.39048424,0.3343046,0.29270592,-0.01165774,-0.011048282,0.0015577376,0.0019274727,36,6,231,2,6,2529.3416,346.13776,-3190.1558,47.393284,874632.5,1123.421,99.30521,99.59581,99.535614,99.535614,36.74391,1,1.9031745,0,0,4.185146,4.185147,0,9,255,0,0,0,3,-108,211,0
True,10050343,10999.993,999.9994,7639.4453,-4.201497,-0.9463105,11.553679,0.52340865,-0.3197919,48.590385,0.029053181,-0.2009458,-0.014977276,1.6161883,0.005310589,-0.0031114442,0.35364988,0.37488756,0.4911548,0.53321195,0.2723904,0.2305251,0.3731439,0.3013242,147.70615,148.12723,141.93597,141.8336,0,0,0,0,0,0,0,0,0,0,0,0,-0.03475425,-0.030602438,-0.113668755,-0.10758578,0.2745986,0.23254749,0.39007303,0.31995463,-0.01260628,-0.010961208,0.00055284426,0.003603302,36,6,231,2,6,2534.9268,346.0766,-3190.4995,48.594254,874179.1,1093.412,99.049286,99.29081,99.0574,99.0574,36.74898,1,5.3779573,0,0,4.301718,4.3017187,0,9,255,0,0,0,3,0,204,0
True,10050468,10999.993,999.9994,7801.1055,-5.2085485,-0.8018821,9.838852,0.7084894,-0.32969838,49.757473,0.0026932652,-0.09642778,-0.01064248,1.5997797,0.007261038,-0.0053631393,0.3593727,0.41915706,0.47301406,0.5096818,0.26173946,0.17354003,0.3409557,0.2848156,151.39204,150.58955,145.06322,144.7427,0,0,0,0,0,0,0,0,0,0,0,0,-0.097868696,-0.090881936,-0.12251547,-0.11547425,0.2794384,0.19589709,0.36229935,0.30733407,-0.012162989,-0.0075320937,-0.00076292455,0.001896631,36,6,231,2,6,2540.5105,346.00262,-3190.7778,49.763607,873400.1,1069.5492,98.78165,98.99045,98.628876,98.628876,36.74982,1,8.851917,0,0,4.415384,4.415384,0,9,255,0,0,0,3,0,198,0
True,10050578,10999.993,999.9994,7923.432,-5.696152,-0.14057718,9.886355,0.49564385,-0.3286253,50.724045,0.0029271173,-0.034751195,0.007165237,1.5938388,0.0071916967,-0.005194006,0.36385623,0.44151545,0.48945904,0.56160975,0.21666637,0.18267186,0.29371348,0.258338,153.79977,153.4649,147.25192,146.9445,0,0,0,0,0,0,0,0,0,0,0,0,-0.07678628,-0.07261321,-0.079219505,-0.074603684,0.2298705,0.1965749,0.30420935,0.26889446,-0.011815698,-0.0058002137,0.00042985007,0.00566303,36,6,231,2,6,2545.2976,345.93622,-3190.9575,50.727528,872623.8,1052.1274,98.56577,98.72802,98.25989,98.25989,36.749958,1,11.826735,0,0,4.5107026,4.510702,0,9,255,0,0,0,3,0,194,0
True,10050671,10999.993,999.9994,8110.4795,-4.0029163,-1.1387007,9.445352,0.27053332,-0.34416905,51.64972,0.07140228,-0.013706719,0.014604049,1.5919136,0.008683594,-0.00446816,0.30279833,0.3606629,0.48003677,0.5385659,0.4974345,0.37105495,0.28803506,0.27464107,160.95079,159.06303,149.84698,149.75104,0,0,0,0,0,0,0,0,0,0,0,0,-0.22881018,-0.21635209,-0.04220259,-0.04015633,0.54753554,0.429523,0.2911104,0.27756125,-0.016545242,-0.012063051,-0.00025355816,0.00399163,36,6,231,2,6,2550.3315,345.8657,-3191.104,51.65157,871938.56,1027.5686,98.37877,98.50433,97.88632,97.88632,36.749958,1,14.958466,0,0,4.6090374,4.6090364,0,9,255,0,0,0,3,-85,191,0
True,10050796,10999.993,999.9994,8345.163,-5.038199,-3.5832472,8.806004,0.23398906,-0.34768194,52.67785,0.028816478,-0.17144354,-0.011356826,1.5836049,0.018533858,-0.0038769871,0.22655012,0.31833437,0.3243883,0.38691115,0.48027653,0.2755413,0.4370966,0.36545202,163.28854,160.9686,154.97916,154.69695,0,0,0,0,0,0,0,0,0,0,0,0,-0.65988517,-0.5973156,-0.060243636,-0.057075094,0.81615806,0.65780616,0.44122866,0.36988208,-0.022451427,-0.015341818,-0.011542931,-0.007008072,36,6,231,2,6,2556.508,345.73703,-3191.244,52.679516,868270.9,993.4655,98.29473,98.32354,97.595184,97.595184,36.749958,1,18.801542,0,0,4.727533,4.727532,0,9,255,0,0,0,3,-127,188,0
True,10050890,10999.993,999.9994,8427.064,-7.946506,-1.4749197,9.356729,0.7853164,-0.31238556,53.570763,0.040636927,-0.3418675,-0.017336925,1.5573357,0.021096889,-0.005952272,0.3178601,0.40714085,0.43072915,0.49834073,0.57958114,0.25556374,0.37592146,0.2570108,166.4995,163.23308,156.30772,155.76355,0,0,0,0,0,0,0,0,0,0,0,0,-1.0268672,-0.883074,-0.17156832,-0.15484938,1.1791396,0.91931087,0.41322225,0.3000548,-0.015378558,-0.0084628705,-0.0038299002,0.0010740496,36,6,231,2,6,2561.7595,345.59897,-3191.294,53.57743,867487.7,984.9586,98.18701,98.143196,97.291336,97.291336,36.749958,1,22.06343,0,0,4.826366,4.826365,0,9,255,0,0,0,3,-127,187,0
True,10051015,10999.993,999.9994,8580.679,-11.497534,-1.3156251,9.315956,1.8580478,-0.29432783,54.591213,0.03405447,-0.3114981,-0.0011443798,1.5115021,0.02377701,-0.006811666,0.3229308,0.4695009,0.4300296,0.5644771,0.3404629,0.17400254,0.40257734,0.2703931,166.82375,165.71994,159.62021,159.03828,0,0,0,0,0,0,0,0,0,0,0,0,-0.2232245,-0.20463479,-0.31003353,-0.28229627,0.4071169,0.26861176,0.50812334,0.39090103,-0.014985779,-0.0036324598,-0.0038806386,0.0058710016,36,6,231,2,6,2568.2612,345.4156,-3191.214,54.623615,865308.5,963.28534,98.080444,97.89166,96.91005,96.91005,36.749958,1,26.109756,0,0,4.9466076,4.9466066,0,9,255,0,0,0,3,0,189,0
True,10051125,10999.993,999.9994,8700.029,-12.585189,-1.0181894,8.323297,1.7740016,-0.32029998,55.63449,0.0056734513,-0.13820699,-0.011255532,1.4853835,0.02577596,-0.0084761735,0.3130528,0.46027818,0.46446678,0.6055287,0.31048796,0.1538078,0.32251158,0.23720047,169.99348,168.11562,161.70798,161.11884,0,0,0,0,0,0,0,0,0,0,0,0,-0.24947718,-0.22863747,-0.25938207,-0.23468922,0.3982984,0.2755575,0.4138753,0.33368114,-0.01575093,-0.0043468513,-0.0013828687,0.008848522,36,6,231,2,6,2574.7905,345.21317,-3190.9556,55.66369,862980.9,947.29474,97.89556,97.627365,96.54251,96.54251,36.749958,1,30.173891,0,0,5.0651536,5.0651526,0,9,255,0,0,0,3,0,194,0
True,10051234,10999.993,999.9994,8863.768,-11.652421,-2.4057164,9.877295,1.2103319,-0.31714842,56.4384,0.05663226,-0.021371989,0.01614724,1.4788712,0.02949932,-0.00837284,0.23253196,0.3715227,0.37598154,0.5210771,0.34900084,0.18732078,0.3600275,0.30468023,173.2776,170.71776,164.84172,164.19481,0,0,0,0,0,0,0,0,0,0,0,0,-0.18857075,-0.17730135,-0.1724583,-0.16197754,0.3966869,0.2579241,0.39920127,0.34506053,-0.021988073,-0.011221852,-0.00780081,0.0027231462,36,6,231,2,6,2580.0823,345.03748,-3190.6204,56.452263,859904.3,926.8809,97.81691,97.466576,96.31871,96.31871,36.749958,1,33.468098,0,0,5.159769,5.1597686,0,9,255,0,0,0,3,0,200,0
True,10051328,10999.993,999.9994,8908.827,-6.6988144,-0.18063205,8.885899,0.52413416,-0.37079442,57.477448,-0.011688549,0.011864821,0.03394874,1.4781274,0.029640099,-0.0057236007,0.33686334,0.4732883,0.4072715,0.5336685,0.17870018,0.13810645,0.20907418,0.19164218,173.72922,173.0018,165.34729,165.08475,0,0,0,0,0,0,0,0,0,0,0,0,-0.08566033,-0.08106479,-0.06634758,-0.06277512,0.19817024,0.16014022,0.21934907,0.2016617,-0.013906564,-0.0033390895,-0.005531311,0.003636416,36,6,231,2,6,2586.4788,344.80228,-3190.1233,57.481033,858947.56,921.03577,97.64137,97.21466,96.044174,96.044174,36.749958,1,37.44755,0,0,5.2724447,5.2724442,0,9,255,0,0,0,3,0,210,0
True,10051453,10999.993,999.9994,9111.464,0.8249733,-1.8493239,8.147885,0.11572504,-0.3340187,58.346954,0.032727852,0.19707027,0.045082938,1.4882622,0.033691045,-0.0010288919,0.27771303,0.32888234,0.42125008,0.4919421,0.18951799,0.25371835,0.25222656,0.31052545,176.83847,176.96275,169.03741,169.1398,0,0,0,0,0,0,0,0,0,0,0,0,0.42220113,0.45270717,0.008268627,0.010025693,0.462786,0.51895744,0.25236204,0.31068724,-0.018488348,-0.014524775,-0.0045174286,0.00060994923,36,6,231,2,6,2592.7585,344.56763,-3189.5984,58.348022,854437.7,895.7387,97.50653,97.05993,95.706055,95.706055,36.749958,1,41.35806,0,0,5.3813014,5.3813004,0,9,255,0,0,0,3,127,221,0
True,10051562,10999.993,999.9994,9179.575,8.849015,0.35248497,8.210193,-0.8655195,-0.35023186,59.19457,-0.023621045,0.42722875,0.06319353,1.5231701,0.03248932,0.007958822,0.50224966,0.4816312,0.5050062,0.4971402,0.10426177,0.26355878,0.15604556,0.24418324,178.57602,179.16,170.33496,170.0079,0,0,0,0,0,0,0,0,0,0,0,0,0.26067737,0.2949667,0.14270037,0.15621676,0.28075472,0.3955611,0.21145593,0.28987777,-0.0010957438,-0.0026928503,0.0015575029,0.0009869747,36,6,231,2,6,2599.0444,344.3176,-3189.1443,59.20193,852793.94,887.3476,97.30163,96.874695,95.399796,95.399796,36.749958,1,45.272583,0,0,5.488589,5.488588,0,9,255,0,0,0,3,0,230,0
True,10051671,10999.993,999.9994,9344.381,9.902535,-0.74812865,7.8388166,-1.6550727,-0.28724742,59.858734,0.057978157,0.23131986,0.013594635,1.5525075,0.034386903,0.0112402,0.4095303,0.32793233,0.57274413,0.5007253,0.1596631,0.2730122,0.22818987,0.32383463,181.08492,181.89441,173.1421,173.64236,0,0,0,0,0,0,0,0,0,0,0,0,0.17680767,0.18981531,0.22532669,0.2464545,0.23822942,0.33251393,0.32069102,0.40695047,-0.008277783,-0.014598363,0.006470617,0.0012470074,36,6,231,2,6,2604.472,344.10947,-3188.8516,59.882305,848665.6,867.84973,97.1255,96.75684,95.03191,95.03191,36.749958,1,48.651466,0,0,5.579914,5.5799127,0,9,255,0,0,0,3,0,236,0
True,10051765,10999.993,999.9994,9422.413,11.226009,-1.2151381,8.388089,-1.649999,-0.32891303,60.619366,-0.014980033,0.19190757,0.03211102,1.5711887,0.0361065,0.01422498,0.4816119,0.38502204,0.4859397,0.40562883,0.12822178,0.23400132,0.19133918,0.26821014,182.66722,183.59402,174.60913,175.00076,0,0,0,0,0,0,0,0,0,0,0,0,0.3993687,0.43777597,0.20494324,0.22620223,0.41944748,0.4963914,0.28037906,0.350862,-0.0026943423,-0.010176193,0.00017458946,-0.005650457,36,6,231,2,6,2610.3623,343.86554,-3188.6362,60.64271,846444.5,857.9046,96.9308,96.6011,94.7856,94.7856,36.749958,1,52.319466,0,0,5.677803,5.6778016,0,9,255,0,0,0,3,127,240,0
True,10051875,10999.993,999.9994,9233.548,14.878559,0.18864036,5.923642,-1.649603,-0.2975631,61.213135,0.019477822,0.2795941,0.035258103,1.595049,0.03500773,0.018739006,0.5865481,0.45728597,0.6466953,0.50989544,0.020340886,0.14478463,0.0003220275,0.021252362,181.9104,182.73177,171.86906,170.9663,0,0,0,0,0,0,0,0,0,0,0,0,0.6192504,0.7038494,0.21345286,0.23809958,0.6195844,0.7185865,0.2134531,0.23904617,0.005434014,-0.0045786295,0.011834387,0.0019121282,36,6,231,2,6,2616.45,343.61594,-3188.5483,61.236084,-242320.22,-250,96.69965,96.42743,94.38368,94.38368,22.371822,1,56.10985,0,0,5.777696,5.777694,0,9,255,0,0,0,3,0,241,0
True,10052000,10999.993,999.9994,6919.1133,12.631934,-0.83512866,3.584797,-1.6647877,-0.15379919,61.32106,-0.0011283765,0.14555347,0.018924985,1.6209378,0.038677692,0.022469344,0.49079248,0.378086,0.5416325,0.42283502,0.07908645,0.13537477,0.1570397,0.21905221,183.75052,184.0193,175.47864,175.90924,0,0,0,0,0,0,0,0,0,0,0,0,0.18402073,0.19873288,0.20540872,0.22491536,0.20029552,0.24046016,0.25856182,0.31395984,-0.0019832142,-0.010713458,0.004214052,-0.00440247,36,6,231,2,6,2623.8218,343.3131,-3188.6282,61.343845,569128.25,785.2758,96.46158,96.2473,93.96193,93.96193,12.997891,1,60.69942,0,0,5.8982635,5.898262,0,9,255,0,0,0,4,0,239,0
True,10052093,10999.993,999.9994,7031.247,10.901038,-0.40066773,6.037254,-0.9868834,-0.24063735,62.08232,0.029967247,0.0057362923,-0.026288554,1.6301427,0.036649726,0.022880001,0.5275028,0.39602175,0.61061275,0.47316274,0.14578946,0.22032765,0.18801199,0.21251194,186.9694,188.29184,178.17245,178.48006,0,0,0,0,0,0,0,0,0,0,0,0,0.03743201,0.04266446,0.11375454,0.12067578,0.15051818,0.22442043,0.21974668,0.24438488,0.00086036697,-0.009324157,0.009217273,-0.00075213984,36,6,231,2,6,2631.1648,343.01196,-3188.8833,62.090633,825073.8,1121.1768,96.16497,96.02017,93.566025,93.566025,32.917,1,65.269936,0,0,6.017434,6.017432,0,9,255,0,0,0,4,-2,233,0
True,10052203,10999.993,999.9994,7104.923,1.0447887,-0.7574576,7.6938515,-0.5125959,-0.3427681,62.81765,-0.044044532,-0.1890273,-0.039823107,1.6212833,0.037370894,0.01757891,0.46958333,0.4063175,0.48500586,0.41441992,0.14768454,0.10677008,0.20866098,0.18114935,188.7595,189.01872,180.243,180.54414,0,0,0,0,0,0,0,0,0,0,0,0,0.0153792845,0.01607603,0.038190722,0.038746364,0.14848316,0.10797355,0.21212715,0.18524678,-0.0036260746,-0.008526646,0.00010685623,-0.005012829,36,6,231,2,6,2637.0886,342.7597,-3189.142,62.82067,862654.7,1159.4102,96.01323,95.89936,93.31238,93.31238,35.855606,1,68.95774,0,0,6.1124597,6.1124578,0,9,255,0,0,0,4,0,227,0
True,10052312,10999.993,999.9994,7224.8003,-0.67548615,-1.0636798,7.783207,0.46560526,-0.3379569,63.6975,0.007819191,-0.11324604,-0.00017907831,1.6040854,0.03854394,0.01685266,0.37474477,0.39543483,0.5166042,0.5024562,0.14560054,0.12984249,0.24395089,0.21452567,191.54553,191.82835,183.55908,183.53403,0,0,0,0,0,0,0,0,0,0,0,0,-0.03733001,-0.035610907,-0.06853781,-0.06511732,0.15030983,0.13463733,0.2533959,0.22419083,-0.01097227,-0.009369619,0.0023987219,0.0013725497,36,6,231,2,6,2644.329,342.45056,-3189.4507,63.700092,872686.94,1153.526,95.81562,95.68428,92.9295,92.9295,36.59533,1,73.46527,0,0,6.227101,6.2270985,0,9,255,0,0,0,4,0,220,0
True,10052437,10999.993,999.9994,7311.54,-4.0421767,-0.056640856,8.329003,0.47748935,-0.31871378,64.5943,0.05427879,-0.03249394,0.019844772,1.5955987,0.038122404,0.01661868,0.3665348,0.47000593,0.5402046,0.58924747,0.20967679,0.14790897,0.20537923,0.18853647,195.5922,194.57928,185.50574,185.37819,0,0,0,0,0,0,0,0,0,0,0,0,-0.06028101,-0.055112746,-0.05947256,-0.056208607,0.21817002,0.15784322,0.21381678,0.19673689,-0.011608212,-0.0035933424,0.0041104853,0.007667627,36,6,231,2,6,2651.815,342.1277,-3189.7227,64.59685,874757.5,1142.8308,95.6073,95.43184,92.585754,92.585754,36.724148,1,78.12497,0,0,6.3439393,6.343937,0,9,255,0,0,0,4,0,213,0
True,10052546,10999.993,999.9994,7376.9224,-3.162929,0.9461429,7.5181875,0.2570101,-0.34062803,65.46459,-0.025367836,-0.0072448933,0.018220339,1.5933341,0.03727359,0.018943654,0.4685054,0.54780436,0.55124956,0.6079724,0.12072361,0.10633717,0.15767133,0.15311417,196.66791,196.43195,187.19801,187.15999,0,0,0,0,0,0,0,0,0,0,0,0,-0.0337396,-0.03081646,-0.0291931,-0.027416859,0.12534972,0.11071245,0.16035113,0.15554945,-0.0037095677,0.0024329238,0.0049115904,0.009025767,36,6,231,2,6,2659.1133,341.8088,-3189.9365,65.46599,874714.25,1132.555,95.36241,95.15964,92.25186,92.25186,36.74537,1,82.66896,0,0,6.4563117,6.4563093,0,9,255,0,0,0,4,0,208,0
True,10052640,10999.993,999.9994,7496.052,-1.9215875,-0.92932343,7.0647063,0.1061151,-0.34265345,66.10935,0.030256657,0.004728464,0.01875008,1.5933847,0.038736854,0.020938072,0.3936533,0.4387739,0.5021886,0.5636185,0.14750847,0.14893216,0.22787233,0.2259981,199.08301,199.0762,190.3983,190.36707,0,0,0,0,0,0,0,0,0,0,0,0,-0.01676763,-0.014305998,-0.013203082,-0.011286143,0.14845842,0.14961769,0.2282545,0.22627974,-0.009507616,-0.006012572,0.0013531409,0.005808722,36,6,231,2,6,2665.061,341.55582,-3190.0862,66.11033,874573.06,1114.507,95.2191,94.99216,91.96499,91.96499,36.74884,1,86.37191,0,0,6.5468197,6.546818,0,9,255,0,0,0,4,0,204,0
True,10052750,10999.993,999.9994,7546.805,-0.95439434,0.54071355,7.2931805,-0.0047940016,-0.3579353,66.942154,-0.011646226,0.00469003,0.03897897,1.5939174,0.037713766,0.023653347,0.4153737,0.5024688,0.46970958,0.5177441,0.116914734,0.112901,0.16271478,0.16350526,201.03348,200.93658,191.51585,191.51439,0,0,0,0,0,0,0,0,0,0,0,0,-0.0031274578,-0.0009888579,-0.00094134,0.00017982196,0.116956554,0.11290534,0.1627175,0.16350535,-0.007825153,-0.0010787658,-0.0010026023,0.002481401,36,6,231,2,6,2672.3997,341.2328,-3190.2598,66.94311,874481.1,1106.8536,95.01559,94.74841,91.65789,91.65789,36.749783,1,90.940674,0,0,6.6572413,6.65724,0,9,255,0,0,0,4,0,200,0
True,10052875,10999.993,999.9994,7639.0312,1.1991335,0.5696822,8.202519,-0.047862887,-0.33094078,67.75627,-0.011540251,0.0024134403,0.02243501,1.5943332,0.037382986,0.027367152,0.5242007,0.56704587,0.5513568,0.6076279,0.117150046,0.117672816,0.1623766,0.16518037,203.49275,203.47737,193.82674,193.85976,0,0,0,0,0,0,0,0,0,0,0,0,0.0029474655,0.0058886167,0.0035795474,0.0053141224,0.11718712,0.11782007,0.16241604,0.16526583,0.0006045848,0.0039233714,0.004919369,0.009000782,36,6,231,2,6,2680.0327,340.90674,-3190.4355,67.75709,874181.4,1093.0018,94.731636,94.43691,91.259445,91.259445,36.749958,1,95.69289,0,0,6.7706943,6.770693,0,9,255,0,0,0,4,0,195,0
True,10052984,10999.993,999.9994,7749.462,-0.55205035,-1.2970479,6.5706806,-0.055836916,-0.33908224,68.57112,-0.03347269,-0.00023611612,0.05126031,1.5944469,0.039761264,0.03233078,0.42994505,0.5140362,0.44261813,0.5214683,0.100743026,0.10423573,0.19577622,0.19651644,205.62646,205.69652,196.85706,196.86366,0,0,0,0,0,0,0,0,0,0,0,0,0.004385188,0.0048716636,0.003368452,0.004756897,0.10083842,0.10434951,0.1958052,0.196574,-0.0066964533,-0.00018275715,-0.0029675774,0.002751518,36,6,231,2,6,2687.9707,340.5622,-3190.618,68.57196,873632.7,1076.4796,94.559235,94.19852,90.92084,90.92084,36.749958,1,100.63555,0,0,6.8872848,6.8872833,0,9,255,0,0,0,4,0,191,0
True,10053093,10999.993,999.9994,7817.4097,0.009335637,0.66009706,6.5170927,-0.050471306,-0.30452418,69.21447,0.065007284,-0.0028480543,0.0400198,1.5942736,0.03832193,0.036101103,0.45021087,0.52603835,0.6198336,0.6437322,0.17356963,0.16200528,0.17570001,0.17697711,208.85834,208.65588,198.20891,198.23802,0,0,0,0,0,0,0,0,0,0,0,0,0.0031735129,0.007277547,0.0024780775,0.0046404474,0.17359865,0.16216865,0.17571749,0.17703794,-0.0051266663,0.0007469319,0.009886075,0.011619467,36,6,231,2,6,2694.4055,340.28513,-3190.7656,69.21516,873326.2,1067.4885,94.35136,93.952415,90.56257,90.56257,36.749958,1,104.64179,0,0,6.980767,6.980765,0,9,255,0,0,0,4,0,187,0
True,10053203,10999.993,999.9994,7879.427,0.009454444,0.07995891,6.956824,-0.041544676,-0.33742177,69.98989,-0.027595356,-0.002815342,0.010831186,1.5939733,0.039043352,0.038947903,0.47129276,0.52024794,0.5026735,0.5366943,0.09961866,0.09521914,0.15082258,0.15521517,209.79762,209.7201,199.93907,200.02054,0,0,0,0,0,0,0,0,0,0,0,0,0.004347957,0.005552851,0.00290131,0.004158424,0.0997135,0.09538092,0.15085049,0.15527087,-0.003493663,0.00029840507,0.0013883114,0.0038558803,36,6,231,2,6,2702.0884,339.9444,-3190.9414,69.99072,872922,1058.1709,94.130356,93.714005,90.258575,90.258575,36.749958,1,109.4253,0,0,7.091279,7.0912776,0,9,255,0,0,0,4,0,183,0
True,10053312,10999.993,999.9994,7986.9346,-2.4720542,0.45758834,6.330783,0.014962196,-0.29986686,70.71859,0.051186316,-0.114180736,0.029124657,1.5890807,0.03819202,0.040934306,0.4620834,0.53075564,0.5492819,0.60007685,0.20793015,0.14849597,0.18549918,0.16334578,213.80338,213.12325,202.45929,202.48415,0,0,0,0,0,0,0,0,0,0,0,0,-0.34698346,-0.32302406,-0.015153298,-0.013090193,0.4045151,0.3555216,0.18611708,0.16386946,-0.0042070188,0.0011123307,0.0047688745,0.0084530935,36,6,231,2,6,2709.9788,339.60977,-3191.1094,70.71922,872150.4,1043.4058,93.882126,93.44127,89.87265,89.87265,36.749958,1,114.33771,0,0,7.203525,7.203523,0,9,255,0,0,0,4,-127,178,0
True,10053421,10999.993,999.9994,8039.244,-4.3813267,-0.4620859,7.0985274,0.6165372,-0.3539087,71.36316,-0.036831025,-0.13279797,0.03349838,1.5743412,0.04002015,0.043434247,0.4333561,0.5677585,0.46025264,0.5326732,0.107012264,0.09004237,0.17267543,0.14813142,213.75424,214.07777,204.02747,204.09912,0,0,0,0,0,0,0,0,0,0,0,0,-0.047528498,-0.044879857,-0.076429375,-0.07303184,0.1170922,0.100607306,0.18883394,0.16515619,-0.0064322334,0.003978571,-0.0016885251,0.0035642236,36,6,231,2,6,2716.7563,339.30948,-3191.2136,71.36671,871770.3,1035.6299,93.747604,93.22365,89.6133,89.6133,36.749958,1,118.55784,0,0,7.299035,7.2990336,0,9,255,0,0,0,4,0,175,0
True,10053515,10999.993,999.9994,8126.839,-5.4649606,-0.37887907,6.164727,0.64786565,-0.3180808,72.01996,0.014358946,-0.049644813,0.0037699076,1.565752,0.04050483,0.044203926,0.42213124,0.5000743,0.5490857,0.6234687,0.1345748,0.10653976,0.18730533,0.1692347,216.46593,216.13446,206.32794,206.21556,0,0,0,0,0,0,0,0,0,0,0,0,-0.06791743,-0.063969925,-0.07173544,-0.06781066,0.15074201,0.12426935,0.20057233,0.18231475,-0.0073017143,-0.0012642406,0.00475464,0.010149732,36,6,231,2,6,2724.0408,338.9889,-3191.2717,72.023575,871020.44,1023.62555,93.5422,93.00001,89.26363,89.26363,36.749958,1,123.093704,0,0,7.4007235,7.4007225,0,9,255,0,0,0,4,0,173,0
True,10053640,10999.993,999.9994,8188.6343,-4.4274406,1.6451907,6.602575,0.3220904,-0.3236254,72.827705,0.013070553,-0.004514053,0.03182401,1.5623872,0.038035534,0.04686879,0.46892354,0.5830258,0.57301754,0.6603957,0.12742552,0.113148905,0.13697647,0.13351144,218.83267,218.55394,207.64919,207.61086,0,0,0,0,0,0,0,0,0,0,0,0,-0.040078934,-0.03642006,-0.032757234,-0.030712686,0.13357988,0.11886587,0.14083888,0.13699844,-0.00367718,0.005161179,0.0064904504,0.012828093,36,6,231,2,6,2732.907,338.59998,-3191.2703,72.82913,870468.06,1015.3635,93.28696,92.68947,88.91831,88.91831,36.749958,1,128.61346,0,0,7.5232334,7.523232,0,9,255,0,0,0,4,0,173,0
True,10053765,10999.993,999.9994,8287.227,-1.8499033,0.2582942,6.2484565,0.03537506,-0.33631754,73.67878,-0.037302777,0.0057168193,0.09606467,1.5628167,0.03832477,0.053682517,0.41040936,0.6000366,0.4554306,0.5973232,0.093933806,0.08384422,0.14770027,0.14575957,220.7446,220.51918,210.35109,210.29895,0,0,0,0,0,0,0,0,0,0,0,0,-0.009016001,-0.008012141,-0.0064984383,-0.005150148,0.0943655,0.08422617,0.14784315,0.14585052,-0.008209689,0.0064788405,-0.002038274,0.008253366,36,6,231,2,6,2742.6804,338.17917,-3191.2136,73.67956,869087.5,1001.4962,93.05618,92.36078,88.558334,88.558334,36.749958,1,134.69917,0,0,7.6567717,7.6567698,0,9,255,0,0,0,4,0,173,0
True,10053890,10999.993,999.9994,8407.398,-0.65863085,-1.8285094,5.8376565,-0.093030155,-0.35737672,74.481926,-0.020835992,0.0052227313,0.04666309,1.5636685,0.039914098,0.06149692,0.38670567,0.5001931,0.43992618,0.55646104,0.111189485,0.09786023,0.18809237,0.18748577,223.53197,223.2247,213.53358,213.47055,0,0,0,0,0,0,0,0,0,0,0,0,0.0071059717,0.007846434,0.0073815407,0.008780797,0.11141632,0.0981743,0.18823715,0.18769129,-0.010045777,-0.001255041,-0.0031628273,0.0052895844,36,6,231,2,6,2752.4265,337.761,-3191.1367,74.482834,867508.9,985.17084,92.827896,92.06739,88.16043,88.16043,36.749958,1,140.77061,0,0,7.788447,7.7884445,0,9,255,0,0,0,4,0,173,0
True,10054000,10999.993,999.9994,8441.733,0.8919465,0.6476873,6.472795,-0.112336814,-0.35413548,75.072876,-0.00844995,-0.00022943295,0.05915749,1.5637802,0.038355183,0.067175806,0.43673447,0.5188453,0.5282071,0.5896675,0.09630734,0.098924816,0.14240769,0.14430453,224.93216,224.98932,214.17162,214.19989,0,0,0,0,0,0,0,0,0,0,0,0,0.009411373,0.010880692,0.007677738,0.009374473,0.0967661,0.0995214,0.1426145,0.1446087,-0.0061705466,0.00018975697,0.0032402948,0.0076980926,36,6,231,2,6,2759.418,337.4542,-3191.0798,75.07379,867080,981.00977,92.636734,91.84898,87.88121,87.88121,36.749958,1,145.12442,0,0,7.882014,7.882011,0,9,255,0,0,0,4,0,174,0
True,10054109,10999.993,999.9994,8515.427,-4.978505,1.410425,6.282078,-0.08029908,-0.31099814,75.731514,0.012008772,-0.14482844,0.021991568,1.5587054,0.03693173,0.07175408,0.48070943,0.5826896,0.5637841,0.63402414,0.14884666,0.10707197,0.14695331,0.12547474,227.66135,227.42921,215.81711,215.94527,0,0,0,0,0,0,0,0,0,0,0,0,-0.3659349,-0.33725068,-0.0070745144,-0.0053146873,0.39504898,0.35383955,0.1471235,0.12558724,-0.0027642455,0.0051351357,0.0058207363,0.010915332,36,6,231,2,6,2767.7983,337.10245,-3190.9993,75.73219,866022.9,971.6011,92.40415,91.56117,87.5582,87.5582,36.749958,1,150.34264,0,0,7.9932327,7.99323,0,9,255,0,0,0,4,-127,175,0
True,10054203,10999.993,999.9994,8714.872,-6.832762,-3.4734347,4.7494164,0.6531527,-0.33687153,76.1757,-0.061831445,-0.27909625,0.003724539,1.5403702,0.044386767,0.07147189,0.47200906,0.4971858,0.40371573,0.5287455,0.15895544,0.10467241,0.48717928,0.21151038,228.76761,228.99452,224.07616,220.04214,0,0,0,0,0,0,0,0,0,0,0,0,-0.53081566,-0.49170062,-0.10827303,-0.08360433,0.55410475,0.50271845,0.49906585,0.22743422,-0.0034381784,-0.001487989,-0.0057892166,0.0032793432,36,6,231,2,6,2774.9932,336.781,-3190.8838,76.17924,862692.56,945.5616,92.32606,91.47687,87.30893,87.30893,36.749958,1,154.82228,0,0,8.08806,8.088058,0,9,255,0,0,0,4,-11,177,0
True,10054343,10999.993,999.9994,8650.668,-11.646166,1.8882197,5.751416,1.3749361,-0.3110026,77.01006,-0.055527825,-0.15905483,0.03930587,1.5102013,0.042076577,0.06944881,0.42791632,0.6576425,0.4525233,0.6069236,0.10487099,0.064178765,0.14887503,0.113441415,230.53,230.41727,219.50842,219.49626,0,0,0,0,0,0,0,0,0,0,0,0,-0.23262858,-0.21187522,-0.13964525,-0.12755908,0.25517443,0.22138208,0.20411901,0.17070523,-0.006853603,0.010940988,-0.002249144,0.008949693,36,6,231,2,6,2785.2898,336.30594,-3190.5535,77.022964,863786.1,953.514,92.11746,91.17105,86.98406,86.98406,36.749958,1,161.23535,0,0,8.222618,8.222617,0,9,255,0,0,0,4,-26,183,0
True,10054453,10999.993,999.9994,8728.644,-14.687594,2.5170398,4.9564533,1.677773,-0.24092913,77.57042,-0.031720046,-0.35293317,-0.012577251,1.4821545,0.040320836,0.07043156,0.34183383,0.51870084,0.4463462,0.6065714,0.1835705,0.08646463,0.17799014,0.11268026,233.00816,232.5697,221.37508,221.45311,0,0,0,0,0,0,0,0,0,0,0,0,-0.6870428,-0.59196395,-0.18975441,-0.17074884,0.7111441,0.5982453,0.2601677,0.20457764,-0.01352155,0.00017856807,-0.0026971772,0.008924149,36,6,231,2,6,2794.1047,335.92636,-3190.0737,77.588936,862454.5,943.8432,92.00928,90.996185,86.68938,86.68938,36.749958,1,166.72208,0,0,8.336895,8.336894,0,9,255,0,0,0,4,-127,192,0
True,10054562,10999.993,999.9994,7826.4346,-11.382181,-2.672223,-54.95231,2.7068777,-0.2895728,66.82071,0.13043316,-0.23393598,0.06010028,1.4542612,0.044455655,0.07301784,0.2518131,0.3905186,0.44587705,0.6256317,1.1553967,0.5320006,0.49669138,0.3758158,220.28123,209.15538,197.30458,196.38696,0,0,0,0,0,0,0,0,0,0,0,0,-0.32225803,-0.3137923,-0.36922157,-0.34370774,1.1994965,0.61764896,0.61889166,0.5092863,-0.020494556,-0.009750428,-0.002731204,0.010306615,36,6,231,2,6,2800.3003,335.65833,-3189.6438,66.876144,699413.2,854.1564,92.36884,91.02403,86.706985,86.706985,36.749958,1,170.5816,0,0,8.431922,8.431921,0,9,255,0,0,0,4,0,201,0
True,10054671,10999.993,999.9994,7375.6885,-15.339119,-1.4193859,-13.705762,2.7676253,-0.47031826,64.72498,0.0143028535,-0.08682935,-0.04520659,1.4315516,0.048267953,0.07204119,0.32899514,0.48615515,0.42673412,0.5858012,0.3819645,0.14198722,0.27481842,0.19509403,199.33382,195.20409,187.3451,186.52788,0,0,0,0,0,0,0,0,0,0,0,0,-0.3638605,-0.32249936,-0.32450506,-0.28171796,0.5275333,0.35237226,0.42523956,0.34267578,-0.014516036,-0.0023424216,-0.0041196644,0.007417664,36,6,231,2,6,2808.132,335.26242,-3189.005,64.785835,874485.1,1131.8843,92.34893,90.895996,86.67262,86.67262,36.749958,1,175.43597,0,0,8.552909,8.552908,0,9,255,0,0,0,4,0,212,0
True,10054781,10999.993,999.9994,7351.155,-14.025924,2.2533667,1.7983314,1.154592,-0.35983366,65.199844,-0.05913035,0.017003,0.013431263,1.4290744,0.046313934,0.070937015,0.5027264,0.6708291,0.5093972,0.71033573,0.12995693,0.09307712,0.16780192,0.1455028,196.16542,195.36957,186.72011,186.38408,0,0,0,0,0,0,0,0,0,0,0,0,-0.15408552,-0.14292106,-0.12188851,-0.11127198,0.2015717,0.17055726,0.20739888,0.18317346,-0.0010588188,0.011962421,0.0018759891,0.016450305,36,6,231,2,6,2815.6829,334.86484,-3188.1636,65.21106,874795,1136.2733,92.16183,90.675125,86.44496,86.44496,36.749958,1,180.1522,0,0,8.6699915,8.669991,0,9,255,0,0,0,4,0,227,0
True,10054890,10999.993,999.9994,7455.6357,-6.6187778,-0.46057874,2.664352,0.12168789,-0.25269663,65.53559,-0.0055007497,0.04849809,0.062649064,1.4344412,0.0480117,0.07591269,0.3681513,0.5399171,0.48589903,0.6585796,0.15007856,0.13057221,0.25035346,0.26003185,197.79646,197.17958,189.51398,189.48955,0,0,0,0,0,0,0,0,0,0,0,0,-0.03202183,-0.03060238,-0.013825065,-0.012022131,0.15345675,0.13411044,0.2507349,0.2603096,-0.011482999,0.0018219817,0.00017163903,0.012696367,36,6,231,2,6,2822.8994,334.4984,-3187.2173,65.53618,874677.06,1120.2002,92.038284,90.479836,86.181915,86.181915,36.749958,1,184.66171,0,0,8.781527,8.781526,0,9,255,0,0,0,4,0,243,0
True,10055000,10999.993,999.9994,7483.1587,-2.2887006,-1.0688486,4.3436036,-0.2130146,-0.33341843,66.004135,0.06660508,0.026041176,0.07028939,1.437921,0.048283946,0.08257667,0.33020276,0.44254488,0.46141818,0.55740964,0.18603769,0.20714495,0.20167807,0.21101598,199.62086,199.91681,189.74283,189.78816,0,0,0,0,0,0,0,0,0,0,0,0,0.016057389,0.019989796,0.022254396,0.024048124,0.18672937,0.20810723,0.2029022,0.21238187,-0.014422494,-0.005720474,-0.0016039871,0.0053583905,36,6,231,2,6,2828.9136,334.17892,-3186.3975,66.00532,874631.44,1116.9833,91.93587,90.35063,86.046326,86.046326,36.749958,1,188.41652,0,0,8.873969,8.873969,0,9,255,0,0,0,4,0,254,0
True,10055109,10999.993,999.9994,7531.6963,-2.9161544,-0.74530923,6.6521173,-0.33998966,-0.3601191,66.76857,-0.03347626,-0.122338906,-0.000129916,1.4357774,0.05042479,0.08682396,0.43150395,0.48260152,0.39766604,0.46669123,0.13763297,0.10625439,0.17842925,0.15794563,200.57365,200.5444,191.08879,191.18787,0,0,0,0,0,0,0,0,0,0,0,0,-0.3062676,-0.28501984,0.021892365,0.02218744,0.33577174,0.30418137,0.17976727,0.15949641,-0.0065757055,-0.002617687,-0.0062280074,-0.0012215264,36,6,231,2,6,2836.1992,333.76642,-3185.3962,66.7704,874516.5,1108.961,91.81679,90.22256,85.91246,85.91246,36.749958,1,192.99171,0,0,8.984964,8.984964,0,9,255,0,0,0,4,-127,9,0
True,10055218,10999.993,999.9994,7638.0103,-8.96854,0.8315055,6.8529787,0.541976,-0.3131556,67.51779,-0.0065521076,-0.38673395,-0.026519608,1.4070256,0.051376637,0.08374773,0.40999693,0.49846637,0.48944408,0.5687444,0.2831229,0.15092841,0.21996221,0.14786969,204.47673,203.8477,193.49959,193.73944,0,0,0,0,0,0,0,0,0,0,0,0,-0.818286,-0.7131445,-0.09948484,-0.09136158,0.8658814,0.7289406,0.24141377,0.1738171,-0.00824164,-0.0013887957,0.000428766,0.0061805137,36,6,231,2,6,2843.5835,333.35248,-3184.3042,67.52069,874188.4,1093.2961,91.714424,90.08613,85.671196,85.671196,36.749958,1,197.63245,0,0,9.096277,9.096277,0,9,255,0,0,0,4,-127,18,0
True,10055328,10999.993,999.9994,7753.621,-14.72489,-0.035887837,6.8517914,2.40833,-0.3010733,68.130745,-0.008259982,-0.5426772,-0.035059925,1.3547088,0.05593282,0.07789453,0.37625736,0.5284237,0.44355115,0.56431776,0.4471767,0.19139414,0.2932524,0.16804253,208.5177,206.36778,196.51724,196.4762,0,0,0,0,0,0,0,0,0,0,0,0,-1.1748432,-0.9935742,-0.322537,-0.2852677,1.2570695,1.0118406,0.43592095,0.331083,-0.010855104,0.0009317044,-0.0028999038,0.005859446,36,6,231,2,6,2850.9163,332.9328,-3183.066,68.173965,873671.4,1076.2052,91.70923,90.00835,85.49394,85.49394,36.749958,1,202.31697,0,0,9.206039,9.206039,0,9,255,0,0,0,4,-127,25,0
True,10055437,10999.993,999.9994,7875.106,-18.8377,-0.63557994,6.663967,4.303501,-0.26140654,68.60805,0.022379477,-0.5165418,-0.033483993,1.2953181,0.061489224,0.07058604,0.3177448,0.501108,0.41028786,0.58447665,0.6413136,0.26181024,0.37421212,0.21992111,213.27217,208.74274,199.77911,199.1952,0,0,0,0,0,0,0,0,0,0,0,0,-1.4605821,-1.2328233,-0.5343053,-0.4666244,1.595175,1.2603165,0.6523165,0.51585233,-0.0153874885,-0.0011841767,-0.005312532,0.0073215924,36,6,231,2,6,2858.3394,332.48676,-3181.5845,68.74338,872959.7,1058.9292,91.95915,90.0758,85.348625,85.348625,36.749958,1,207.03471,0,0,9.316783,9.316783,0,9,255,0,0,0,4,-127,31,0
True,10055531,10999.993,999.9994,8002.8984,-18.68146,-2.2966437,6.4538403,5.6075697,-0.25027752,68.931076,0.04675491,-0.4487133,0.014072949,1.2513021,0.068098046,0.066832386,0.17746572,0.43698877,0.3239682,0.4973154,0.8457338,0.32967263,0.48715368,0.30751136,218.13055,210.6674,203.28833,202.17856,0,0,0,0,0,0,0,0,0,0,0,0,-1.651148,-1.397494,-0.69096625,-0.60198027,1.855143,1.4358529,0.84543073,0.6759759,-0.026253505,-0.006150849,-0.0115734,0.0009996817,36,6,231,2,6,2864.538,332.084,-3180.1592,69.15924,872002.44,1041.0388,92.48047,90.41275,85.31399,85.31399,36.749958,1,210.9952,0,0,9.409201,9.409202,0,9,255,0,0,0,4,-127,34,0
True,10055656,10999.993,999.9994,7982.0776,-23.087727,0.0579679,7.3078775,6.503647,-0.2787131,69.35872,-0.011251118,-0.42343986,-0.0059576305,1.2006485,0.07109902,0.06332499,0.215126,0.5741446,0.32628983,0.60032976,0.75569767,0.26224482,0.37842312,0.22533679,217.53485,210.40103,202.59267,201.74814,0,0,0,0,0,0,0,0,0,0,0,0,-1.7536315,-1.404176,-0.7337002,-0.61818165,1.9095293,1.4284546,0.82554233,0.6579705,-0.02333634,0.004473241,-0.01140501,0.008471437,36,6,231,2,6,2871.996,331.5571,-3178.2036,69.66353,872151.4,1043.4224,93.28772,91.028656,85.32392,85.32392,36.749958,1,215.92943,0,0,9.520527,9.520527,0,9,255,0,0,0,4,-127,35,0
True,10055765,10999.993,999.9994,8046.752,-23.954212,0.3958602,6.7308044,6.5352306,-0.15741599,69.78521,0.013412802,-0.3045029,0.006097559,1.161074,0.07450804,0.06157895,0.30467233,0.6240269,0.3759714,0.68026507,0.6962937,0.30832523,0.4044158,0.25986814,218.05334,212.25621,204.51118,203.41295,0,0,0,0,0,0,0,0,0,0,0,0,-1.7431566,-1.4784478,-0.7421571,-0.6342201,1.8770775,1.5102557,0.84519184,0.68539524,-0.01640008,0.008337121,-0.007801544,0.014269244,36,6,231,2,6,2879.4285,331.01514,-3175.9285,70.09072,871623.1,1034.5651,94.024994,91.64757,85.25486,85.25486,36.749958,1,220.77965,0,0,9.632038,9.632039,0,9,255,0,0,0,4,-127,34,0
True,10055890,10999.993,999.9994,8172.9126,-22.186056,-2.5711796,6.729309,6.1759872,-0.16119266,70.26685,0.02996844,-0.20763879,0.052170362,1.1340795,0.080005184,0.06402245,0.17480828,0.5029803,0.300792,0.59557575,0.8064199,0.34863728,0.48432505,0.3573419,222.16428,214.42912,207.78328,206.66646,0,0,0,0,0,0,0,0,0,0,0,0,-1.7278032,-1.465093,-0.7089315,-0.6332004,1.9067295,1.5060031,0.8585771,0.72707355,-0.02645935,-0.0010391455,-0.0132543985,0.008126624,36,6,231,2,6,2886.8115,330.4429,-3173.3677,70.537926,870392.2,1017.0949,94.84257,92.241356,85.24401,85.24401,36.749958,1,225.76324,0,0,9.743475,9.743477,0,9,255,0,0,0,4,-127,31,0
True,10056000,10999.993,999.9994,8073.9146,-26.007477,1.2945089,6.7472405,5.262085,-0.28221726,70.83452,-0.057473775,-0.23094699,0.0038677212,1.1105373,0.07826971,0.064224705,0.32138172,0.6790568,0.3137432,0.63951015,0.5543736,0.21497157,0.2775892,0.1751162,218.95029,213.53406,204.91882,204.17943,0,0,0,0,0,0,0,0,0,0,0,0,-1.5798433,-1.2970357,-0.55939937,-0.46922845,1.6742864,1.3147298,0.6244865,0.5008403,-0.015105774,0.01259974,-0.012315031,0.011313237,36,6,231,2,6,2893.5083,329.88504,-3170.7969,71.03026,871191.9,1030.2588,95.46544,92.745056,85.29451,85.29451,36.749958,1,230.23503,0,0,9.84511,9.845111,0,9,255,0,0,0,4,-127,26,0
True,10056109,10999.993,999.9994,8182.4683,-22.095573,-1.1884549,6.0446315,4.179167,-0.26079535,71.37537,0.022072697,-0.13163567,0.025123145,1.0942717,0.08110347,0.06512519,0.24853998,0.5753419,0.3729934,0.66630775,0.61811626,0.26312193,0.3337278,0.24781148,222.35106,216.08626,207.70628,206.85345,0,0,0,0,0,0,0,0,0,0,0,0,-1.4913143,-1.250428,-0.46118724,-0.41333702,1.6143377,1.2778119,0.56926966,0.48193157,-0.020748092,0.0045659803,-0.008017544,0.0132569,36,6,231,2,6,2900.4185,329.29535,-3167.8464,71.498085,870285.06,1015.64197,95.872604,92.97991,85.14657,85.14657,36.749958,1,234.92488,0,0,9.950875,9.950876,0,9,255,0,0,0,4,-127,21,0
True,10056218,10999.993,999.9994,8159.2144,-22.922102,1.3546593,5.739101,3.0024815,-0.27191663,72.05611,-0.010567294,-0.21031046,0.04580094,1.0734514,0.08066681,0.06847279,0.3297326,0.69822943,0.36398655,0.71781236,0.40804848,0.19186866,0.21744089,0.14516437,220.21922,216.9988,206.8835,206.49062,0,0,0,0,0,0,0,0,0,0,0,0,-1.2990806,-1.118239,-0.3268985,-0.2848453,1.3616586,1.1345801,0.3926107,0.31970227,-0.014458914,0.0140848495,-0.008670822,0.016992591,36,6,231,2,6,2908.0796,328.60376,-3164.2703,72.11915,870543.56,1019.0443,96.12675,93.00964,85.0441,85.0441,36.749958,1,240.23694,0,0,10.068994,10.068994,0,9,255,0,0,0,4,-127,17,0
True,10056328,10999.993,999.9994,8237.17,-18.556965,-1.1359346,7.6543713,2.7221432,-0.31476974,72.72997,-0.011789875,-0.1865914,0.0108695645,1.049298,0.08475034,0.06908478,0.28335032,0.53418016,0.33032706,0.5829701,0.22655006,0.092834495,0.24204935,0.16730437,220.2747,218.39923,209.3032,208.78479,0,0,0,0,0,0,0,0,0,0,0,0,-0.29233903,-0.2592367,-0.29977426,-0.26434043,0.36984733,0.27535778,0.38529533,0.3128364,-0.018051684,0.0013775975,-0.011112183,0.0072123185,36,6,231,2,6,2915.6074,327.89325,-3160.446,72.78158,869666.8,1008.07135,96.12251,92.84851,84.91164,84.91164,36.749958,1,245.5082,0,0,10.185984,10.185984,0,9,255,0,0,0,4,0,14,0
True,10056437,10999.993,999.9994,8265.796,-15.844708,0.026019096,6.5887494,1.796318,-0.3524828,73.36775,-0.018383065,-0.039542116,0.02756237,1.0395423,0.084546566,0.07061579,0.2845575,0.52615327,0.3501116,0.6068009,0.13195817,0.081855744,0.17787729,0.14194265,220.51367,219.65347,209.97572,209.57396,0,0,0,0,0,0,0,0,0,0,0,0,-0.20130153,-0.1854535,-0.18440987,-0.16723336,0.24069746,0.20271498,0.25621736,0.21935067,-0.017958177,0.00075583346,-0.009677187,0.008940797,36,6,231,2,6,2921.6956,327.28857,-3157.152,73.39058,869358.4,1004.4775,95.88786,92.56041,84.791855,84.791855,36.749958,1,249.84001,0,0,10.281045,10.281045,0,9,255,0,0,0,4,0,13,0
True,10056546,10999.993,999.9994,8343.607,-9.878141,0.926514,7.6117096,0.5954399,-0.3253522,74.12059,0.01410792,0.035326906,0.061503965,1.0399568,0.08275266,0.07670112,0.38266557,0.5901308,0.42267534,0.63823426,0.109969,0.10611683,0.15811126,0.15026656,222.42796,222.17955,211.82681,211.58904,0,0,0,0,0,0,0,0,0,0,0,0,-0.077865034,-0.075523324,-0.057982307,-0.05465073,0.13474473,0.13024805,0.16840759,0.15989603,-0.010358725,0.0057115313,-0.004414052,0.011220697,36,6,231,2,6,2928.9795,326.55994,-3153.0203,74.123695,868425,994.26215,95.525894,92.16673,84.59548,84.59548,36.749958,1,255.06897,0,0,10.394997,10.394997,0,9,255,0,0,0,4,0,15,0
True,10056656,10999.993,999.9994,8470.626,-2.9843967,-1.897924,5.5620866,-0.031345367,-0.33408976,74.852486,0.04168853,0.037502702,0.047223467,1.0446681,0.08567718,0.08167547,0.30285525,0.41918394,0.41292205,0.5449301,0.14921603,0.13589333,0.208032,0.21500339,225.47293,225.00177,215.06253,215.0523,0,0,0,0,0,0,0,0,0,0,0,0,-0.006940199,-0.004931182,0.004251867,0.005715522,0.14937733,0.13598277,0.20807545,0.21507934,-0.016540833,-0.0075300094,-0.0051214695,0.0044532344,36,6,231,2,6,2936.3257,325.81268,-3148.765,74.85323,866681.56,977.3634,95.23717,91.87596,84.36418,84.36418,36.749958,1,260.36984,0,0,10.509393,10.509394,0,9,255,0,0,0,4,0,18,0
True,10056765,10999.993,999.9994,8482.422,-0.32153726,0.25190735,6.4204335,-0.22530365,-0.39280796,75.499466,0.009498637,0.019775318,0.03364474,1.0473275,0.08412971,0.086466834,0.39665046,0.44420543,0.45109776,0.5034596,0.107767284,0.12635855,0.12462264,0.13095577,226.50566,226.8196,215.02443,215.06499,0,0,0,0,0,0,0,0,0,0,0,0,0.01873115,0.022011874,0.02032985,0.021578826,0.10938301,0.12826148,0.12626998,0.13272174,-0.009275456,-0.005591849,-0.0023525394,0.001445327,36,6,231,2,6,2942.3645,325.17963,-3145.2573,75.500824,866508.7,975.83826,94.96196,91.63588,84.25581,84.25581,36.749958,1,264.7323,0,0,10.602649,10.60265,0,9,255,0,0,0,4,0,20,0
True,10056890,10999.993,999.9994,8562.194,0.92388344,0.46022087,7.302882,-0.22911835,-0.38772058,76.26402,-0.04064193,0.0044266675,0.024131006,1.0486186,0.08489982,0.08971313,0.50147486,0.529036,0.47198528,0.5026563,0.08247548,0.08916144,0.12356907,0.12750296,228.22133,228.34566,217.18819,217.23291,0,0,0,0,0,0,0,0,0,0,0,0,0.021683529,0.023847895,0.019084534,0.020323636,0.08527826,0.09229564,0.12503414,0.12911257,-0.0011557546,0.0009791255,-0.0008375421,0.0013870634,36,6,231,2,6,2950.0076,324.3763,-3140.8267,76.26536,865291.5,965.0984,94.603546,91.3316,84.04645,84.04645,36.749958,1,270.25024,0,0,10.719555,10.719556,0,9,255,0,0,0,4,0,23,0
True,10057015,10999.993,999.9994,8706.051,-0.3446381,-3.3218462,5.538927,-0.15278244,-0.36675215,76.98453,0.015977528,-0.00708093,-0.036019325,1.0485358,0.08960799,0.088863775,0.36117262,0.23816667,0.40364325,0.36306512,0.11216275,0.13355413,0.20811068,0.21041422,230.96283,231.48256,221.0802,221.14311,0,0,0,0,0,0,0,0,0,0,0,0,0.018345848,0.019391017,0.014502968,0.01552722,0.113653205,0.13495451,0.2086154,0.21098635,-0.012023569,-0.021551609,-0.005794473,-0.0087376535,36,6,231,2,6,2957.832,323.5477,-3136.3027,76.98555,862788.9,946.2658,94.35818,91.24083,83.8592,83.8592,36.749958,1,275.89313,0,0,10.838003,10.838005,0,9,255,0,0,0,4,0,26,0
True,10057109,10999.993,999.9994,8707.862,0.028450966,2.1303627,6.276799,-0.07329178,-0.39842987,77.641075,-0.0076137367,-0.008877558,-0.026615426,1.0474836,0.08591801,0.084499404,0.5349703,0.48261085,0.6065923,0.5516081,0.09593226,0.0997225,0.112937964,0.11200763,232.56177,232.69469,220.7683,220.78458,0,0,0,0,0,0,0,0,0,0,0,0,0.0090405755,0.012069592,0.005373495,0.0066845464,0.0963573,0.10045024,0.11306573,0.11220692,0.0014387984,-0.0026169643,0.008925669,0.0049375966,36,6,231,2,6,2964.382,322.8391,-3132.5198,77.642136,862990.25,946.5621,94.023125,90.993,83.65739,83.65739,36.749958,1,280.6185,0,0,10.936238,10.93624,0,9,255,0,0,0,4,0,29,0
True,10057218,10999.993,999.9994,8798.051,-0.37094927,0.5900989,6.6266356,-0.025169373,-0.35835934,78.379326,-0.017842283,-0.008472489,-0.04893365,1.0464492,0.0867248,0.07950743,0.49475473,0.3800549,0.5380373,0.45378375,0.08790873,0.093203016,0.12595972,0.12493264,234.60124,234.76689,223.15639,223.1683,0,0,0,0,0,0,0,0,0,0,0,0,0.004998287,0.0064166,0.0021963038,0.0030372727,0.08805071,0.093423635,0.12597887,0.12496956,-0.0016762987,-0.010560949,0.0039532892,-0.0021577217,36,6,231,2,6,2972.4204,321.98645,-3127.8745,78.38015,861205.4,934.83875,93.67807,90.79474,83.39349,83.39349,36.749958,1,286.41733,0,0,11.055747,11.055749,0,9,255,0,0,0,4,0,32,0
True,10057328,10999.993,999.9994,8897.01,-0.46905422,-1.5474967,6.2190375,-0.00818634,-0.34873915,78.95737,0.017244183,-0.0077309674,-0.049150914,1.0457988,0.08875572,0.074253574,0.51218396,0.40387937,0.55356014,0.4879159,0.108289436,0.10512522,0.17074046,0.17088988,236.7715,236.7507,225.81781,225.8431,0,0,0,0,0,0,0,0,0,0,0,0,0.0027591337,0.0047736503,0.00059550285,0.002248261,0.10832458,0.10523354,0.1707415,0.17090468,-0.00032623298,-0.008715503,0.00507918,0.00031792372,36,6,231,2,6,2979.0415,321.28256,-3124.0432,78.95813,859146.56,922.2505,93.360306,90.576935,83.163734,83.163734,36.749958,1,291.1953,0,0,11.153388,11.153391,0,9,255,0,0,0,4,0,35,0
True,10057437,10999.993,999.9994,8929.133,0.3333621,3.1406293,6.8209414,-0.037361145,-0.34130526,79.69566,-0.044746093,0.039476346,-0.029880095,1.046604,0.08506051,0.07026992,0.63010484,0.55371106,0.6216902,0.56033456,0.06956769,0.07397693,0.103773,0.10963788,238.2406,238.14738,226.50005,226.46689,0,0,0,0,0,0,0,0,0,0,0,0,0.05241114,0.054318734,0.006405103,0.0077306177,0.08710104,0.0917775,0.10397048,0.10991008,0.00880792,0.0028904565,0.010020737,0.0055705383,36,6,231,2,6,2987.118,320.41946,-3119.3674,79.6964,858616.9,918.37195,92.984055,90.29611,82.89416,82.89416,36.749958,1,297.02435,0,0,11.271511,11.271516,0,9,255,0,0,0,4,10,39,0
True,10057546,10999.993,999.9994,9020.047,1.8827076,0.7406732,6.1056037,-0.2711258,-0.29635382,80.25616,-0.036068648,0.03365298,-0.0020727217,1.0506938,0.08430527,0.07018751,0.5352134,0.47982115,0.5537918,0.5116655,0.0686294,0.080516115,0.14205648,0.14979976,239.9019,240.00691,228.96243,228.98999,0,0,0,0,0,0,0,0,0,0,0,0,0.020710846,0.021136727,0.025934014,0.027591301,0.07168636,0.08324426,0.14440435,0.15231957,0.0014576335,-0.0028330553,0.005095985,0.0020405129,36,6,231,2,6,2993.8887,319.7275,-3115.4568,80.257164,856545,906.8386,92.72006,90.101166,82.66188,82.66188,36.749958,1,301.90793,0,0,11.369651,11.369656,0,9,255,0,0,0,4,0,42,0
True,10057656,10999.993,999.9994,9123.49,1.3893299,-0.36192036,5.8191876,-0.25074005,-0.26668715,80.895706,0.078132145,0.005267933,-0.027141444,1.0526642,0.082296886,0.06798218,0.46902218,0.39662766,0.61760956,0.5383939,0.14368612,0.16425732,0.1696523,0.17481706,243.34758,243.85176,231.31526,231.38715,0,0,0,0,0,0,0,0,0,0,0,0,0.0737525,0.07865327,0.02356166,0.02547588,0.16150892,0.18211755,0.17128062,0.17666358,-0.0036695413,-0.00927722,0.009724762,0.003979154,36,6,231,2,6,3002.0586,318.91965,-3110.7563,80.89654,854220.3,894.59265,92.39025,89.87672,82.36766,82.36766,36.749958,1,307.79233,0,0,11.487016,11.4870205,0,9,255,0,0,0,4,15,45,0
True,10057781,10999.993,999.9994,9125.681,8.277766,4.769352,4.8915005,-0.34313202,-0.33902335,81.53708,-0.06316075,0.24035902,0.0022203065,1.0650936,0.076463826,0.0667391,0.7433256,0.59056824,0.70902836,0.5322904,0.06521702,0.100974716,0.07773971,0.10460332,243.88643,243.55057,231.56284,231.21678,0,0,0,0,0,0,0,0,0,0,0,0,0.41616482,0.46393424,0.04160894,0.045668267,0.42124388,0.4747956,0.08817463,0.114137836,0.017577998,0.0057454184,0.016355477,0.003536459,36,6,231,2,6,3010.1782,318.11877,-3106.1445,81.538506,854090.25,893.9128,92.02855,89.663956,82.172195,82.172195,36.749958,1,313.62573,0,0,11.602388,11.602394,0,9,255,0,0,0,4,83,47,0
True,10057875,10999.993,999.9994,9213.561,7.8299046,0.6451962,4.9872513,-1.2837524,-0.24101853,81.90634,0.024495212,0.1882229,0.004315432,1.0833615,0.076121174,0.0676715,0.5444003,0.4466506,0.6687698,0.5542181,0.0877417,0.114720196,0.13423906,0.16940697,245.6149,245.30244,233.79655,233.78044,0,0,0,0,0,0,0,0,0,0,0,0,0.09514682,0.10091459,0.124107,0.13162568,0.12942767,0.152789,0.18281868,0.21453214,0.0021692459,-0.005402446,0.0134354755,0.0051269047,36,6,231,2,6,3015.7212,317.61316,-3103.0732,81.916756,852017.4,883.13635,91.846375,89.553894,81.95522,81.95522,36.749958,1,317.58044,0,0,11.680168,11.680173,0,9,255,0,0,0,4,0,46,0
True,10058000,10999.993,999.9994,9259.512,9.701206,2.6891313,5.2365866,-1.2341576,-0.2807765,82.545525,0.032229897,0.038256317,-0.030497909,1.0978775,0.07089196,0.068941504,0.609254,0.45928183,0.6631258,0.5326107,0.08405874,0.1325111,0.10654542,0.12652065,247.02437,247.99109,234.61415,234.83148,0,0,0,0,0,0,0,0,0,0,0,0,0.11725554,0.12669697,0.102249265,0.11079736,0.14427312,0.18333389,0.14767139,0.16817708,0.007192813,-0.00442403,0.013026111,0.0035596937,36,6,231,2,6,3024.657,316.81845,-3098.2476,82.55523,851187.1,878.1105,91.47482,89.30595,81.71922,81.71922,36.749958,1,323.9169,0,0,11.804013,11.804017,0,9,255,0,0,0,4,0,43,0
True,10058125,10999.993,999.9994,9316.561,6.1938105,0.43442655,5.24899,-0.675827,-0.3597901,83.11183,-0.0075646006,-0.011090205,-0.032362394,1.0990069,0.070949405,0.06523288,0.56141484,0.41797623,0.56915593,0.43947178,0.078292415,0.096709825,0.1097042,0.11539204,248.49799,248.99823,236.18846,236.30927,0,0,0,0,0,0,0,0,0,0,0,0,0.06854208,0.0732273,0.053621743,0.056283634,0.10405632,0.12130552,0.122107744,0.1283868,0.003487192,-0.007623559,0.0062103607,-0.003195785,36,6,231,2,6,3032.5757,316.1361,-3094.092,83.11536,849451.44,870.80994,91.2067,89.16307,81.52374,81.52374,36.749958,1,329.49057,0,0,11.912286,11.912291,0,9,255,0,0,0,4,0,39,95
True,10058234,10999.993,999.9994,9389.037,3.071483,-0.4426443,5.1236854,-0.20262146,-0.35480738,83.69751,0.006472154,-0.027408693,0.035849363,1.0964363,0.07200505,0.06379021,0.38579264,0.43173134,0.52608556,0.4756405,0.093337126,0.08388051,0.12413302,0.12217656,250.54922,250.46068,238.1114,238.16217,0,0,0,0,0,0,0,0,0,0,0,0,0.02309899,0.02382507,0.012959961,0.014076352,0.09615291,0.08719847,0.12480772,0.122984774,-0.010116504,-0.0065580886,0.0030864142,-0.0005724244,36,6,231,2,6,3040.9116,315.42023,-3089.7776,83.6985,847312.2,861.89136,90.995514,88.9658,81.2869,81.2869,36.749958,1,335.3445,0,0,12.025145,12.025149,0,9,255,0,0,0,4,0,33,127
True,10058328,10999.993,999.9994,9450.166,0.17573166,1.02918,5.443699,-0.002105713,-0.34929442,84.298996,0.01829203,-0.019557035,0.049913444,1.0935913,0.070694566,0.068646625,0.40099216,0.50266933,0.5114596,0.53642166,0.101689614,0.087332375,0.1146384,0.1135986,252.56432,252.30196,239.5819,239.62555,0,0,0,0,0,0,0,0,0,0,0,0,0.0006692079,0.0027652658,-0.0033704054,-0.0021619755,0.10169181,0.08737614,0.114687935,0.11361917,-0.008939147,-0.001063237,0.0020255782,0.0038361065,36,6,231,2,6,3049.498,314.68713,-3085.345,84.299706,845634.2,854.68634,90.79619,88.73118,81.16342,81.16342,36.749958,1,341.36456,0,0,12.140498,12.140503,0,9,255,0,0,0,4,0,29,127
True,10058453,10999.993,999.9994,8731.383,-34.926453,4.1015215,-8.744441,-2.1432838,-0.20513725,83.84608,-0.046077203,-0.061729513,0.0996596,1.0906799,0.06991208,0.075180046,0.4859583,0.602409,0.47143412,0.5533334,0.055184364,0.052382674,0.04319888,0.04168498,249.62962,249.87221,235.61696,235.833,0,0,0,0,0,0,0,0,0,0,0,0,0.21208419,0.22162613,0.15843536,0.16953436,0.2191461,0.2277325,0.16421908,0.1745839,-0.0023576673,0.0066626016,-0.0008775182,0.0050627366,36,6,231,2,6,3057.4243,314.01044,-3081.1802,83.87372,-229230.9,-250,90.637535,88.51599,81.053955,81.053955,5.9814444,1,346.95007,0,0,12.246955,12.246959,0,8,255,0,0,0,5,0,26,127
True,10058562,10999.993,999.9994,7090.149,-16.954874,0.11634803,-4.1937804,-2.5820541,-0.28259897,83.3642,0.011438172,-0.20082906,0.08618529,1.0761919,0.069037996,0.08543357,0.32238054,0.3027029,0.3684727,0.31945616,0.15820451,0.29845852,0.18077452,0.19643976,250.75409,255.16454,238.29724,239.28282,0,0,0,0,0,0,0,0,0,0,0,0,0.30698568,0.32323423,0.20361558,0.22319353,0.34535325,0.4399521,0.27228427,0.29732797,-0.015028403,-0.016552633,-0.008345436,-0.011900663,36,6,231,2,6,3064.729,313.39066,-3076.9836,83.404655,725264.25,977.3195,90.566574,88.493576,81.0183,81.0183,25.116905,1,352.20645,0,0,12.348148,12.348152,0,8,255,0,0,0,5,0,31,127
True,10058656,10999.993,999.9994,6705.7676,-5.3111343,0.8420253,-43.90123,-0.8548126,-0.71234083,78.54814,-0.120420724,-0.21479441,0.06499195,1.0513734,0.06741875,0.09102666,0.31407297,0.38636574,0.36237174,0.3531601,0.22355244,0.22271807,0.22494179,0.2213326,237.65442,238.67317,225.81812,226.47832,0,0,0,0,0,0,0,0,0,0,0,0,0.12780192,0.12760514,0.05206651,0.055198126,0.2575054,0.25668347,0.23088899,0.22811171,-0.015671907,-0.010072107,-0.008787945,-0.009456076,36,6,231,2,6,3072.237,312.7136,-3072.5903,78.556015,836336.94,1186.9606,90.571556,88.46588,81.054245,81.054245,34.537807,1,357.63202,0,0,12.456534,12.456537,0,8,255,0,0,0,5,0,36,127
True,10058781,10999.993,999.9994,6506.293,-6.7597322,4.022613,-17.807264,0.2764244,-0.5564542,76.68403,-0.04613558,-0.15113674,0.035453252,1.0268543,0.06423898,0.09846574,0.4511361,0.5476634,0.4813913,0.5388796,0.120564766,0.11810911,0.17431025,0.15485322,230.15186,230.85912,219.49287,219.67151,0,0,0,0,0,0,0,0,0,0,0,0,-0.0069004726,-0.0039882786,-0.041956294,-0.039714567,0.12076208,0.11817642,0.17928858,0.15986484,-0.0050549936,0.0024220068,-0.00015531108,0.0040143803,36,6,231,2,6,3080.6343,311.99457,-3067.6223,76.686554,857750.56,1258.2795,90.39853,88.251274,80.89427,80.89427,36.430214,1,363.7329,0,0,12.582884,12.582887,0,8,255,0,0,0,5,0,42,127
True,10058875,10999.993,999.9994,6455.6787,-3.7416763,1.049814,-10.993147,0.7295799,-0.45248842,75.77303,-0.041632224,-0.092330314,0.030997071,1.0154129,0.06581304,0.09988651,0.32950586,0.47345945,0.44583634,0.5054984,0.1560188,0.115412064,0.2276651,0.20198339,228.3142,227.87248,218.10158,217.99405,0,0,0,0,0,0,0,0,0,0,0,0,-0.065088354,-0.060521558,-0.08094397,-0.076468244,0.16905135,0.13031809,0.24162641,0.2159738,-0.014476476,-0.0033258311,-0.0027341582,0.0015932061,36,6,231,2,6,3087.0771,311.46362,-3063.7344,75.7779,859284.94,1270.398,90.3477,88.157005,80.77088,80.77088,36.67981,1,368.4238,0,0,12.682005,12.682007,0,8,255,0,0,0,5,0,47,127
True,10059000,10999.993,999.9994,6405.2207,-5.208556,2.1696477,-2.7908378,0.5674286,-0.43989134,75.52978,0.0016543344,-0.007184642,0.08035527,1.0097394,0.062985994,0.10602174,0.3892425,0.5933281,0.48619962,0.6422416,0.15541576,0.12104867,0.16633202,0.15955418,227.66571,226.93808,216.10515,216.02513,0,0,0,0,0,0,0,0,0,0,0,0,-0.068345584,-0.061981402,-0.056502517,-0.053440273,0.16977979,0.13599439,0.17566694,0.16826586,-0.0098492745,0.0059591997,0.00019343942,0.011511352,36,6,231,2,6,3094.7168,310.844,-3059.0593,75.53319,858441.6,1279.6917,90.18512,87.93942,80.65438,80.65438,36.73858,1,374.0055,0,0,12.800689,12.800691,0,8,255,0,0,0,5,0,53,121
True,10059093,10999.993,999.9994,6365.9443,-0.7005944,0.51507,-10.729627,0.32648087,-0.4022541,74.45068,-0.0684497,0.023839623,0.0808512,1.0112293,0.06312227,0.114206776,0.23160586,0.44498873,0.3273395,0.4694055,0.17207463,0.13959704,0.25067064,0.25037554,225.0383,224.19684,215.14694,215.05847,0,0,0,0,0,0,0,0,0,0,0,0,-0.043207657,-0.041945685,-0.03264171,-0.031259425,0.1774164,0.14576273,0.25278696,0.25231937,-0.02205981,-0.005531173,-0.011328876,-0.001024656,36,6,231,2,6,3100.935,310.34866,-3055.214,74.452484,856846.9,1284.6857,90.21989,87.85703,80.63284,80.63284,36.747448,1,378.57895,0,0,12.89853,12.898532,0,8,255,0,0,0,5,0,59,85
True,10059203,10999.993,999.9994,5889.4424,-3.1047904,1.8689005,-13.274885,0.00050735474,-0.458251,73.22198,0.07135838,0.0015613863,0.08223486,1.0128051,0.05884938,0.12269063,0.2518561,0.4245421,0.46213108,0.6253979,-0.8215193,-0.7728544,-0.10568325,-0.10532924,199.02194,200.28072,201.25587,201.32764,0,0,0,0,0,0,0,0,0,0,0,0,-0.2674725,-0.254048,-0.0049077403,-0.0021489551,0.863965,0.81353813,0.10579715,0.10535116,-0.020491228,-0.007114971,-0.00155228,0.010289662,36,6,231,2,6,3107.0159,309.87778,-3051.4424,73.22341,833993,1349.7076,90.17367,87.739914,80.56895,80.56895,36.74942,1,383.03818,0,0,12.995654,12.995656,0,8,255,230,0,0,5,-127,64,174
True,10059312,10999.993,999.9994,5672.7085,-9.556964,3.9804075,-22.38753,-0.06703377,0.0811038,70.58647,0.028846573,-0.25860378,0.0038310476,0.99892545,0.0646841,0.12615114,0.6233562,0.7937221,0.46338075,0.61532325,-0.40796718,-0.40852952,-0.15907072,-0.14924634,198.55719,197.32265,191.9502,193.35048,0,0,0,0,0,0,0,0,0,0,0,0,-0.6487156,-0.56079054,-0.019359857,-0.019292274,0.7663349,0.69381726,0.16024448,0.15048808,0.008285172,0.021481715,-0.00146164,0.009558935,36,6,231,2,6,3114.1975,309.314,-3046.9058,70.586555,-111025.72,-186.54416,90.046005,87.582184,80.47847,80.47847,34.153297,1,388.43768,0,0,13.11404,13.114042,0,8,0,255,0,0,5,-127,68,139
True,10059421,10999.993,999.9994,8010.8833,-11.862178,-1.2851465,-19.134102,1.4146862,0.38269663,68.65899,0.020336006,-0.48728994,0.032082625,0.9627928,0.07565317,0.12738307,0.49328375,0.65023625,0.3640247,0.49705136,-0.6345136,-0.18364063,-1.3704014,-0.6614676,186.56752,198.51244,161.30815,176.16154,0,0,0,0,0,0,0,0,0,0,0,0,-1.020965,-0.90805817,-0.22501141,-0.21055934,1.202072,0.9264413,1.3887513,0.6941719,-0.0017902404,0.0103673,-0.008668054,0.0009805299,36,6,231,2,6,3119.9224,308.8721,-3043.1472,68.67462,97043.29,114.85822,90.01304,87.50895,80.41193,80.41193,27.329578,1,392.70892,0,0,13.212691,13.212694,0,7,0,255,0,0,4,-127,72,129
True,10059531,10999.993,999.9994,6680.3345,-21.835766,2.54062,-22.525135,3.8705025,0.32110262,65.71983,-0.033268247,-0.712935,0.022435602,0.8908596,0.07986265,0.12387975,0.54954594,0.808845,0.3864753,0.617034,-0.46158805,-0.27383512,-0.9125606,-0.36804375,181.1149,184.71243,160.57388,175.66853,0,0,0,0,0,0,0,0,0,0,0,0,-1.3027353,-1.0717361,-0.5309379,-0.46492153,1.3820937,1.1061662,1.0557755,0.5929656,0.0025678277,0.022653133,-0.007039685,0.009683017,36,6,231,2,6,3126.3608,308.33844,-3038.7036,65.834496,-158966.38,-226.39537,90.19734,87.54257,80.49538,80.49538,-1.8204222,1,397.58768,0,0,13.329308,13.329309,0,7,0,255,0,0,4,-127,74,129
True,10059640,10999.993,999.9994,6380.093,-23.242357,3.3175983,-21.627481,6.578005,0.29320478,63.096195,-0.06538223,-0.8460343,0.06389108,0.8137271,0.084338814,0.12156468,0.541038,0.858349,0.38751972,0.641688,-0.6046989,-0.14821188,-0.538837,-0.7842859,169.64534,182.76118,161.21146,159.07047,0,0,0,0,0,0,0,0,0,0,0,0,-1.7058758,-1.3600408,-0.882856,-0.792915,1.8098819,1.3680928,1.0343018,1.1152661,0.0019088015,0.02648772,-0.006963931,0.011471201,36,6,231,2,6,3131.4072,307.91507,-3034.9614,63.43884,-143921.69,-214.85016,90.65111,87.96178,80.89063,80.89063,-8.955742,1,401.81845,0,0,13.426786,13.426789,0,7,0,255,0,0,4,-127,72,134
True,10059750,10999.993,999.9994,5646.078,-26.292452,3.7942355,-21.364655,10.039808,0.27566242,59.867085,-0.087792784,-0.92912805,0.049944356,0.712308,0.09080467,0.11800204,0.49632612,0.82011616,0.3962666,0.71889216,-0.4427462,-0.48552212,-1.6583495,-0.8434935,162.098,161.66127,132.16151,147.93158,0,0,0,0,0,0,0,0,0,0,0,0,-2.100799,-1.7807467,-1.3651885,-1.138991,2.146947,1.8457494,2.1479902,1.417315,-0.0015545804,0.0235262,-0.0063295104,0.017070912,36,6,231,2,6,3137.0442,307.433,-3030.4617,60.70372,-108681.58,-184.06442,91.79277,89.16098,81.62732,81.62732,-10.677214,1,406.3145,0,0,13.543252,13.543255,0,7,0,255,0,0,4,-127,68,151
True,10059859,10999.993,999.9994,5152.2036,-22.02021,2.4735932,-16.074099,12.745138,0.38100243,57.19386,0.05409473,-0.8285268,0.029964902,0.629178,0.098408096,0.11429237,0.44519547,0.73121417,0.43406725,0.7243357,-0.7381774,-0.5025712,-1.3367988,-1.6192718,148.8603,156.90826,133.41502,125.93694,0,0,0,0,0,0,0,0,0,0,0,0,-2.7242105,-2.387768,-1.8898152,-1.6726243,2.8224509,2.4400847,2.3148289,2.3280277,-0.005515158,0.016639851,-0.0035877824,0.017465737,36,6,231,2,6,3141.3032,307.07126,-3026.7942,58.59796,-89777.32,-165.66867,93.03934,90.53493,82.807014,82.807014,-10.943322,1,409.82205,0,0,13.637865,13.637868,0,7,0,255,0,0,4,-127,62,138
True,10059968,10999.993,999.9994,7568.0093,-27.032772,5.562924,-13.300978,15.885969,0.29194736,54.114983,-0.16377671,-0.94969,0.11034702,0.5238024,0.10266473,0.11129674,0.53272605,0.87820184,0.42693022,0.727543,-0.68144876,-0.33155987,-0.68387973,-1.0668793,140.53072,150.5896,132.51688,128.95749,0,0,0,0,0,0,0,0,0,0,0,0,-3.3669114,-2.5958803,-2.0821767,-1.9567449,3.4351804,2.6169689,2.1916091,2.2286952,0.0012649614,0.02802552,-0.0041054413,0.017698366,36,6,231,2,6,3146.2307,306.63504,-3022.2834,56.3993,611041.6,782.1499,95.41917,93.49465,84.941414,84.941414,15.918235,1,414.28592,0,0,13.754143,13.754147,0,7,0,255,0,0,3,-127,50,129
True,10060078,10999.993,999.9994,7349.479,-22.16707,1.7047927,-8.131294,18.916866,0.31934786,51.260418,0.008522544,-0.8513498,0.049138784,0.42386034,0.1143358,0.10789657,0.43007448,0.783313,0.41033956,0.7293995,-0.22999436,-0.14093669,-0.3646936,-0.43356913,139.36221,145.11153,135.74825,137.28719,0,0,0,0,0,0,0,0,0,0,0,0,-3.7266264,-3.1373188,-2.90428,-2.509723,3.7337167,3.140483,2.9270878,2.5468984,-0.0066864304,0.02067542,-0.005308781,0.01783302,36,6,231,2,6,3150.786,306.23334,-3017.781,54.640465,269447.56,351.3776,97.91147,96.2749,87.30889,87.30889,32.80966,1,418.24164,0,0,13.869993,13.869998,0,6,206,0,0,0,3,-127,34,0
True,10060203,10999.993,999.9994,8325.6045,-25.680397,5.282704,2.5967193,21.102898,0.18139791,49.41108,-0.09200988,-0.8540913,0.062163472,0.32266828,0.113101594,0.10400777,0.52149266,0.82888895,0.5787712,0.80761075,1.5643585,0.9755041,1.0713255,0.61830074,160.93271,158.5087,155.60439,154.48495,0,0,0,0,0,0,0,0,0,0,0,0,-4.247267,-3.7949302,-3.0950599,-2.4689808,4.526201,3.9183037,3.2752304,2.5452232,0.0003948193,0.02420574,0.0069077685,0.023505777,36,6,231,2,6,3154.9424,305.85318,-3013.316,53.729134,688101.2,790.0522,100.37187,99.66171,90.056076,90.056076,36.051697,1,422.02878,0,0,13.983002,13.9830065,0,6,255,0,0,0,3,-127,16,0
True,10060328,10999.993,999.9994,8497.883,-21.191582,3.2838094,6.9371753,23.163868,0.20570803,47.99699,-0.005657701,-0.7743271,0.03147623,0.22786048,0.11698938,0.098682165,0.45087656,0.78752375,0.5873887,0.7806191,2.595171,1.4054449,1.5498637,1.1648021,168.25557,159.05168,158.37675,157.77646,0,0,0,0,0,0,0,0,0,0,0,0,-4.9317164,-4.289791,-3.5680509,-3.2056117,5.5728574,4.5141535,3.8901238,3.410676,-0.005075101,0.021001589,0.007532805,0.02154804,36,6,231,2,6,3158.9065,305.4913,-3008.5884,53.294632,481752.53,541.45984,102.747116,102.43374,93.059784,93.059784,36.630955,1,425.85782,0,0,14.0985565,14.098561,0,6,255,0,0,0,3,-127,253,0
True,10060421,10999.993,999.9994,8492.691,-18.965885,1.8458769,6.7102003,24.925417,0.27178288,46.757294,-0.037815057,-0.7751502,0.02761712,0.15297918,0.12438739,0.09332447,0.47673097,0.78704226,0.5284771,0.77062285,2.5915802,1.4707456,1.8792262,1.4160697,164.1781,156.73141,159.30954,158.39119,0,0,0,0,0,0,0,0,0,0,0,0,-5.103511,-4.3022013,-3.8999174,-3.4728036,5.7238193,4.54665,4.32907,3.7504158,-0.0030724201,0.020964295,0.0032598749,0.020823002,36,6,231,2,6,3162.0876,305.17926,-3004.474,52.986744,485371.25,545.6925,104.7307,104.5575,95.20123,95.20123,36.723434,1,429.0332,0,0,14.196595,14.1966,0,6,255,0,0,0,3,-127,235,0
True,10060546,10999.993,999.9994,8333.857,-20.41899,4.5955415,7.4136887,26.677368,0.26070738,45.22943,-0.063815616,-0.77530515,0.095110886,0.062052984,0.12336666,0.085904956,0.49006143,0.8072072,0.5298494,0.81816,2.9073012,1.7793067,1.9446576,1.2633722,163.18106,155.13644,156.14203,154.65933,0,0,0,0,0,0,0,0,0,0,0,0,-5.2911005,-4.7413745,-4.065877,-3.1954565,6.0372295,5.064244,4.507,3.436139,-0.0020398442,0.022526272,0.0033594146,0.02427093,36,6,231,2,6,3165.5723,304.81592,-2999.5698,52.51144,558206.4,639.13934,106.985016,107.21524,97.8425,97.8425,36.745384,1,432.73492,0,0,14.310851,14.310857,0,6,255,0,0,0,3,-127,213,0
True,10060656,10999.993,999.9994,8374.77,-18.99418,3.0406072,6.5270495,27.907509,0.36618042,43.967896,-0.019267447,-0.73755026,0.043636985,-0.0090846,0.12804823,0.08338836,0.4110769,0.7196302,0.48914558,0.70712334,3.5403275,2.1238778,2.349629,1.8652267,164.19539,154.30363,156.69202,156.02298,0,0,0,0,0,0,0,0,0,0,0,0,-5.868602,-5.159338,-4.5246873,-4.0927362,6.853788,5.579393,5.0983872,4.4977283,-0.008157982,0.015742555,0.00040711462,0.016217306,36,6,231,2,6,3168.2556,304.53638,-2995.3977,52.0782,619438.44,706.87976,108.819244,109.23505,100.08671,100.08671,36.748928,1,435.80646,0,0,14.405906,14.405911,0,6,255,0,0,0,3,-127,194,0
True,10060765,10999.993,999.9994,8408.349,-19.121452,3.565904,8.559709,29.196253,0.41629362,42.64012,-0.0063194907,-0.72601587,0.06396138,-0.08303898,0.13134314,0.079644024,0.43504143,0.7939754,0.52217275,0.7905276,4.2296515,2.5773828,2.584558,2.0766144,166.10713,155.69844,157.01247,156.38641,0,0,0,0,0,0,0,0,0,0,0,0,-6.2681823,-5.3503556,-4.5786095,-4.124855,7.56175,5.9387884,5.2577186,4.61809,-0.00630169,0.021501336,0.0028026141,0.022266716,36,6,231,2,6,3170.8777,304.24646,-2990.9773,51.67954,681246.56,773.91425,110.67582,111.205765,102.16406,102.16406,36.74976,1,438.54587,0,0,14.5051365,14.505142,0,6,255,0,0,0,3,-127,173,0
True,10060875,10999.993,999.9994,8433.708,-19.50212,4.9050336,10.216057,30.836205,0.34188604,40.80701,-0.11964545,-0.7706181,0.06700394,-0.18319632,0.13126568,0.07495057,0.52901655,0.82751715,0.60465306,0.79582673,4.910872,2.755765,2.9694304,2.269771,167.39682,152.38232,158.19725,156.98853,0,0,0,0,0,0,0,0,0,0,0,0,-6.4346724,-5.4593177,-4.651696,-3.9828131,8.094546,6.1154222,5.5186768,4.584175,0.0009776186,0.02409948,0.008785013,0.022651069,36,6,231,2,6,3174.092,303.86694,-2984.9563,51.148804,708466.2,801.2973,113.039795,113.974266,104.90765,104.90765,36.749958,1,442.68884,0,0,14.638077,14.6380825,0,6,255,0,0,0,3,-127,145,0
True,10061000,10999.993,999.9994,8575.632,-15.885858,2.0689454,8.089935,32.382206,0.27529907,38.973537,-0.06843867,-0.73220795,-0.039953634,-0.2733443,0.1301138,0.06599259,0.42914173,0.78298295,0.6007759,0.34727797,6.867321,3.4044323,3.7495883,3.5208251,175.75595,151.89864,159.37726,160.412,0,0,0,0,0,0,0,0,0,0,0,0.120000005,-7.308613,-5.952033,-5.237452,-5.3136497,10.028754,6.856884,6.441298,6.3742514,-0.0067586806,0.020649858,0.008503795,-0.009882715,36,6,231,2,6,3176.6929,303.54944,-2979.4033,50.67168,695180.7,774.5655,114.8436,116.21948,107.593765,107.593765,36.749958,1,446.45038,0,0,14.758755,14.7587595,0,6,255,0,0,0,3,-127,129,0
True,10061093,10999.993,999.9994,9359.667,-110.97417,15.012161,-6.4754944,22.748154,1.2332525,34.947098,-0.10971899,-0.9041453,0.35262766,-0.35765624,0.12673345,0.07139117,0.21087055,0.19919407,0.27003285,0.19288406,0,0,0,0,185.10335,174.46863,174.18349,174.29198,0,0,0,0,0,0,0,0,0,0,0,0,0,0,0,0,0,0,0,0,-0.023665966,-0.024570426,-0.015485397,-0.021081092,36,6,231,2,6,3177.9075,303.36267,-2975.2893,41.71689,849186.44,870.21857,115.4997,116.593124,108.65253,108.65253,36.749958,1,449.12173,0,0,14.855276,14.855281,0,6,255,0,0,0,3,-127,129,0
True,10061203,10999.993,999.9994,10000.534,-45.17473,-1.0185025,1.8235779,22.489397,-0.5983455,32.96879,-0.13519108,-0.97341186,0.4606621,-0.45584103,0.12222582,0.10236471,0.13676442,0.12948862,0.15827182,0.13510701,0,0,0,0,197.03392,193.2055,185.31964,185.318,0,0,0,0,0,0,0,0,0,0,0,0,0,0,0,0,0,0,0,0,-0.029406227,-0.029969811,-0.02359156,-0.02527173,36,6,231,2,6,3178.459,303.17728,-2971.3928,39.913307,-410962.94,-391.98648,114.00663,114.84994,107.04237,107.04237,36.17789,1,450.7503,0,0,14.953636,14.953642,0,6,255,0,0,0,3,-125,129,0
True,10061328,10999.993,999.9994,10202.089,-15.166235,-9.274689,3.2771945,25.058897,-3.7475722,30.31871,-0.139421,-0.9870065,0.46713996,-0.5739109,0.12044264,0.1415374,0.14215344,0.14148214,0.13100225,0.12571977,0,0,0,0,198.85233,197.18149,189.34491,189.34422,0,0,0,0,0,0,0,0,0,0,0,0,0,0,0,0,0,0,0,0,-0.028988793,-0.029040793,-0.025569454,-0.025952598,36,6,231,2,6,3179.0747,302.80676,-2966.77,39.512238,789728.5,740.5493,112.321976,112.88429,105.22612,105.22612,33.91801,1,453.65857,0,0,15.071734,15.071741,0,6,255,0,0,0,3,-58,129,0
True,10061421,10999.993,999.9994,9840.352,-15.519112,-3.5792036,8.643676,26.364887,-5.2396784,28.41344,-0.045608163,-0.9328014,-0.3259569,-0.6726869,0.12547584,0.15741044,0.072005376,0.12724786,0.36647493,0.10249822,9.8576355,0,10.886928,0,183.8159,199.5271,181.61066,183.2717,0,0,0,0,0,0,0,0,0,0,0.120000005,0,-5.6098657,0,-6.096632,0,11.342114,0,12.477745,0,-0.034422465,-0.03014338,-0.008490335,-0.027636886,36,6,231,2,6,3179.4915,302.37445,-2962.9243,39.113743,613824.9,596.2339,111.26162,111.38562,105.224075,105.224075,34.574776,1,456.08066,0,0,15.171072,15.171079,0,6,255,0,0,0,3,95,129,0
True,10061546,10999.993,999.9994,8088.797,-20.416376,16.68213,23.708454,27.14468,-0.12501335,28.00184,-0.10891719,-0.8440233,-0.41554612,-0.7765947,0.1484479,0.032994315,0.9763052,1,0.8061527,0.81074756,2.0403328,0.8433166,7.4466915,5.468075,134.58424,131.7618,157.8517,155.77795,0,0,0,0,0,0,0,0,0,0.120000005,0.120000005,0.120000005,-2.2495308,-0.56847423,-5.2629232,-4.2403154,3.0369964,1.017028,9.118749,6.919546,0.035624605,0.03746,0.023400024,0.023733296,36,6,231,2,6,3179.7178,301.84933,-2958.2336,38.999386,653842.75,766.3046,113.942474,111.739174,108.23127,108.23127,36.413742,1,459.02347,0,0,15.293077,15.293086,0,6,255,0,0,0,3,126,129,0
True,10061640,10999.993,999.9994,7324.9194,-12.609352,7.0651946,16.467924,28.082966,0.20698023,27.303087,0.074520126,-0.75849175,0.06540249,-0.8581621,0.14111204,0.026734827,0.68658465,0.72788596,0.6996185,0.8445168,2.9114974,2.4662497,7.075821,6.855309,143.41669,144.23625,134.26128,136.70184,0,0,0,0,0,0,0,0,0,0,0.120000005,0.120000005,-1.9158034,0.43526116,-7.21679,-7.0049567,3.4852717,2.504364,10.1068945,9.801259,0.013182845,0.016382046,0.01567297,0.026182622,36,6,231,2,6,3179.58,301.5691,-2954.4797,39.16828,663186.44,868.34393,115.02341,111.31802,110.38493,110.38493,36.672993,1,461.35822,0,0,15.389331,15.3893385,0,6,255,0,0,0,3,127,129,0
True,10061750,10999.993,999.9994,7192.6387,-19.062557,1.1185262,10.940908,28.265465,-0.2021451,26.09344,-0.053653788,-0.5517731,0.06099956,-0.9343045,0.14350602,0.022709057,0.6414798,0.773783,0.4338293,0.60748583,2.7174988,0.47030175,6.6190805,5.33951,141.87831,119.35892,136.71408,135.31578,0,0,0,0,0,0,0,0,0,0,0.120000005,0.120000005,-2.0191696,0.10988547,-5.8181787,-5.107766,3.3855348,0.48296848,8.812686,7.389157,0.009689026,0.019937232,-0.0036050417,0.008990474,36,6,231,2,6,3179.239,301.20306,-2950.1108,38.46875,674725.5,892.0181,116.3077,110.56337,112.33818,112.33818,36.736412,1,463.2616,0,0,15.502627,15.502635,0,6,255,0,0,0,3,127,129,0
True,10061859,10999.993,999.9994,7210.335,-14.179598,1.111258,10.558697,27.832714,-0.26228142,26.161207,-0.06909065,-0.32700795,0.08083573,-0.983385,0.13983579,0.02584237,0.43316433,0.5982642,0.4639477,0.64370155,2.5334594,0.99299854,7.1096005,7.3232493,138.1113,125.130714,135.75833,136.55826,0,0,0,0,0,0,0,0,0,0,0.120000005,0.120000005,-2.1613264,0.111912064,-6.4585247,-6.7929945,3.3301275,0.9992849,9.605153,9.988731,-0.00644709,0.006341547,-0.0014205165,0.011617247,36,6,231,2,6,3178.6323,300.84808,-2945.814,38.198658,700561.3,929.4736,117.477936,109.16703,114.297,114.297,36.74762,1,465.97256,0,0,15.6163645,15.616372,0,6,255,0,0,0,3,127,129,0
True,10061953,10999.993,999.9994,7369.934,-15.2485,1.2660815,11.37115,27.054283,-0.37813592,26.57587,-0.079128996,-0.13092263,0.10085135,-1.0048437,0.13474472,0.026347123,0.33050823,0.48785654,0.60745573,0.4027586,3.3652954,0.95932084,8.405681,5.4841123,149.02013,124.67313,142.75018,134.2953,0,0,0,0,0,0,0,0,0,0,0.120000005,0.120000005,-1.9583576,0.2277913,-6.9148264,-5.2135434,3.893633,0.98599464,10.884406,7.566804,-0.014398833,-0.00221063,0.008988291,-0.0058586374,36,6,231,2,6,3177.9631,300.54404,-2942.264,37.925636,727920.9,943.6741,118.32666,108.14488,115.80762,115.80762,36.74945,1,468.22614,0,0,15.711691,15.711699,0,6,255,0,0,0,3,127,129,0
True,10062078,10999.993,999.9994,7337.39,-14.688602,3.3460464,11.891423,25.519125,-0.088187575,27.843498,0.08848846,0.13118601,0.043278888,-1.0051651,0.13299671,0.02545424,0.24702337,0.46982938,0.82789934,0.5085187,4.842272,0.5433055,5.8382053,5.3868194,166.47441,118.688705,136.21307,136.04822,0,0,0,0,0,0,0,0,0,0,0,0.120000005,-1.6216271,0.552399,-5.4587,-5.1045933,5.1065907,0.77480674,7.9926248,7.4212327,-0.020865569,-0.003607016,0.024977334,0.001812268,36,6,231,2,6,3176.9568,300.17148,-2938.0398,37.768955,746069.5,971.0287,119.278145,107.07452,117.60042,117.60042,36.7499,1,470.92505,0,0,15.826933,15.82694,0,6,255,0,0,0,3,127,129,0
True,10062203,10999.993,999.9994,7785.3794,-10.7936945,0.6673851,9.589411,23.464622,-0.14486039,29.585232,-0.039606966,0.39169896,0.018183503,-0.9745026,0.13636135,0.037530623,0.26826668,0.5572478,0.5709201,0.30800837,4.145424,1.1183578,5.833214,5.901706,162.74559,126.17545,146.96037,145.75851,0,0,0,0,0,0,0,0,0,0,0,0.120000005,-0.9909153,1.0260025,-4.83316,-4.7619243,4.2622123,1.5176973,7.5753427,7.583275,-0.019220062,0.0031644143,0.0063383207,-0.012730986,36,6,231,2,6,3175.749,299.80548,-2933.9058,37.76103,743097.9,910.50195,120.34596,106.069016,119.037605,119.037605,36.749958,1,473.58414,0,0,15.941512,15.94152,0,6,255,0,0,0,3,127,136,0
True,10062296,10999.993,999.9994,7514.6436,-10.286519,1.7798991,9.639945,21.034355,-0.037608266,31.740602,0.059178777,0.6177975,0.13539708,-0.9249986,0.13343225,0.046016566,0.3235148,0.5981912,0.68726724,0.85314584,3.7884448,1.4624373,4.5551744,3.9700687,163.37247,129.08542,142.14583,136.5786,0,0,0,0,0,0,0,0,0,0,0,0,-0.26716056,1.7355771,-4.151408,-3.9765255,3.7978532,2.2695706,6.1631002,5.6190925,-0.014940543,0.00633589,0.0147771165,0.026808493,36,6,231,2,6,3174.5957,299.48322,-2930.4377,38.077698,678714.44,862.0397,121.12882,105.9787,120.58936,120.58936,36.749958,1,475.52,0,0,16.038322,16.03833,0,6,255,0,0,0,3,127,147,0
True,10062406,10999.993,999.9994,7213.0747,-6.6545496,-0.07721789,9.709574,17.32706,-0.12824881,34.52152,0.0223504,0.8890737,0.05570191,-0.83567107,0.13428421,0.06702616,0.36491346,0.516102,0.5930646,0.7237506,0.96331805,2.2650623,2.9561603,3.3241165,130.29549,137.06276,135.83734,135.45476,0,0,0,0,0,0,0,0,0,0,0,0,0.66827697,2.5762827,-3.216468,-3.2652209,1.172423,3.430414,4.368587,4.659551,-0.011733804,-2.2739172E-05,0.007944487,0.017423298,36,6,231,2,6,3173.0447,299.07642,-2926.258,38.626137,436604.16,576.32117,121.09462,107.04324,121.81647,121.81647,36.749958,1,478.2824,0,0,16.155165,16.155172,0,6,255,0,0,0,3,127,161,0
True,10062515,10999.993,999.9994,6481.2397,-4.72531,1.020425,4.833837,12.739105,-0.12155509,36.873856,-0.017707773,1.1551204,0.026635643,-0.7191604,0.12468394,0.08784426,0.45923504,0.54116917,0.511381,0.5675349,0.44115552,1.6314834,1.1930138,1.5529432,123.73439,123.70339,121.457565,120.28566,0,0,0,0,0,0,0,0,0,0,0,0,1.685759,3.604458,-2.229907,-2.288891,1.7425274,3.9564955,2.5289855,2.7659817,-0.004427653,0.001918966,0.0020198748,0.0060927905,36,6,231,2,6,3171.4185,298.66714,-2922.1904,39.01257,169742.33,249.50452,119.6496,108.86647,122.70183,122.70183,36.749958,1,480.98773,0,0,16.268408,16.268414,0,6,255,0,0,0,3,127,174,0
True,10062625,10999.993,999.9994,6430.446,-6.5727935,-1.0007353,4.2834773,6.5721416,-0.104034185,38.7275,0.023526024,1.4231128,0.023078695,-0.5724232,0.11372325,0.105714984,0.38439292,0.46261474,0.42372158,0.4634304,0.9349591,2.3972135,0.62286144,1.0770376,126.19398,122.23363,120.02433,119.001656,0,0,0,0,0,0,0,0,0,0,0,0,2.9107108,4.792531,-0.99163496,-1.0345097,3.057186,5.3586364,1.1710236,1.4933922,-0.010224924,-0.0041658618,-0.0043381676,-0.0014580376,36,6,231,2,6,3169.7166,298.25153,-2918.13,39.28133,413594.25,614.0177,119.48522,110.543884,121.710045,121.710045,36.749958,1,483.69962,0,0,16.381414,16.38142,0,6,255,0,0,0,3,119,189,0
True,10062734,10999.993,999.9994,6402.4536,0.5969099,0.120551795,5.5957603,-0.23192215,-0.2375282,39.912582,-0.049315847,1.6305509,0.06836918,-0.3977184,0.09011442,0.12787767,0.46185872,0.4456581,0.46731213,0.48898518,0.7022271,1.6891445,0.20815556,0.690394,126.90108,125.4726,118.88336,117.69016,0,0,0,0,0,0,0,0,0,0,0,0,2.4547772,3.4549615,0.31442523,0.3631366,2.5532439,3.8457727,0.37708348,0.7800718,-0.0042244233,-0.0054793246,-0.0011764914,0.00039548054,36,6,231,2,6,3167.9514,297.81326,-2914.043,39.91396,733110.94,1095.0503,120.5401,112.24086,119.48014,119.48014,36.749958,1,486.43735,0,0,16.49449,16.494493,0,6,255,0,0,0,3,0,205,0
True,10062843,10999.993,999.9994,6771.4277,1.5538558,2.0507147,4.546009,-5.7463264,-0.08208406,39.91774,-0.00020897761,1.5171226,0.03420754,-0.25182623,0.06756539,0.1460175,0.44974172,0.3274029,0.5415507,0.47616795,0.44233805,1.8351078,0.63040125,1.3151504,127.65399,135.57751,125.37726,125.86542,0,0,0,0,0,0,0,0,0,0,0,0,1.1387236,1.3385625,1.2164471,1.4209961,1.2216196,2.2714248,1.370091,1.9361948,-0.0051630065,-0.014639372,0.0042081214,-0.0005341694,36,6,231,2,6,3166.5046,297.46738,-2910.5957,40.32931,572092.94,807.4477,120.26948,112.77289,117.75496,117.75496,36.749958,1,488.73944,0,0,16.587982,16.587986,0,6,255,0,0,0,3,0,218,0
True,10062953,10999.993,999.9994,6906.3555,1.3456919,0.56571317,2.9720294,-11.9969425,-0.11969042,38.792553,-0.026067222,1.4433521,0.0064898096,-0.08657636,0.04088282,0.15684511,0.41253728,0.29530352,0.4808958,0.34164888,0.30616766,1.5118617,1.16025,1.9303391,126.06246,132.86241,129.12643,129.80516,0,0,0,0,0,0,0,0,0,0,0,0,0.42678922,0.75684637,2.3600903,2.7357745,0.5252501,1.6907223,2.629868,3.3482342,-0.008044861,-0.01712579,-0.00019125268,-0.010290999,36,6,231,2,6,3164.7627,297.0589,-2906.367,40.605457,490681.78,678.74176,118.83078,112.48774,117.257065,117.257065,36.749958,1,491.55817,0,0,16.701439,16.701445,0,6,255,0,0,0,3,-120,234,0
True,10063078,10999.993,999.9994,6956.826,1.2404623,0.20669638,4.4104834,-17.606579,-0.19968855,37.07107,0.01229541,1.1721098,-0.026261028,0.061789863,0.016080545,0.15810186,0.3768765,0.26460075,0.5320647,0.44149038,0.9038196,0.6071778,1.7557116,2.3518867,132.80319,124.17019,130.8986,131.00475,0,0,0,0,0,0,0,0,0,0,0,0,-1.3085035,-0.034681257,3.3696032,3.6480963,1.5903054,0.60816747,3.7995722,4.340504,-0.010807146,-0.019504026,0.0035200864,-0.0030493736,36,6,231,2,6,3163.019,296.6475,-2902.026,41.040173,553486.3,759.9277,117.349075,111.3676,118.42169,118.42169,36.749958,1,494.4451,0,0,16.81649,16.816496,0,6,255,0,0,0,3,-127,249,0
True,10063187,10999.993,999.9994,7018.697,2.4108684,0.065175384,5.0669374,-21.505642,-0.102371335,35.40396,0.050466478,0.90279055,-0.018461434,0.1772683,0.0018155157,0.15639059,0.42458138,0.33952555,0.5185445,0.44854677,1.1697658,0.47083083,2.3347049,2.8526568,135.5789,124.62253,131.93346,132.0344,0,0,0,0,0,0,0,0,0,0,0,0,-1.773956,0.076341905,4.087134,4.341765,2.1249168,0.47697982,4.706964,5.195053,-0.0071119256,-0.013700351,0.0025394522,-0.0025375672,36,6,231,2,6,3161.3472,296.2492,-2897.717,41.423946,585773.4,797.28894,116.88954,110.11891,119.86363,119.86363,36.749958,1,497.3019,0,0,16.928974,16.92898,0,5,255,0,0,0,3,-127,7,0
True,10063296,10999.993,999.9994,7257.2017,2.0066447,0.2767958,5.393419,-24.259125,-0.11552274,34.016148,-0.025624216,0.6364554,-0.03142222,0.26208296,-0.009897833,0.15228397,0.54428554,0.4389282,0.5322724,0.4531765,1.4261857,0.4586653,3.0228932,3.5302095,139.94836,126.99811,136.56909,136.9577,0,0,0,0,0,0,0,0,0,0,0,0,-1.8711541,0.2978536,4.351217,4.690335,2.3527055,0.5468918,5.2982044,5.870402,0.0021603573,-0.006000625,0.0035351552,-0.0022017658,36,6,231,2,6,3159.7268,295.85703,-2893.3804,41.780575,712346.6,937.05853,117.21294,108.93461,121.16596,121.16596,36.749958,1,500.1689,0,0,17.040655,17.04066,0,5,255,0,0,0,3,-127,20,0
True,10063375,10999.993,999.9994,7336.7256,4.5780354,1.8097402,7.4766636,-25.370457,-0.007060528,33.541416,-0.018300572,0.41628522,-0.010744835,0.3093935,-0.018942771,0.14990023,0.5770183,0.528709,0.6113867,0.5386338,1.317542,0.63573414,3.488391,3.8903012,140.25806,131.1003,137.81949,138.28702,0,0,0,0,0,0,0,0,0,0,0,0,-1.5754589,0.5859177,4.797444,5.0508995,2.0537739,0.86455625,5.931639,6.3754234,0.004695842,0.00095379725,0.009273414,0.0039965585,36,6,231,2,6,3158.442,295.555,-2889.7568,42.055756,747070.94,973.5035,117.20703,108.021095,122.659355,122.659355,36.749958,1,502.55276,0,0,17.132637,17.13264,0,5,255,0,0,0,3,-127,29,0
True,10063500,10999.993,999.9994,7562.62,4.157694,0.9335119,7.01688,-25.975086,-0.05070275,33.56141,-0.0047551244,0.11425704,-0.0030180567,0.3416569,-0.027239336,0.14799514,0.5022522,0.44691578,0.5750613,0.52963686,1.4052476,1.2036396,3.7340646,4.1733127,143.32431,141.0981,141.20358,142.08156,0,0,0,0,0,0,0,0,0,0,0,0,-1.3972241,0.7581782,4.708789,5.126736,1.9816548,1.4225268,6.009653,6.6105947,-0.0010955445,-0.0053819064,0.006638687,0.0033439957,36,6,231,2,6,3156.7593,295.16803,-2884.7039,42.439083,771361.4,975.0653,116.78914,107.0182,124.28627,124.28627,36.749958,1,505.86026,0,0,17.258997,17.259003,0,5,255,0,0,0,3,-127,39,0
True,10063609,10999.993,999.9994,7818.4556,2.9517555,-0.020259082,6.8621926,-25.743195,-0.10832101,34.135834,-0.01304115,-0.09844132,-0.016203547,0.3420471,-0.027546309,0.14711232,0.5252457,0.46676484,0.51468116,0.4850219,1.406211,1.1917342,4.146397,4.226513,145.13422,143.55098,146.91333,147.46011,0,0,0,0,0,0,0,0,0,0,0,0,-1.3788351,0.6712368,4.699068,4.801291,1.9694201,1.367768,6.2668853,6.3965464,0.0006855354,-0.0038443971,0.0022592396,0.00010801852,36,6,231,2,6,3155.629,294.90466,-2881.093,42.754868,783666.9,957.1535,116.54927,106.52939,125.3002,125.3002,36.749958,1,508.21317,0,0,17.348055,17.348059,0,5,255,0,0,0,3,-127,45,0
True,10063718,10999.993,999.9994,7952.6797,3.4283214,-0.28280792,6.821417,-24.509033,-0.14177626,35.52068,0.011638612,-0.35467514,0.01008494,0.31760922,-0.024339987,0.14759007,0.4271375,0.41207886,0.5131312,0.5106336,1.965903,1.0849524,4.018928,3.9844415,152.8031,144.77412,148.92944,149.39226,0,0,0,0,0,0,0,0,0,0,0,0,-1.7107489,0.36051384,4.510434,4.592976,2.6060383,1.1432812,6.0411754,6.0803947,-0.0069139283,-0.008080373,0.0021468215,0.0019656643,36,6,231,2,6,3154.3225,294.59482,-2876.6824,43.1559,750799.3,902.2667,116.5006,105.89525,126.57585,126.57585,36.749958,1,511.0762,0,0,17.45536,17.455364,0,5,255,0,0,0,3,-127,51,0
True,10063828,10999.993,999.9994,7804.5586,3.9616675,-0.17953153,8.226525,-22.1642,-0.18416965,37.653435,-0.029737273,-0.6015523,0.017891139,0.26447678,-0.016449645,0.14840372,0.37592182,0.3545412,0.46372533,0.4570191,0.6849068,1.2453856,3.2138245,3.0044584,139.18797,148.69646,146.90315,147.02785,0,0,0,0,0,0,0,0,0,0,0,0,0.45674816,1.3598174,3.8827055,3.8714137,0.82323515,1.843933,5.040245,4.9004707,-0.010881095,-0.012537236,-0.001436647,-0.0019230582,36,6,231,2,6,3153.0415,294.2776,-2872.0906,43.692867,609748.75,745.391,116.50505,105.22365,127.70824,127.70824,36.749958,1,514.0455,0,0,17.565414,17.56542,0,5,255,0,0,0,3,0,55,0
True,10063937,10999.993,999.9994,7434.43,12.576589,1.6430842,8.256819,-18.063046,-0.1421681,40.068108,-0.047382977,-0.59750175,0.021006685,0.19699574,-0.012328071,0.15329352,0.5357604,0.4065913,0.64984995,0.51049095,1.3641925,2.1331615,1.6743304,1.7651033,138.20766,149.72652,137.26213,138.88086,0,0,0,0,0,0,0,0,0,0,0,0,3.313876,3.6354725,2.7441883,3.0198426,3.5836844,4.2150965,3.2146466,3.497862,0.001500003,-0.0085054375,0.012063198,0.0019553192,36,6,231,2,6,3151.8596,293.97858,-2867.3076,43.95164,456680.53,585.7938,116.623474,106.24706,129.04529,129.04529,36.749958,1,517.1158,0,0,17.677967,17.67797,0,5,255,0,0,0,3,0,57,0
True,10064046,10999.993,999.9994,7310.094,14.981508,1.3983672,6.504866,-13.155056,-0.10680783,42.06196,-0.018249953,-0.62188846,0.0121811805,0.123296745,-0.005333116,0.15609936,0.5318415,0.37870324,0.69859415,0.49915448,1.048153,1.4602436,1.0763608,1.2110251,137.90773,146.05269,134.5046,136.78369,0,0,0,0,0,0,0,0,0,0,0,0,2.7340872,2.8511229,1.9077708,2.2061527,2.9281151,3.2033129,2.1904662,2.5166826,0.0011964422,-0.010665647,0.015598673,0.0011330731,36,6,231,2,6,3150.8113,293.71823,-2862.078,44.07125,554805.3,724.61035,118.52866,108.20168,130.03671,130.03671,36.749958,1,520.43634,0,0,17.799364,17.799366,0,5,255,0,0,0,3,0,53,0
True,10064171,10999.993,999.9994,7432.2466,13.859089,-0.9666247,6.1369066,-8.8009,-0.0818817,43.52385,0.02597377,-0.66577023,-0.0066757947,0.055836134,0.008515229,0.15608495,0.5191185,0.33248213,0.6105633,0.43347147,0.6772679,1.2985255,1.1154082,1.0735577,137.37152,148.7527,137.5027,139.04375,0,0,0,0,0,0,0,0,0,0,0,0,1.8242543,1.9648111,1.3877677,1.4704152,1.9459177,2.3551328,1.780459,1.8206172,0.00021091662,-0.014245934,0.009213686,-0.0036309958,36,6,231,2,6,3150.0955,293.52875,-2857.5576,44.40482,602427.5,774.57745,119.017,109.01927,129.48819,129.48819,36.749958,1,523.27826,0,0,17.902939,17.902943,0,5,255,0,0,0,3,0,46,0
True,10064265,10999.993,999.9994,7355.608,15.265785,-0.052653857,8.899379,-5.0830083,-0.22627777,44.775227,-0.08134506,-0.59093255,-0.0012586536,0.0018383402,0.013715342,0.15507819,0.6388242,0.37819156,0.65152174,0.43380207,0.42795926,0.9559005,0.64252055,0.70222604,137.82735,147.97311,135.19269,137.76443,0,0,0,0,0,0,0,0,0,0,0,0,1.1131881,1.2314802,0.6722554,0.7506466,1.1926177,1.5589385,0.92992467,1.0279065,0.0094833225,-0.010705282,0.012184456,-0.003607016,36,6,231,2,6,3149.6035,293.3742,-2853.6685,45.06339,832907.44,1080.4677,118.583115,109.034744,128.1157,128.1157,36.749958,1,525.7025,0,0,17.990713,17.990717,0,5,255,0,0,0,3,8,38,0
True,10064375,10999.993,999.9994,7284.1196,12.256276,0.9780418,10.937223,-0.42778516,-0.3278575,46.32972,0.0006954521,-0.5823481,-0.07554338,-0.066895224,0.018480841,0.15078107,0.5970293,0.32724643,0.8053234,0.5523277,0.22945617,0.39289546,0.3611518,0.2694915,139.27722,144.38937,134.52701,135.59648,0,0,0,0,0,0,0,0,0,0,0,0,0.2652351,0.27212787,-0.023466762,-0.020093998,0.35071325,0.47793347,0.3619134,0.2702396,0.0062458925,-0.01465149,0.023339875,0.0049897917,36,6,231,2,6,3149.161,293.22128,-2848.5781,46.332855,874751.4,1147.5095,117.20017,108.261116,125.53064,125.53064,36.749958,1,528.85144,0,0,18.102568,18.10257,0,5,255,0,0,0,3,0,24,0
True,10064484,10999.993,999.9994,7423.9224,-4.831644,1.3897278,11.169188,1.1034207,-0.34652,47.53115,-0.0573477,-0.3253425,-0.11623266,-0.11628226,0.022480438,0.13865496,0.5501514,0.44681728,0.69043726,0.56454647,0.20544086,0.13343331,0.32173255,0.21648955,143.30066,143.94756,137.8959,137.93513,0,0,0,0,0,0,0,0,0,0,0,0,-0.0974615,-0.08957332,-0.21706198,-0.19659518,0.22738667,0.1607104,0.3881079,0.29243356,0.002614729,-0.005389534,0.015007041,0.005876031,36,6,231,2,6,3148.7454,293.08154,-2843.4548,47.545216,874720.6,1125.424,115.79199,107.27476,123.12543,123.12543,36.749958,1,532.0162,0,0,18.21208,18.212084,0,5,255,0,0,0,3,0,9,0
True,10064593,10999.993,999.9994,7641.679,-10.886725,1.2774749,10.4365635,1.0586219,-0.29220533,48.614586,0.029897904,-0.22763342,-0.055847634,-0.14337777,0.023362167,0.12890476,0.45244417,0.45244417,0.6103458,0.6325213,0.4527348,0.23241793,0.3575416,0.25859642,150.27199,148.21057,141.72627,141.40652,0,0,0,0,0,0,0,0,0,0,0,0,-0.49497378,-0.45339894,-0.19976322,-0.18304785,0.6707964,0.5094985,0.40956235,0.31682584,-0.004953677,-0.004953675,0.009197913,0.010806326,36,6,231,2,6,3148.183,292.94666,-2838.2583,48.62699,874192.5,1093.4717,114.515274,106.33237,120.89368,120.89368,36.749958,1,535.24554,0,0,18.32076,18.32076,0,5,255,0,0,0,3,-127,251,0
True,10064718,10999.993,999.9994,7699.9434,-12.263965,-1.7553644,10.987582,1.2719727,-0.2980059,49.570812,0.011043843,-0.3297081,-0.025785346,-0.1718376,0.0313647,0.124031246,0.24662276,0.35531646,0.4264083,0.4800489,0.23633216,-0.0130790435,0.3478226,0.22691484,148.28812,146.49287,143.56694,143.40337,0,0,0,0,0,0,0,0,0,0,0,0,-0.9428739,-0.82467973,-0.25335944,-0.23073262,0.9720412,0.82478344,0.43031567,0.3236169,-0.0208966,-0.012477185,-0.0041432977,-0.000252679,36,6,231,2,6,3147.4678,292.78238,-2832.9136,49.58802,873841.4,1081.542,113.512505,105.558334,118.86119,118.86119,36.749958,1,538.54926,0,0,18.430565,18.430567,0,5,255,83,0,0,3,-127,237,215
True,10064828,10999.993,999.9994,6942.5464,-17.990135,0.66470623,-10.621556,1.517273,-0.0037160516,48.15462,0.05274829,-0.45365363,-0.04908625,-0.21535814,0.04084466,0.11782636,0.4706676,0.5972766,0.37422627,0.5159214,-0.75739205,-0.30874887,-0.30196047,-0.23913103,126.28158,134.98865,128.76642,131.24437,0,0,0,0,0,0,0,0,0,0,0,0,-0.9987452,-0.8599284,-0.32348484,-0.28646597,1.2534491,0.9136754,0.44251844,0.37315735,-0.0035420898,0.006265048,-0.007928122,0.0023491979,36,6,231,2,6,3146.541,292.57855,-2827.3306,48.178516,354838.47,485.84558,112.44061,104.735596,116.87217,116.87217,36.749958,1,542.04486,0,0,18.546194,18.546198,0,5,0,255,0,0,3,-127,224,129
True,10064921,10999.993,999.9994,6171.8164,-14.523883,-0.5709665,-14.594976,2.6133146,0.19613707,46.057476,0.02094301,-0.6081711,-0.0028736023,-0.27353537,0.052859426,0.11214152,0.5105293,0.6600836,0.35205534,0.5099936,-0.6379857,-0.8513822,-1.1103827,-0.87244755,124.784805,125.23856,111.42931,114.728806,0,0,0,0,0,0,0,0,0,0,0,0,-1.1488848,-1.0172431,-0.56934285,-0.5112551,1.3141392,1.3265125,1.2478385,1.0112104,-0.00045439973,0.011130076,-0.009536207,0.0019192472,36,6,231,2,6,3145.4722,292.36768,-2822.1033,46.131973,21391.885,33.193443,111.532684,103.985855,115.19732,115.19732,35.54019,1,545.35443,0,0,18.659472,18.659473,0,5,46,255,0,0,3,-127,215,129
True,10065046,10999.993,999.9994,6962.138,-17.732124,-0.40753475,-10.009985,3.888466,0.21642113,44.640854,-0.020561136,-0.68285435,-0.022027675,-0.34088752,0.061556134,0.10711612,0.49109396,0.6846971,0.3031712,0.45557553,0.24777496,0.13770738,0.4070208,0.15635549,132.96721,135.03528,129.6359,129.42494,0,0,0,0,0,0,0,0,0,0,0,0,-1.433997,-1.2162037,-0.8345158,-0.7166309,1.4552457,1.223975,0.928484,0.7334895,-0.0019598622,0.013036635,-0.013081834,-0.0020277612,36,6,231,2,6,3144.3857,292.15884,-2817.5593,44.81041,528421.7,726.44885,110.98258,103.59487,113.79452,113.79452,36.18147,1,548.2604,0,0,18.762825,18.762827,0,5,253,0,0,0,3,-127,206,0
True,10065140,10999.993,999.9994,7432.594,-18.860983,0.32664186,5.798132,5.1117477,-0.011564732,45.101635,-0.05668733,-0.66927826,-0.019873137,-0.41460258,0.06299635,0.10110806,0.45494905,0.652222,0.39544466,0.6158823,1.2056009,0.5617511,0.87414026,0.51535743,147.06485,142.39107,138.43265,137.19482,0,0,0,0,0,0,0,0,0,0,0,0,-1.7023323,-1.5094309,-0.9838092,-0.8482313,2.086003,1.6105732,1.3160553,0.9925168,-0.004759645,0.010521114,-0.006389126,0.009599481,36,6,231,2,6,3143.0715,291.92212,-2812.9778,45.390392,787288.3,1011.9956,110.71582,103.41102,112.50356,112.50356,36.63747,1,550.9674,0,0,18.868761,18.868763,0,5,255,0,0,0,3,-127,196,0
True,10065265,10999.993,999.9994,7617.302,-18.12611,-0.14848825,8.863097,6.3946695,-0.1751523,45.74082,-0.009150733,-0.5998642,-0.017713407,-0.49317726,0.06655577,0.09219868,0.37398547,0.5504401,0.4394403,0.60425,1.5951947,0.5714883,0.95582366,0.6181637,153.7082,144.0077,141.675,140.50247,0,0,0,0,0,0,0,0,0,0,0,0,-2.0334964,-1.7144986,-1.1810662,-1.0339301,2.5845218,1.8072367,1.5193801,1.2046318,-0.011031086,0.0026370902,-0.0031980686,0.008755777,36,6,231,2,6,3141.2297,291.61392,-2807.588,46.18598,691640.94,867.3808,111.05081,103.68693,111.43602,111.43602,36.733246,1,554.49634,0,0,18.993286,18.99329,0,5,255,0,0,0,3,-127,187,0
True,10065375,10999.993,999.9994,7732.375,-16.580124,-0.8302855,8.677167,7.339058,-0.17926812,46.15655,0.0262879,-0.5345278,-0.013821368,-0.5518886,0.073946215,0.08802021,0.31612122,0.45915684,0.45013535,0.60703164,1.3820565,0.7268459,1.0336932,0.7044952,152.73096,147.06564,144.18924,142.92981,0,0,0,0,0,0,0,0,0,0,0,0,-2.1090205,-1.9271674,-1.3295938,-1.1701556,2.5215168,2.0596793,1.6841441,1.3658615,-0.015513248,-0.00443371,-0.002422344,0.008957535,36,6,231,2,6,3139.445,291.32077,-2803.052,46.736725,663940.94,820.1236,111.70871,104.15723,110.75833,110.75833,36.746635,1,557.5301,0,0,19.098373,19.09838,0,5,255,0,0,0,3,-127,179,0
True,10065484,10999.993,999.9994,7782.143,-17.558834,-0.27944893,8.598041,7.866129,-0.1179021,46.520607,-0.004172316,-0.5138777,-0.020326687,-0.597558,0.079064734,0.082095616,0.28386492,0.5346193,0.38982612,0.5667284,1.5219307,0.5577398,0.9914765,0.70040315,155.5603,145.91603,145.00653,144.03072,0,0,0,0,0,0,0,0,0,0,0,0,-2.2582638,-1.8682356,-1.3746535,-1.2273178,2.7232385,1.9497123,1.6949035,1.4131078,-0.018011823,0.0014116112,-0.006796647,0.0060342923,36,6,231,2,6,3137.7922,291.0515,-2799.2725,47.181107,677732.06,831.7717,112.30538,104.734085,110.42111,110.42111,36.74912,1,560.10315,0,0,19.186392,19.1864,0,5,255,0,0,0,3,-127,173,0
True,10065578,10999.993,999.9994,7819.42,-20.77225,1.1879348,9.558664,8.256687,-0.15467513,46.91372,-0.046027113,-0.51391643,-0.011870902,-0.6483972,0.079336606,0.077152714,0.37888858,0.5860023,0.412754,0.66104627,1.3407061,0.6915958,0.97570825,0.6015314,154.6359,148.85614,145.995,144.2662,0,0,0,0,0,0,0,0,0,0,0,0,-2.2608469,-2.035972,-1.4246709,-1.1872348,2.6284826,2.1502297,1.7267581,1.3309269,-0.01065129,0.0053917356,-0.0051336586,0.012875281,36,6,231,2,6,3135.8008,290.74292,-2795.1758,47.635002,705442.7,861.4933,113.01705,105.4722,110.11862,110.11862,36.749798,1,562.53217,0,0,19.282698,19.282701,0,5,255,0,0,0,3,-127,167,0
True,10065687,10999.993,999.9994,7933.3276,-16.927021,0.12304896,7.0823255,8.463644,-0.10000676,47.399956,0.0148827145,-0.4153877,0.00261402,-0.7008603,0.08336282,0.07221085,0.30465898,0.55155313,0.43372926,0.64284366,1.5646842,0.6102716,0.9929503,0.7097392,159.1573,148.86923,147.82141,146.63625,0,0,0,0,0,0,0,0,0,0,0,0,-2.3643997,-2.03252,-1.4494395,-1.2812049,2.8352463,2.1221614,1.7569363,1.4646555,-0.016401116,0.0027233046,-0.0036122985,0.0115550235,36,6,231,2,6,3133.1338,290.3572,-2790.2979,48.149757,664436.7,800.1134,113.85016,106.36322,109.73781,109.73781,36.749958,1,565.985,0,0,19.399036,19.39904,0,5,255,0,0,0,3,-127,161,0
True,10065812,10999.993,999.9994,8013.7217,-19.227129,0.014586851,8.414545,8.557041,-0.12372708,47.892544,5.2619493E-05,-0.3772985,0.006095544,-0.7457414,0.086749166,0.06834443,0.29088968,0.5501767,0.40535486,0.6136612,1.5739452,0.6522209,0.96768194,0.70495445,160.8604,150.94226,149.20404,148.05368,0,0,0,0,0,0,0,0,0,0,0,0,-2.4136581,-2.04528,-1.4233805,-1.2637852,2.8815012,2.1467562,1.7211683,1.4471053,-0.017467685,0.002616685,-0.0056703277,0.009438384,36,6,231,2,6,3130.2766,289.94998,-2785.6038,48.65114,661126.44,787.8917,114.70445,107.18415,109.43279,109.43279,36.749958,1,569.4114,0,0,19.512878,19.512882,0,5,255,0,0,0,3,-127,155,0
True,10065906,10999.993,999.9994,8045.144,-18.700233,0.21465653,7.672027,8.469059,-0.1688717,48.347366,-0.023826275,-0.35992303,0.0065772794,-0.7818538,0.08748948,0.06577745,0.30696845,0.5865594,0.42419466,0.6432951,1.4675622,0.6621151,0.8897266,0.6408323,161.10995,152.50539,149.70688,148.5507,0,0,0,0,0,0,0,0,0,0,0,0,-2.3731098,-2.0340533,-1.3581487,-1.2012665,2.790231,2.1391048,1.6236322,1.3615092,-0.016222224,0.005434891,-0.004303854,0.011587765,36,6,231,2,6,3127.6963,289.58963,-2781.7383,49.08382,698017.44,828.4129,115.399826,107.88275,109.17879,109.17879,36.749958,1,572.314,0,0,19.608282,19.608286,0,5,255,0,0,0,3,-127,150,0
True,10066000,10999.993,999.9994,8111.6235,-20.609556,1.1732353,8.67358,7.80513,-0.08004749,49.000942,9.2461705E-06,-0.28613746,0.031024117,-0.81680393,0.08897103,0.06603737,0.29657567,0.5906843,0.39895177,0.6775871,1.309451,0.62197626,0.88039875,0.6091946,161.64548,153.69891,151.26889,149.69551,0,0,0,0,0,0,0,0,0,0,0,0,-2.1966455,-2.0023074,-1.2804668,-1.1041548,2.5573254,2.0966854,1.5539296,1.2610614,-0.017027248,0.0057544075,-0.006134752,0.014075007,36,6,231,2,6,3124.4832,289.1639,-2777.3726,49.618732,744222.5,876.5964,116.0777,108.58873,108.81017,108.81017,36.749958,1,575.192,0,0,19.718454,19.718458,0,5,255,0,0,0,3,-127,146,0
