IsRaceOn,TimestampMS,EngineMaxRpm,EngineIdleRpm,CurrentEngineRpm,AccelerationX,AccelerationY,AccelerationZ,VelocityX,VelocityY,VelocityZ,AngularVelocityX,AngularVelocityY,AngularVelocityZ,Yaw,Pitch,Roll,NormalizedSuspensionTravelFrontLeft,NormalizedSuspensionTravelFrontRight,NormalizedSuspensionTravelRearLeft,NormalizedSuspensionTravelRearRight,TireSlipRatioFrontLeft,TireSlipRatioFrontRight,TireSlipRatioRearLeft,TireSlipRatioRearRight,WheelRotationSpeedFrontLeft,WheelRotationSpeedFrontRight,WheelRotationSpeedRearLeft,WheelRotationSpeedRearRight,WheelOnRumbleStripFrontLeft,WheelOnRumbleStripFrontRight,WheelOnRumbleStripRearLeft,WheelOnRumbleStripRearRight,WheelInPuddleDepthFrontLeft,WheelInPuddleDepthFrontRight,WheelInPuddleDepthRearLeft,WheelInPuddleDepthRearRight,SurfaceRumbleFrontLeft,SurfaceRumbleFrontRight,SurfaceRumbleRearLeft,SurfaceRumbleRearRight,TireSlipAngleFrontLeft,TireSlipAngleFrontRight,TireSlipAngleRearLeft,TireSlipAngleRearRight,TireCombinedSlipFrontLeft,TireCombinedSlipFrontRight,TireCombinedSlipRearLeft,TireCombinedSlipRearRight,SuspensionTravelMetersFrontLeft,SuspensionTravelMetersFrontRight,SuspensionTravelMetersRearLeft,SuspensionTravelMetersRearRight,CarOrdinal,CarClass,CarPerformanceIndex,DrivetrainType,NumCylinders,PositionX,PositionY,PositionZ,Speed,Power,Torque,TireTempFl,TireTempFr,TireTempRl,TireTempRr,Boost,Fuel,Distance,BestLapTime,LastLapTime,CurrentLapTime,CurrentRaceTime,Lap,RacePosition,Accelerator,Brake,Clutch,Handbrake,Gear,Steer,NormalDrivingLine,NormalAiBrakeDifference
True,11437437,10999.993,999.9994,7206.6104,-0.20374356,-5.703573,-2.7414403,0.034947634,0.34446007,49.77491,0.21171352,0.0011945514,0.061657283,0.05226659,0.007977878,-0.00896946,0.26386598,0.28931728,0.3239592,0.35223398,-0.06916786,-0.09950209,-0.09088093,-0.12854217,143.232,141.61433,134.05524,132.01482,0,0,0,0,0,0,0,0,0.59999996,0.59999996,0.59999996,0.59999996,-0.012813592,0.005006388,-0.0033723852,-0.00021723333,0.07034473,0.09962795,0.090943485,0.12854235,-0.01956094,-0.017589483,-0.011574052,-0.00952325,36,6,231,2,6,913.87787,191.48705,-117.10075,49.77611,-186486.14,-246.73111,167.25656,167.26608,175.84354,175.84354,-11.002369,1,166.83743,0,0,0.6963163,47.24233,0,9,0,0,0,0,3,0,127,0
True,11451484,10999.993,999.9994,1739.9612,-0.07055712,0.0015004119,-0.10492994,0.0013941973,-0.0003243498,-0.0078718625,0.00012692926,-1.2322624E-05,-0.004239533,2.0856807,-0.01241838,-0.00017761951,0.51469123,0.5169837,0.4832669,0.4850603,0.00037123606,0.00035903454,0.00031975814,0.00031002963,-0.023339747,-0.0232512,-0.022234764,-0.022152046,0,0,0,0,0,0,0,0,0,0,0,0,0.00030667186,0.00030954616,0.00015153254,0.00015324829,0.00048152244,0.00047405128,0.00035384655,0.00034583727,-0.00013201497,4.5556575E-05,-1.9274652E-05,0.000110805035,36,6,231,2,6,159.89935,161.78351,-1275.0597,0.008000951,46782.246,262.17587,94.14821,94.14784,94.25513,94.25513,-11.0250025,1,-51.66548,0,0,0.09374799,0.09374799,0,8,255,0,0,0,1,0,58,0
True,11451593,10999.993,999.9994,4443.7065,-0.013882581,-0.002658426,-0.08049869,0.0027617854,-0.0006871503,-0.01759161,3.947108E-05,-2.4335986E-06,-0.008632196,2.085681,-0.012406377,-0.0009643735,0.5100114,0.5239122,0.47817394,0.49148986,0.00024860076,0.0003361796,0.00033242512,0.00030087229,-0.052292313,-0.05211532,-0.049271494,-0.04920717,0,0,0,0,0,0,0,0,0,0,0,0,0.000109384724,8.5653766E-05,4.4419914E-05,1.9930641E-05,0.00027160146,0.00034691973,0.00033537977,0.0003015317,-0.0004945174,0.0005822405,-0.0003886707,0.00057714805,36,6,231,2,6,159.89793,161.78342,-1275.0592,0.017820338,269793.78,589.3624,94.09646,94.0961,94.203255,94.203255,-5.861764,1,-51.66642,0,0,0.20996551,0.20996553,0,8,255,0,0,0,1,0,58,0
True,11451703,10999.993,999.9994,7290.3574,0.06658342,0.0089096585,0.1452088,0.0015476043,-4.1192627E-05,0.010948726,-0.0040705088,-0.00042574535,-0.0050967745,2.0856798,-0.012427618,-0.0016702127,0.5043736,0.53003436,0.47303268,0.49819055,0.0495798,0.061611876,0.18336923,0.16750704,0.14846095,0.18178135,0.45338857,0.4126948,0,0,0,0,0,0,0,0,0,0,0,0,0.00013497335,0.000103241735,-0.0006895828,-0.0007241306,0.04957998,0.06161196,0.18337053,0.1675086,-0.00093121827,0.0010564625,-0.0007615723,0.0010631569,36,6,231,2,6,159.89612,161.78336,-1275.0585,0.011057639,447292.88,589.3624,94.052505,94.05217,94.15922,94.15922,17.033878,1,-51.667683,0,0,0.3088594,0.3088594,0,8,255,0,0,0,1,0,58,0
True,11451812,10999.993,999.9994,7419.1504,0.017026901,-0.27818286,10.627683,0.0042855144,-0.034300603,1.4645165,-0.044807933,-0.026551519,-0.012256294,2.084478,-0.01717656,-0.0027397147,0.4339792,0.47660142,0.5216065,0.5682682,30.845037,25.529095,34.193085,32.760853,54.587624,47.19856,64.37593,63.66111,0,0,0,0,0,0,0,0,0,0,0,0,0.29711375,0.2844805,-0.18707414,-0.17441374,30.846468,25.53068,34.193596,32.761314,-0.0063839704,-0.0030824523,0.0027615428,0.0061459728,36,6,231,2,6,159.97148,161.78291,-1275.1014,1.4649245,833532.8,1079.1387,97.97642,97.51798,100.441956,100.441956,33.4809,1,-51.611607,0,0,0.42628732,0.42628738,0,8,255,0,0,0,1,0,58,0
True,11451921,10999.993,999.9994,7360.155,-0.0145635605,0.40154564,13.817071,0.0072420835,0.015051179,2.970568,-0.010374106,-0.053467695,-0.005097561,2.0797124,-0.020133708,-0.0012557853,0.39766797,0.45771977,0.6215136,0.6654948,33.380363,28.680168,29.291336,29.861706,61.138527,55.38669,61.00389,61.648174,0,0,0,0,0,0,0,0,0,0,0,0,0.2844927,0.26956746,-0.20240234,-0.19528905,33.381577,28.681437,29.292034,29.862345,-0.009196638,-0.0045450237,0.010007925,0.013197936,36,6,231,2,6,160.17593,161.7866,-1275.2167,2.970615,0,0,106.4233,105.9453,110.727264,110.727264,35.953606,1,-51.459805,0,0,0.5316933,0.5316933,0,8,255,0,0,0,1,0,58,0
True,11452046,10999.993,999.9994,7371.4106,-0.06296396,-0.1434057,13.298634,0.024832368,-0.021517387,4.5427847,-0.00041503366,-0.0729243,0.018426888,2.0727713,-0.01961542,-0.00043063518,0.37162775,0.42074996,0.56597716,0.63455594,29.163818,25.997286,28.021906,26.1519,60.840492,56.22732,61.864147,60.87315,0,0,0,0,0,0,0,0,0,0,0,0,0.191547,0.19161355,-0.22957493,-0.21068649,29.164448,25.997993,28.022848,26.152748,-0.011213714,-0.0074087083,0.0059798025,0.010953903,36,6,231,2,6,160.57028,161.79433,-1275.4369,4.5429034,507168.16,657.8407,115.29582,115.01593,121.556335,121.556335,36.599754,1,-51.167683,0,0,0.6519233,0.6519233,0,8,255,0,0,0,1,0,58,0
True,11452140,10999.993,999.9994,7458.085,-0.1123333,-0.37669587,12.981466,0.05376172,-0.058111526,5.8695326,0.007823352,-0.07234546,-0.0018211056,2.0653849,-0.019224755,-0.00027574602,0.3520353,0.3940097,0.56381035,0.5900526,29.096464,24.52354,26.097786,24.196136,64.20313,57.445145,62.266613,61.014,0,0,0,0,0,0,0,0,0,0,0,0,0.10703262,0.10972889,-0.21060999,-0.1928088,29.096663,24.523787,26.098637,24.196905,-0.012731343,-0.009480008,0.00582264,0.007726025,36,6,231,2,6,161.0371,161.80098,-1275.6952,5.8700666,465613.38,596.6124,122.330414,122.15231,130.29828,130.29828,36.7184,1,-50.82267,0,0,0.7538072,0.7538071,0,8,255,0,0,0,1,0,58,0
True,11452265,10999.993,999.9994,8622.911,0.007992268,-0.1963193,13.451755,0.10897279,-0.067610756,7.5053034,0.004993646,-0.089449,-0.009108697,2.054861,-0.019367797,0.0006013206,0.34983814,0.38993216,0.5794842,0.5830088,26.736502,22.18073,22.239943,22.395403,74.51562,67.83049,70.75435,71.30361,0,0,0,0,0,0,0,0,0,0,0,0,0.04909939,0.052359752,-0.24707317,-0.24438344,26.736546,22.180794,22.241314,22.396736,-0.012901537,-0.009795854,0.0069594868,0.007215131,36,6,231,2,6,161.74147,161.80984,-1276.081,7.5063987,648362.6,719.3561,130.29744,130.13795,139.80804,139.80804,36.744907,1,-50.303314,0,0,0.8733158,0.8733158,0,8,255,0,0,0,1,0,58,0
True,11452375,10999.993,999.9994,9430.11,-0.08376074,-0.0018961653,13.851386,0.17396688,-0.06986931,8.960746,-0.006056801,-0.10518779,0.012785448,2.0445783,-0.019264756,0.0016772444,0.37120256,0.40806916,0.57286376,0.6048498,21.1449,19.744442,19.591648,19.911543,77.15073,75.30966,77.626205,78.63171,0,0,0,0,0,0,0,0,0,0,0,0,-0.015400117,-0.009667249,-0.2940057,-0.29585782,21.144905,19.744444,19.593853,19.91374,-0.01124665,-0.008390963,0.006479297,0.008799281,36,6,231,2,6,162.50754,161.8188,-1276.4955,8.9627075,695723.2,705.40936,137.07555,136.89142,147.77786,147.77786,36.748993,1,-49.74018,0,0,0.97908527,0.97908527,0,8,255,0,0,0,1,0,59,0
True,11452484,10999.993,999.9994,9389.569,-0.13936043,-0.13123018,13.529252,0.24790716,-0.08814278,10.417355,0.0014300756,-0.099955544,0.020904204,2.0339937,-0.018761532,0.0022133768,0.37547618,0.40596825,0.5641451,0.6056778,16.694305,15.53863,16.201065,14.95124,77.5402,75.348564,78.112404,77.169334,0,0,0,0,0,0,0,0,0,0,0,0,-0.098572664,-0.0926713,-0.32152188,-0.30218738,16.694595,15.538906,16.204254,14.954293,-0.010915615,-0.008553699,0.0058469176,0.008859336,36,6,231,2,6,163.43988,161.8297,-1276.9928,10.420675,515363.03,523.909,143.54889,143.43726,155.8356,155.8356,36.74981,1,-49.05702,0,0,1.0880512,1.088051,0,8,255,0,0,0,1,0,59,0
True,11452609,10999.993,999.9994,8023.7275,-0.28641987,-0.29135138,13.432227,0.3269348,-0.11127536,12.127281,0.0042214734,-0.08356369,-8.9456094E-05,2.0223577,-0.018531634,0.002866407,0.3730924,0.37860507,0.57068115,0.5859442,9.543271,8.774368,9.417089,8.634597,66.34827,64.358635,66.956505,65.721115,0,0,0,0,0,0,0,0,0,0,0,0,-0.16931495,-0.165483,-0.3181149,-0.29696295,9.544773,8.7759285,9.422461,8.639702,-0.011100261,-0.01067325,0.006320987,0.007428035,36,6,231,2,6,164.69873,161.84465,-1277.6525,12.132197,7274.635,8.607948,150.43137,150.33562,164.23941,164.23941,36.41503,1,-48.13839,0,0,1.2137145,1.2137142,0,8,255,0,0,0,1,0,60,0
True,11452718,10999.993,999.9994,5649.6304,-1.4701781,-0.124112815,14.350637,0.28708792,-0.12162887,13.893895,-0.005081988,-0.09115539,-0.02655213,2.0117977,-0.019257236,0.002961377,0.37434354,0.37310454,0.5872178,0.5779957,0.24519588,0.17358115,2.6430318,1.9705577,41.847137,42.066734,48.99393,46.706665,0,0,0,0,0,0,0,0,0,0,0,0,-0.10999084,-0.10140823,-0.24973166,-0.24545959,0.26873595,0.20103244,2.6548038,1.9857866,-0.011003348,-0.011099322,0.007520411,0.0068515204,36,6,231,2,6,166.10513,161.86143,-1278.3695,13.897393,0,0,153.19543,153.68222,171.13416,171.13416,30.795368,1,-47.118725,0,0,1.3347034,1.3347032,0,8,255,0,0,0,1,0,62,0
True,11452843,10999.993,999.9994,5870.1553,-1.2391071,-0.098884635,16.222507,0.15443182,-0.16026029,15.839309,-0.016790856,0.015461459,0.011974907,2.0049398,-0.020919751,0.001962672,0.3653045,0.3701556,0.58234364,0.6122509,0.46927455,0.7519766,0.7734609,0.7755457,48.966854,50.145092,48.052494,48.035088,0,0,0,0,0,0,0,0,0,0,0,0,0.40641287,0.43800357,-0.08105053,-0.07687795,0.6207979,0.870239,0.77769595,0.77934676,-0.011703513,-0.011327748,0.007166881,0.009336095,36,6,231,2,6,167.70972,161.87993,-1279.1403,15.840871,535016,872.6766,149.78435,150.20412,168.92905,168.92905,34.93101,1,-45.970108,0,0,1.4544754,1.454475,0,8,255,0,0,0,1,127,65,0
True,11452937,10999.993,999.9994,6382.879,2.1138372,-0.039256483,15.829133,0.25373507,-0.17864248,17.226532,-0.0068324637,0.20931895,0.015631361,2.0149333,-0.022016244,0.0030325854,0.37458327,0.34552515,0.60846436,0.6100851,0.654828,1.4537241,0.55744255,0.8029281,54.488163,56.84689,51.63606,51.84261,0,0,0,0,0,0,0,0,0,0,0,0,1.0088425,1.1662376,-0.015748922,-0.011858459,1.2027314,1.8637124,0.557665,0.80301565,-0.010984778,-0.01323562,0.009061448,0.009179007,36,6,231,2,6,169.01707,161.89632,-1279.7732,17.229326,542194.7,813.07404,147.58418,148.53831,165.91904,165.91904,36.27403,1,-45.032673,0,0,1.5421629,1.5421625,0,8,255,0,0,0,1,127,67,0
True,11453062,10999.993,999.9994,7059.1396,1.7090068,-0.15399462,15.807774,-0.033123016,-0.19674805,19.226501,0.001783326,0.20988218,-0.00417116,2.0505311,-0.022211876,0.0029077372,0.37046912,0.34521788,0.6161808,0.5967319,0.46335968,0.43819544,0.5994145,0.80816513,59.88193,58.66944,57.814148,57.91418,0,0,0,0,0,0,0,0,0,0,0,0,-0.17073473,-0.16750354,0.12008092,0.12824084,0.4938143,0.46911904,0.61132413,0.8182766,-0.011303463,-0.013259421,0.009621132,0.00821048,36,6,231,2,6,171.10219,161.92436,-1280.8381,19.227537,606779,822.43384,144.8183,147.09482,161.73088,161.73088,36.68334,1,-43.519886,0,0,1.6706194,1.6706191,0,8,255,0,0,0,1,0,69,0
True,11453171,10999.993,999.9994,7656.717,1.9597988,-0.1433262,16.403091,-0.09236622,-0.21221438,20.965202,-0.0013602301,0.077931434,0.0030123403,2.064584,-0.02224649,0.002806446,0.373866,0.357329,0.6165816,0.59653413,0.38407612,0.45653644,0.5853776,0.69362015,64.4996,64.47837,62.593567,62.82174,0,0,0,0,0,0,0,0,0,0,0,0,-0.019501992,-0.013659956,0.073551536,0.079465896,0.3845709,0.45674074,0.5899803,0.69815737,-0.011040339,-0.012321292,0.009650204,0.008196138,36,6,231,2,6,172.99379,161.9501,-1281.8324,20.966476,664200.06,829.83734,142.36125,144.51286,158.56949,158.56949,36.736874,1,-42.138554,0,0,1.7768526,1.7768524,0,8,255,0,0,0,1,0,71,0
True,11453281,10999.993,999.9994,8233.804,1.4088006,-0.200557,16.12916,-0.047675133,-0.23064768,22.681889,0.0066019874,0.026213827,-0.0041403286,2.0696158,-0.022138549,0.0026711724,0.37857103,0.35621405,0.6184986,0.60219586,0.37983003,0.45732844,0.5483298,0.5792113,69.590935,69.90061,67.29415,67.35113,0,0,0,0,0,0,0,0,0,0,0,0,0.0002087561,0.0071278242,0.028937802,0.033341378,0.3798301,0.457384,0.5490928,0.58017015,-0.010675888,-0.012407661,0.009789247,0.008606788,36,6,231,2,6,175.03278,161.97809,-1282.9296,22.683113,696955.75,809.6841,140.06049,142.11076,155.62282,155.62282,36.747406,1,-40.64146,0,0,1.882837,1.8828369,0,8,255,0,0,0,1,0,72,0
True,11453375,10999.993,999.9994,8815.573,0.6782942,-0.4086713,15.567934,-0.016189575,-0.23663642,24.364693,0.023514122,0.006424251,-0.011052964,2.0711627,-0.02041886,0.0017460957,0.3801168,0.34979373,0.61483383,0.6045349,0.3691828,0.41507712,0.5321754,0.53470874,74.60616,74.84458,72.06974,72.06009,0,0,0,0,0,0,0,0,0,0,0,0,0.00071473134,0.007949866,0.0080752,0.0120753255,0.36918348,0.41515324,0.5322367,0.53484505,-0.010556153,-0.012904977,0.009523436,0.008776441,36,6,231,2,6,177.27057,162.00722,-1284.148,24.365847,715123.4,775.8706,137.86893,139.82281,152.80508,152.80508,36.749504,1,-38.993885,0,0,1.9910281,1.991028,0,8,255,0,0,0,1,0,73,0
True,11453500,10999.993,999.9994,9360.088,0.29855776,-0.47653624,15.027765,-0.0030698776,-0.236222,25.928648,0.010823874,0.0019441589,-0.008412527,2.0715234,-0.018203843,0.00059666863,0.38802126,0.3705827,0.6070535,0.5935869,0.33007923,0.30318317,0.5172247,0.52742213,79.119644,78.930565,76.57765,76.632095,0,0,0,0,0,0,0,0,0,0,0,0,-0.001664698,0.0036765675,0.0008421181,0.0048202933,0.33008343,0.30320546,0.5172254,0.5274442,-0.009943872,-0.011294663,0.008959122,0.007982373,36,6,231,2,6,179.57542,162.0329,-1285.4078,25.929724,744215.9,760.3423,135.89485,137.74603,150.26747,150.26747,36.749893,1,-37.29535,0,0,2.0953994,2.0953996,0,8,255,0,0,0,1,0,74,0
True,11453593,10999.993,999.9994,8512.66,-0.27791977,0.16545746,5.625077,-0.031337738,-0.19525541,26.601864,0.018844906,-0.018669132,-0.0038740532,2.0713873,-0.017480046,0.0001910855,0.4503728,0.441808,0.592808,0.5820692,0.0013459369,-0.00025359195,0.0012016573,-0.00018475935,78.752945,78.83601,74.36229,74.438156,0,0,0,0,0,0,0,0,0,0,0,0,-0.089577,-0.08620123,0.0018628117,0.0052646785,0.08958711,0.0862016,0.0022167652,0.0052679195,-0.0051141214,-0.0057775527,0.0079258755,0.007146977,36,6,231,2,6,182.11133,162.0599,-1286.795,26.6026,-223728.81,-250,133.90663,135.64938,147.67447,147.67447,4.82928,1,-35.426266,0,0,2.2045743,2.2045746,0,8,255,0,0,0,1,-101,74,0
True,11453718,10999.993,999.9994,6316.1,-0.98908806,0.814268,9.730892,0.03703022,-0.10134649,27.506105,-0.040447935,-0.07997803,-0.0039905645,2.060939,-0.017981568,-0.00039348382,0.4905642,0.48832804,0.56610614,0.5657947,0.21839163,0.22762325,0.37605596,0.3315588,83.02797,83.47626,79.958984,80.026146,0,0,0,0,0,0,0,0,0,0,0,0,0.035453517,0.03670329,-0.04110091,-0.038789988,0.22125065,0.2305634,0.37829533,0.33382013,-0.0020008963,-0.0021741074,0.0059891567,0.00596657,36,6,231,2,6,184.9411,162.0992,-1288.3179,27.506317,642196.06,972.45654,131.90773,133.53986,145.07344,145.07344,19.478703,1,-33.3485,0,0,2.324297,2.3242974,0,8,255,0,0,0,2,0,76,0
True,11453828,10999.993,999.9994,6702.3525,-1.0476127,-0.30876726,13.095615,0.058099747,-0.1980395,28.943026,0.029153798,-0.026247172,-0.0015563127,2.055868,-0.019767169,-0.0007631094,0.35995486,0.36340556,0.558132,0.5563801,0.5831477,0.36662066,0.42673707,0.40055567,90.00842,88.64234,84.65269,84.56446,0,0,0,0,0,0,0,0,0,0,0,0,-0.00892158,-0.0024475176,-0.027969835,-0.025822788,0.58321595,0.36662883,0.42765272,0.40138716,-0.012117897,-0.011850605,0.005410783,0.005283717,36,6,231,2,6,187.56186,162.14056,-1289.7129,28.943762,705871.44,1006.9941,130.31747,131.84235,142.99866,142.99866,33.290054,1,-31.42821,0,0,2.4294572,2.4294574,0,8,255,0,0,0,2,0,78,0
True,11453937,10999.993,999.9994,7100.5405,0.48335934,-1.2416537,13.683191,0.055745125,-0.2472564,30.45064,0.0043493826,0.06125461,-0.0013235012,2.059074,-0.016222198,0.0005011004,0.35604215,0.35740855,0.5151455,0.50483763,0.3195552,0.30751345,0.5218351,0.57791805,93.02312,92.56152,90.10726,90.1966,0,0,0,0,0,0,0,0,0,0,0,0,-0.056773044,-0.0525898,0.0008970677,0.0037968198,0.32455924,0.3119779,0.52183586,0.5779305,-0.012420975,-0.012315134,0.00229292,0.0015452765,36,6,231,2,6,190.44112,162.17458,-1291.2449,30.451693,754966.2,1016.3933,128.8106,130.2504,141.01768,141.01768,36.105114,1,-29.319696,0,0,2.539242,2.5392423,0,8,255,0,0,0,2,0,80,0
True,11454062,10999.993,999.9994,7414.659,0.4261942,0.027755171,14.37957,-0.041132927,-0.29782283,32.106804,-0.031568307,0.023818677,0.00480331,2.063575,-0.01835566,0.0007935716,0.4216439,0.4042913,0.5764003,0.5728233,0.2682167,0.293615,0.40533364,0.4210375,97.58603,97.66555,93.92627,93.94482,0,0,0,0,0,0,0,0,0,0,0,0,-0.0018717187,0.0024335366,0.016231664,0.0197959,0.26822323,0.2936251,0.4056585,0.4215026,-0.0073394645,-0.008683596,0.0067358054,0.0064763613,36,6,231,2,6,193.50677,162.20287,-1292.8818,32.10821,843651.2,1087.7708,127.35163,128.70909,139.17023,139.17023,36.632168,1,-27.072924,0,0,2.6502957,2.650296,0,8,255,0,0,0,2,0,82,0
True,11454171,10999.993,999.9994,7796.1104,-0.71897364,0.57970554,15.4964695,-0.09072113,-0.30973852,33.778816,-0.0059975674,-0.04964741,-0.016510509,2.0637734,-0.020974575,0.00032618828,0.4524813,0.42309612,0.643906,0.6256746,0.37305477,0.3010628,0.41117817,0.3776893,103.34896,102.97322,98.658325,98.58982,0,0,0,0,0,0,0,0,0,0,0,0,-0.26974812,-0.25384834,0.008667188,0.012530021,0.4603628,0.39379916,0.41126952,0.37789708,-0.004950797,-0.007226972,0.011632074,0.01030973,36,6,231,2,6,196.80382,162.24268,-1294.6492,33.780357,867597.06,1063.9315,125.97382,127.25586,137.40909,137.40909,36.72927,1,-24.654308,0,0,2.7637591,2.7637599,0,8,255,0,0,0,2,-127,84,0
True,11454281,10999.993,999.9994,8151.5635,-1.0761552,-0.13446565,13.28422,0.09991264,-0.29512873,35.352783,0.008797925,-0.07890496,-0.020194445,2.052738,-0.019911408,-0.0013767716,0.4879587,0.43658584,0.6501014,0.6368704,0.254978,0.2746602,0.43054166,0.38556156,107.01853,107.578186,103.29893,103.26053,0,0,0,0,0,0,0,0,0,0,0,0,0.0077302973,0.013917801,-0.04727716,-0.042341605,0.25509515,0.2750126,0.4331296,0.38787952,-0.0022027213,-0.0061820615,0.012081437,0.011121772,36,6,231,2,6,200.26794,162.28885,-1296.4818,35.354156,856008.6,1003.82635,124.741,125.93969,135.78949,135.78949,36.74634,1,-22.12081,0,0,2.8770602,2.877061,0,8,255,0,0,0,2,0,86,0
True,11454390,10999.993,999.9994,8474.35,-0.43421364,-0.044501446,13.536202,0.18353844,-0.31152976,36.839844,0.011409825,0.020620903,0.009878981,2.0483296,-0.020042406,-0.0026930775,0.48990417,0.5076978,0.69358945,0.67516327,0.32359108,0.2937064,0.3544918,0.37458768,112.3904,112.04756,107.133224,107.228226,0,0,0,0,0,0,0,0,0,0,0,0,0.21396683,0.22531575,-0.040999793,-0.03684199,0.38793427,0.3701765,0.35685492,0.3763951,-0.0020520221,-0.00067372434,0.015235677,0.013899203,36,6,231,2,6,203.7837,162.33434,-1298.3241,36.841618,866703.9,977.6248,123.59568,124.7229,134.3352,134.3352,36.749317,1,-19.55521,0,0,2.98696,2.9869606,0,8,255,0,0,0,2,119,89,0
True,11454500,10999.993,999.9994,8799.308,-0.06786966,-0.6802027,12.967907,-0.026109695,-0.29024285,38.24029,0.011752069,0.045816973,0.016321693,2.0544817,-0.017262049,-0.0010621513,0.4613157,0.48471078,0.66592574,0.67560583,0.22589432,0.24017665,0.38930058,0.40073597,115.76221,115.67282,111.55949,111.47383,0,0,0,0,0,0,0,0,0,0,0,0,-0.017499238,-0.012232871,0.014087915,0.018718904,0.22657111,0.24048798,0.3895554,0.40117294,-0.0042664874,-0.002454305,0.013229195,0.013931304,36,6,231,2,6,207.3977,162.37785,-1300.2202,38.2414,861207,935.3626,122.561584,123.62723,132.98846,132.98846,36.749866,1,-16.91715,0,0,3.0956192,3.0956202,0,8,255,0,0,0,2,0,92,0
True,11454625,10999.993,999.9994,9083.921,0.74465513,0.9787639,12.633788,-0.044555664,-0.31453085,39.838814,-0.031710356,0.011574397,-0.0013311021,2.0578172,-0.02088457,-0.00015857625,0.527641,0.51467246,0.6736231,0.6729238,0.19845635,0.21069779,0.26709592,0.27595732,120.29918,120.356606,114.86434,114.89568,0,0,0,0,0,0,0,0,0,0,0,0,0.004301152,0.00967296,0.010600588,0.014719738,0.19850294,0.21091971,0.2673062,0.27634963,0.00087107345,-0.00013347343,0.013787493,0.01373677,36,6,231,2,6,211.75157,162.43097,-1302.5112,39.840076,855187.1,899.6653,121.42119,122.42374,131.5527,131.5527,36.749954,1,-11.821493,0,0,3.2215652,3.2215664,0,8,255,0,0,0,2,0,95,0
True,11454734,10999.993,999.9994,9419.112,2.306696,-0.15175334,11.519718,0.048440933,-0.2856122,41.0781,0.040227264,0.09868141,0.012271935,2.0616953,-0.01983419,0.00014812495,0.4656355,0.44240493,0.6707615,0.6506731,0.24142422,0.3622904,0.30960298,0.3610793,124.55805,125.32845,119.01973,119.11981,0,0,0,0,0,0,0,0,0,0,0,0,0.35722476,0.38534945,0.009778331,0.01397219,0.43115565,0.5289126,0.30975735,0.36134952,-0.0039318744,-0.0057313163,0.013579939,0.012122899,36,6,231,2,6,215.61758,162.49051,-1304.5645,41.079113,846686.94,859.1892,120.53568,121.490326,130.40051,130.40051,36.749954,1,-8.99152,0,0,3.3296993,3.3297005,0,8,255,0,0,0,2,127,98,0
True,11454859,10999.993,999.9994,8527.15,4.610711,-0.31715074,3.6709096,-0.2550869,-0.22902715,41.53092,0.01746051,0.17699485,0.0008768183,2.0826497,-0.016889473,0.0012400242,0.5044386,0.45233127,0.5943007,0.5525866,0.0023558864,-0.0004019459,0.00019827145,0.0011414991,123.50029,122.568436,116.570175,115.7607,0,0,0,0,0,0,0,0,0,0,0,0,-0.009496689,-0.007743971,0.0927651,0.09865317,0.009784544,0.0077543953,0.09276531,0.09865977,-0.0009261854,-0.004962418,0.008034144,0.005008571,36,6,231,2,6,219.65222,162.54384,-1306.7676,41.532333,-224006.6,-250,119.75357,120.65686,129.24477,129.24477,4.3238153,1,-6.018968,0,0,3.4405625,3.4405637,0,8,255,0,0,0,2,0,100,0
True,11454968,10999.993,999.9994,6452.599,4.7768793,0.4670305,5.1860347,-0.26552963,-0.095738664,41.853138,-0.0009491076,0.06844593,0.0072135865,2.0933316,-0.015507135,0.0016371302,0.5540996,0.5176599,0.5755518,0.52377653,0.1264733,0.14572558,0.1880594,0.22390726,125.62115,125.46398,119.63962,119.70386,0,0,0,0,0,0,0,0,0,0,0,0,0.036221202,0.03904815,0.06993461,0.07350537,0.13155785,0.15086651,0.20064195,0.23566395,0.0029205568,9.793602E-05,0.0066742636,0.00291894,36,6,231,2,6,223.1138,162.59348,-1308.71,41.85409,530583.44,785.23114,119.02574,119.87979,128.30168,128.30168,10.435498,1,-3.451964,0,0,3.5360603,3.5360615,0,8,255,0,0,0,3,0,100,0
True,11455078,10999.993,999.9994,6691.847,4.0044737,-0.5121014,9.524826,-0.08369446,-0.19843088,42.976402,-0.009484281,0.0743178,0.01116153,2.0989227,-0.016142376,0.0024851146,0.5174392,0.4873631,0.5757023,0.53999007,0.1903975,0.2830748,0.2761067,0.31955463,129.76877,130.39621,124.07531,124.20703,0,0,0,0,0,0,0,0,0,0,0,0,0.28014597,0.29934183,0.031812754,0.03482819,0.33872256,0.41199133,0.27793336,0.32144699,8.084066E-05,-0.0022488516,0.0066851787,0.0040949285,36,6,231,2,6,227.53748,162.65698,-1311.2493,42.976944,814731.4,1163.1865,118.22035,119.02765,127.26474,127.26474,32.575443,1,-0.15337107,0,0,3.6563952,3.6563962,0,7,255,0,0,0,3,127,99,0
True,11455171,10999.993,999.9994,6870.221,3.587721,-0.76671517,10.943373,-0.23054695,-0.2738986,44.085136,0.0067957323,0.11683074,-0.0074794614,2.111951,-0.016186532,0.0026315292,0.52090096,0.47786218,0.61860126,0.5790372,0.20129424,0.24538472,0.28964183,0.334503,133.35025,133.22224,127.53822,127.510284,0,0,0,0,0,0,0,0,0,0,0,0,0.007628795,0.013047774,0.069614105,0.07414714,0.20143875,0.24573137,0.2978901,0.3426223,0.00034898892,-0.0029847957,0.00979669,0.006927062,36,6,231,2,6,231.30312,162.70392,-1313.4656,44.086586,859873.06,1195.6195,117.6582,118.44043,126.4975,126.4975,35.851097,1,2.6706276,0,0,3.7567606,3.7567616,0,7,255,0,0,0,3,0,98,0
True,11455296,10999.993,999.9994,7063.1396,3.1996112,0.84277445,10.979566,-0.17623901,-0.31252939,45.574837,-0.033934925,0.027414614,0.008619236,2.1205957,-0.019146185,0.002788597,0.58777916,0.5622906,0.70689964,0.6725257,0.15471452,0.17207684,0.23708388,0.25739586,137.11783,137.17174,131.03156,131.11377,0,0,0,0,0,0,0,0,0,0,0,0,0.026564695,0.031469073,0.03632621,0.04111581,0.15697856,0.17493068,0.2398507,0.26065904,0.005529374,0.0035550296,0.016201079,0.013707899,36,6,231,2,6,236.36493,162.76605,-1316.5085,45.576252,872004.9,1179.6396,116.920975,117.66101,125.589584,125.589584,36.630318,1,6.4888268,0,0,3.8884537,3.888455,0,7,255,0,0,0,3,0,94,0
True,11455390,10999.993,999.9994,7214.2637,2.0896664,1.1507587,10.966801,-0.07805061,-0.30550957,46.543316,-0.008749307,0.0047341934,-0.002851578,2.1218257,-0.021453662,0.0031064337,0.57659763,0.5474575,0.72426367,0.6962082,0.17300132,0.20173034,0.24345268,0.24770856,140.16618,140.48177,133.79651,133.82019,0,0,0,0,0,0,0,0,0,0,0,0,0.01311043,0.019168533,0.013715645,0.017744377,0.17349738,0.202639,0.24383873,0.24834329,0.004663253,0.0024060607,0.017460514,0.015425615,36,6,231,2,6,239.8712,162.82274,-1318.6486,46.54438,874159.5,1157.8271,116.45816,117.16967,125.02135,125.02135,36.71939,1,9.14401,0,0,3.977611,3.9776125,0,7,255,0,0,0,3,0,91,0
True,11455500,10999.993,999.9994,7411.545,0.7638831,-0.4179847,10.550146,-0.014976501,-0.29862192,47.697083,0.018567221,-0.001995552,-0.02431577,2.1218426,-0.0200461,0.0013756559,0.5075023,0.45959595,0.65970093,0.63524544,0.19675936,0.20404252,0.28179756,0.28437623,143.87552,143.95438,137.51796,137.55537,0,0,0,0,0,0,0,0,0,0,0,0,0.0032646211,0.008419351,0.0022179997,0.005730446,0.19678643,0.20421615,0.2818063,0.28443396,-0.0006888695,-0.004399698,0.012777701,0.011003915,36,6,231,2,6,244.28188,162.89851,-1321.3541,47.698017,874656.4,1127.6117,115.931496,116.613205,124.36955,124.36955,36.7443,1,12.491662,0,0,4.087398,4.087399,0,7,255,0,0,0,3,0,87,0
True,11455625,10999.993,999.9994,7571.362,-0.25376797,-0.27866855,10.204621,-0.020355225,-0.31503356,48.85742,-0.015062047,-0.021950368,-0.008533763,2.1213148,-0.019453133,-0.00043552273,0.4688089,0.46124318,0.60212857,0.57707566,0.17198527,0.14533369,0.2587512,0.25041732,147.0397,146.81262,140.53473,140.52179,0,0,0,0,0,0,0,0,0,0,0,0,-0.099062495,-0.09352088,-0.0017626781,0.0012024334,0.19847496,0.17282371,0.2587572,0.2504202,-0.003686063,-0.0042721014,0.008601908,0.0067847893,36,6,231,2,6,248.87148,162.9689,-1324.173,48.858444,874402.6,1103.3674,115.445694,116.09474,123.766914,123.766914,36.748962,1,15.972642,0,0,4.198935,4.198936,0,7,255,0,0,0,3,-101,82,0
True,11455734,10999.993,999.9994,7727.17,-4.8212132,1.012576,9.909184,0.10574913,-0.31627807,49.942055,-0.00055537815,-0.21518393,-0.009542467,2.1072226,-0.022232426,-0.0017241909,0.47813317,0.51389706,0.59501,0.6371376,0.21066707,0.16064474,0.2570339,0.1935801,150.18524,150.79079,143.16873,143.36914,0,0,0,0,0,0,0,0,0,0,0,0,0.024310322,0.02867549,-0.058044143,-0.05255812,0.2120651,0.16318399,0.2635063,0.20058817,-0.0029638037,-0.00019353256,0.00808559,0.011141155,36,6,231,2,6,253.50545,163.04747,-1326.9802,49.943165,873806.4,1080.391,115.070465,115.6955,123.22976,123.22976,36.749805,1,19.474987,0,0,4.3085794,4.3085804,0,7,255,0,0,0,3,0,78,0
True,11455828,10999.993,999.9994,7879.626,-4.537939,-0.18127918,10.215155,0.41923332,-0.30821615,50.854454,-0.0031586858,-0.0971647,-0.028077178,2.0931468,-0.021255618,-0.0033652983,0.45804933,0.4740206,0.5730535,0.6102717,0.19303678,0.1368341,0.27342972,0.23267655,153.11473,152.89505,146.24937,146.19588,0,0,0,0,0,0,0,0,0,0,0,0,-0.05365794,-0.04796419,-0.091273,-0.08556387,0.20035562,0.14499702,0.2882613,0.24791037,-0.004519498,-0.0032823645,0.006493058,0.0091925375,36,6,231,2,6,257.60733,163.12184,-1329.4102,50.85712,873115.3,1058.3524,114.725876,115.3227,122.80878,122.80878,36.749958,1,22.557741,0,0,4.403164,4.4031644,0,7,255,0,0,0,3,0,76,0
True,11455953,10999.993,999.9994,8051.1084,-3.6999784,-0.46786577,9.721061,0.22850418,-0.31183672,51.97017,0.020798946,-0.016298251,0.014868524,2.0873523,-0.020783197,-0.0033678736,0.42728215,0.4956785,0.5588594,0.6055116,0.18854247,0.18244843,0.26142034,0.23649736,156.59366,156.59369,149.43515,149.22902,0,0,0,0,0,0,0,0,0,0,0,0,-0.043943636,-0.03885336,-0.044759244,-0.040773995,0.19359572,0.18653959,0.2652244,0.2399865,-0.0069027226,-0.0016047452,0.0054635443,0.008847281,36,6,231,2,6,262.85486,163.21428,-1332.4502,51.971607,871921.3,1034.5095,114.33245,114.89594,122.328354,122.328354,36.749958,1,26.478079,0,0,4.5210876,4.521088,0,7,255,0,0,0,3,0,75,0
True,11456062,10999.993,999.9994,8237.416,0.40879107,-1.0646073,8.960168,0.14785767,-0.31895232,53.138645,0.033662885,0.08841416,0.026757775,2.0887656,-0.018059725,-0.002070285,0.41880938,0.44262937,0.54982096,0.57815945,0.18894824,0.23953673,0.23489246,0.26980615,160.29529,160.52745,152.70027,152.76624,0,0,0,0,0,0,0,0,0,0,0,0,0.36234757,0.38538566,-0.011681389,-0.00923361,0.40865293,0.453762,0.23518273,0.2699641,-0.007559024,-0.0057139285,0.0048079714,0.0068634003,36,6,231,2,6,268.68463,163.30482,-1335.7822,53.13981,869742.3,1008.9864,113.961,114.494,121.85981,121.85981,36.749958,1,30.820673,0,0,4.648814,4.648815,0,7,255,0,0,0,3,127,74,0
True,11456156,10999.993,999.9994,8335.071,2.820492,-1.06144,9.071409,-0.2515335,-0.33023512,53.90931,-0.0036157793,0.16327207,0.025000647,2.102782,-0.01642405,0.00056176493,0.42884815,0.43733793,0.5417884,0.54155517,0.12952948,0.14562744,0.21400192,0.25477532,162.10934,161.4907,154.77539,154.60063,0,0,0,0,0,0,0,0,0,0,0,0,-0.0069775213,-0.0046565845,0.06482904,0.06893924,0.12971728,0.14570187,0.22360596,0.26393765,-0.0067814235,-0.0061238054,0.004225362,0.0042084455,36,6,231,2,6,272.63748,163.35445,-1338.0704,53.910904,868529,995.36914,113.79918,114.315025,121.574295,121.574295,36.749958,1,33.774284,0,0,4.7341437,4.7341447,0,7,255,0,0,0,3,0,73,0
True,11456265,10999.993,999.9994,8486.17,4.200161,-0.38690573,8.674435,-0.3545437,-0.31199586,54.83028,0.06529594,0.0465472,-0.0002179183,2.11339,-0.015986491,0.0023526293,0.45581543,0.42091173,0.59181625,0.5676456,0.18813454,0.29421952,0.21154831,0.23664999,165.31476,166.50908,157.10995,157.21228,0,0,0,0,0,0,0,0,0,0,0,0,0.05050573,0.058753747,0.063124016,0.067296945,0.19479588,0.30002856,0.22076532,0.24603271,-0.004692536,-0.0073961783,0.007853944,0.0061008185,36,6,231,2,6,277.61212,163.41661,-1340.9976,54.832317,866497.25,975.7378,113.52585,114.019,121.26573,121.26573,36.749958,1,37.50513,0,0,4.840264,4.8402653,0,7,255,0,0,0,3,0,71,0
True,11456390,10999.993,999.9994,8627.581,2.8588583,-1.2414085,8.854727,-0.17412758,-0.34423235,55.9352,0.0062968563,0.0070993383,0.0019639977,2.1164284,-0.012140656,0.0014867795,0.44939756,0.42091134,0.53594697,0.49526516,0.14884053,0.1606524,0.1919867,0.20163338,168.05014,168.19057,159.89725,159.97527,0,0,0,0,0,0,0,0,0,0,0,0,0.028045107,0.032499775,0.026921215,0.029144164,0.15145968,0.16390677,0.19386502,0.20372874,-0.005189663,-0.007396208,0.0038016774,0.0008509755,36,6,231,2,6,283.61536,163.46712,-1344.5928,55.936535,864224.6,956.88763,113.239624,113.71906,120.93048,120.93048,36.749958,1,42.028877,0,0,4.9666033,4.966605,0,7,255,0,0,0,3,0,67,0
True,11456500,10999.993,999.9994,8779.981,1.751828,-1.7544515,8.413931,-0.025766373,-0.3287323,56.792576,0.021243878,0.018697318,-0.0040389095,2.116666,-0.008640214,0.0012280092,0.441256,0.4067338,0.53732437,0.509638,0.1410568,0.16683277,0.22786607,0.24003828,170.50575,170.783,162.84402,162.92914,0,0,0,0,0,0,0,0,0,0,0,0,0.138321,0.14562175,0.0064587374,0.008886723,0.19755942,0.22144721,0.22795758,0.24020271,-0.0058203135,-0.008494398,0.0039015785,0.001893457,36,6,231,2,6,288.59195,163.4937,-1347.6025,56.79353,861495.3,937.2482,113.025505,113.48817,120.680954,120.680954,36.749958,1,45.78827,0,0,5.0697737,5.069775,0,7,255,0,0,0,3,70,63,0
True,11456593,10999.993,999.9994,8876.755,2.4363718,0.44611287,8.443939,-0.18375778,-0.32784548,57.69267,-0.03325477,0.06775074,0.0035600364,2.124924,-0.009708965,0.0013238735,0.53051436,0.5031325,0.5798151,0.54447025,0.10608687,0.110064745,0.16468816,0.1818764,172.8945,172.6062,164.64777,164.58965,0,0,0,0,0,0,0,0,0,0,0,0,0.0105983615,0.013001134,0.03555347,0.03830967,0.106614955,0.11082995,0.16848215,0.18586731,0.0010936446,-0.001027355,0.006983485,0.004419878,36,6,231,2,6,293.83664,163.51141,-1350.8094,57.69389,859600.1,924.9958,112.85837,113.30127,120.45811,120.45811,36.749958,1,49.760803,0,0,5.1771398,5.177141,0,7,255,0,0,0,3,0,58,0
True,11456703,10999.993,999.9994,9031.967,2.2431552,-0.07181573,7.921547,-0.1705265,-0.28503293,58.525303,0.03638996,0.016885636,0.019116338,2.128927,-0.009454455,0.0030484549,0.48960295,0.4900041,0.6134542,0.5923814,0.14306104,0.16474497,0.20521392,0.2152382,175.7096,175.93529,167.45471,167.51054,0,0,0,0,0,0,0,0,0,0,0,0,0.021781825,0.026612708,0.026161492,0.029102022,0.14470974,0.16688062,0.20687479,0.2171967,-0.0020753555,-0.0020442829,0.009423371,0.007894933,36,6,231,2,6,299.08102,163.54272,-1354.0488,58.526245,856317.75,905.7927,112.67788,113.10304,120.267746,120.267746,36.749958,1,53.744072,0,0,5.283192,5.2831926,0,7,255,0,0,0,3,0,52,0
True,11456828,10999.993,999.9994,9138.559,1.3856881,-0.44279784,7.8893957,-0.077150345,-0.32259822,59.38308,-0.002131972,0.0012146649,-0.012996776,2.1297991,-0.00862601,0.0031984411,0.50187737,0.46723482,0.56656367,0.55616933,0.122450404,0.13345553,0.17455883,0.17459491,177.99586,178.14354,169.41673,169.40489,0,0,0,0,0,0,0,0,0,0,0,0,0.012028602,0.015788244,0.011003811,0.013111698,0.12303979,0.13438618,0.17490532,0.17508654,-0.0011245795,-0.0038079936,0.0060223415,0.0052684285,36,6,231,2,6,304.47134,163.56421,-1357.4028,59.384007,853813,892.47675,112.52063,112.92769,120.090546,120.090546,36.749958,1,57.845974,0,0,5.3908615,5.3908625,0,7,255,0,0,0,3,0,46,0
True,11456921,10999.993,999.9994,9261.701,0.59104943,0.0057942104,7.7168636,-0.010772705,-0.3200659,60.221085,-0.0266908,-0.0023360848,-0.018619748,2.129633,-0.008589171,0.0011927867,0.52349573,0.488368,0.5746281,0.5518053,0.10501944,0.10759842,0.17135216,0.17103004,180.25613,180.30402,171.74338,171.75012,0,0,0,0,0,0,0,0,0,0,0,0,0.0023405994,0.0046738014,0.0009795979,0.0031638886,0.10504552,0.10769988,0.17135496,0.17105931,0.0005499795,-0.0021710135,0.0066072643,0.0049519017,36,6,231,2,6,310.00098,163.584,-1360.8567,60.221928,850723.75,877.3122,112.37808,112.76958,119.93619,119.93619,36.749958,1,62.057743,0,0,5.499865,5.499866,0,7,255,0,0,0,3,0,40,0
True,11457046,10999.993,999.9994,9419.952,0.04934621,-0.57634246,7.3819237,0.0060920715,-0.30901307,61.14773,0.012753985,-0.0013235481,0.0089186,2.1293817,-0.008179277,0.0005385945,0.4851588,0.48517063,0.57597405,0.5617778,0.12927991,0.13125588,0.19347885,0.19188671,183.35854,183.40019,174.68396,174.66809,0,0,0,0,0,0,0,0,0,0,0,0,-0.0030696,0.0007028363,-0.0026987751,-0.00037829624,0.12931634,0.13125776,0.19349767,0.19188708,-0.0024195965,-0.002418682,0.0067048892,0.0056752153,36,6,231,2,6,316.4682,163.61388,-1364.8999,61.14851,846480.7,858.2948,112.23149,112.60785,119.788345,119.788345,36.749958,1,66.98519,0,0,5.6255207,5.6255217,0,7,255,0,0,0,3,0,32,0
True,11457156,10999.993,999.9994,9096.197,0.0015759468,-1.2237914,4.8635073,0.0030612946,-0.29947504,61.67537,0.006668192,-0.00041673155,0.0038929775,2.1293051,-0.0057697627,0.0011546193,0.48955768,0.495369,0.5520986,0.55033225,0.00085451215,0.00085998076,0.00078825257,0.0007792427,182.72493,182.72714,172.52911,172.53085,0,0,0,0,0,0,0,0,0,0,0,0,-0.0014787365,0.00033921536,-0.0018221611,0.0004309195,0.0017078796,0.00092446414,0.0019853497,0.0008904554,-0.0020788591,-0.0016287193,0.004973173,0.0048450567,36,6,231,2,6,321.94287,163.62613,-1368.3218,61.676098,-238977.3,-250,112.12057,112.484085,119.66336,119.66336,16.870705,1,71.156105,0,0,5.730484,5.7304845,0,7,255,0,0,0,3,0,25,0
True,11457265,10999.993,999.9994,6951.812,-2.9917016,-1.5490469,-0.06164825,0.013395309,-0.10723652,61.61357,0.07385881,-0.13976325,-0.045923166,2.1236904,-0.0009197329,-0.000849659,0.51946044,0.5080398,0.54292285,0.5572204,0.19515225,0.1266377,0.33520845,0.27186573,184.9685,184.26573,176.81792,176.30742,0,0,0,0,0,0,0,0,0,0,0,0,-0.40553826,-0.37534413,-0.022896303,-0.02047414,0.45005077,0.3961317,0.3359895,0.27263558,0.0002374053,-0.00064724125,0.0043076463,0.005344663,36,6,231,2,6,327.63193,163.63293,-1371.8619,61.613663,308822.2,422.07593,112.0285,112.381935,119.45969,119.45969,2.3756533,1,75.48213,0,0,5.8392572,5.8392577,0,7,255,0,0,0,4,-127,19,0
True,11457359,10999.993,999.9994,7042.729,-7.7409854,-3.5583441,4.3163404,0.7817173,-0.20312607,62.11721,0.04313576,-0.33455226,0.02326632,2.096919,0.0043329517,-0.002572231,0.36345232,0.49582916,0.40065515,0.46424234,0.5185131,0.20555188,0.29717067,0.19155128,190.7056,187.75044,178.30675,178.20302,0,0,0,0,0,0,0,0,0,0,0,0,-1.0678234,-0.9346497,-0.16969906,-0.156869,1.1870563,0.9569857,0.3422107,0.24758792,-0.011846984,-0.001593072,-0.006011203,-0.0013991483,36,6,231,2,6,333.28394,163.60419,-1375.2987,62.122456,785795.6,1066.0316,112.12976,112.51897,119.361755,119.361755,29.804562,1,79.7575,0,0,5.9461884,5.94619,0,7,255,0,0,0,4,-127,14,0
True,11457468,10999.993,999.9994,7239.9746,-9.116725,-5.71524,5.868449,1.9912415,-0.3010656,62.700706,0.14172944,-0.2961836,0.041068833,2.0615058,0.012738175,0.00042128333,0.16184309,0.3518328,0.3152616,0.43166268,1.0399054,0.53064865,0.47446615,0.31438276,200.01016,194.07248,182.99915,182.0835,0,0,0,0,0,0,0,0,0,0,0,0,-1.2854563,-1.1970422,-0.35523304,-0.32551178,1.653421,1.3093884,0.59271294,0.4525422,-0.027463634,-0.012747032,-0.0122049,-0.0037621893,36,6,231,2,6,338.96558,163.52455,-1378.6278,62.733044,857162.2,1131.8453,112.769615,112.82172,119.35837,119.35837,35.36541,1,84.01576,0,0,6.0516624,6.0516644,0,7,255,0,0,0,4,-97,12,0
True,11457578,10999.993,999.9994,7356.5225,-8.073608,-8.081028,6.372859,3.0106926,-0.40289393,63.25117,0.09918143,-0.23063225,0.01093274,2.0330555,0.026132056,0.0029798574,0.070231065,0.21720147,0.18444443,0.29434898,0.9532291,0.26385504,0.62149996,0.43800205,202.01541,192.34465,187.0402,185.62326,0,0,0,0,0,0,0,0,0,0,0,0,-0.47402096,-0.42835742,-0.5005585,-0.4568873,1.0645852,0.5031,0.79801065,0.6329232,-0.0345599,-0.023175573,-0.021693228,-0.0137217175,36,6,231,2,6,344.73566,163.35472,-1381.9088,63.324066,779892.06,1012.23267,113.416374,113.06059,119.45919,119.45919,36.47362,1,88.303604,0,0,6.157053,6.157055,0,7,255,0,0,0,4,0,12,0
True,11457687,10999.993,999.9994,7382.4272,-12.064915,-6.607429,7.240692,2.6934185,-0.41342995,63.954124,0.07207666,-0.10464284,0.06159941,2.016921,0.03645736,0.0058910185,0.043385204,0.3303984,0.14126861,0.39481807,0.748773,0.16355513,0.5417072,0.37631053,201.29277,192.65646,188.07094,186.41022,0,0,0,0,0,0,0,0,0,0,0,0,-0.43589935,-0.3953196,-0.4297118,-0.3858307,0.8664117,0.42781758,0.69144696,0.5389573,-0.03663938,-0.014407339,-0.024824822,-0.0064345747,36,6,231,2,6,350.4846,163.10764,-1385.0405,64.012146,856685.94,1107.8613,113.61459,113.13773,119.57297,119.57297,36.69265,1,92.5396,0,0,6.2599516,6.2599535,0,7,255,0,0,0,4,0,14,0
True,11457796,10999.993,999.9994,7311.6235,-14.948541,-3.531475,8.371348,1.5588837,-0.4189993,64.7009,0.0391747,0.018403383,0.08127567,2.0131838,0.040463638,0.011202237,0.15676124,0.47530752,0.22536013,0.53017974,0.31384775,0.12595986,0.25471175,0.18863761,197.03676,193.97226,185.7723,184.88188,0,0,0,0,0,0,0,0,0,0,0,0,-0.27749118,-0.2536982,-0.22496031,-0.20061858,0.4189293,0.28324664,0.33983117,0.27537605,-0.027857274,-0.0031826776,-0.018725563,0.003383372,36,6,231,2,6,355.41827,162.85759,-1387.5901,64.72103,874598.8,1142.3939,113.68676,113.210594,119.646034,119.646034,36.734673,1,96.13202,0,0,6.346295,6.346297,0,7,255,0,0,0,4,0,19,0
True,11457906,10999.993,999.9994,7437.882,-2.5530045,-4.9283743,7.287066,0.2455349,-0.42468068,65.55946,0.09175237,0.27445582,0.12593693,2.0309465,0.048555188,0.026144782,0.14710172,0.40030098,0.29795173,0.47953302,0.28351998,0.40698805,0.22168867,0.28708872,199.51709,200.0896,188.33559,188.20074,0,0,0,0,0,0,0,0,0,0,0,0,0.5901805,0.6338375,-0.0016465521,-1.8115108E-05,0.6547493,0.75325245,0.22169478,0.28708872,-0.0286055,-0.008992687,-0.013460407,-0.0002900958,36,6,231,2,6,362.24667,162.47217,-1391.0012,65.561295,875003.9,1123.756,113.71762,113.27046,119.66108,119.66108,36.74745,1,101.062996,0,0,6.463592,6.463593,0,7,255,0,0,0,4,49,28,0
True,11458015,10999.993,999.9994,7478.364,5.5249653,-3.288016,8.194827,-1.0647106,-0.46008414,66.50281,0.009399451,0.15984325,0.16919133,2.0604033,0.054327514,0.044362575,0.19451971,0.38121864,0.28662714,0.45884854,0.10283902,0.15324026,0.1482577,0.20468625,199.38918,199.39597,189.6433,189.78397,0,0,0,0,0,0,0,0,0,0,0,0,0.10966277,0.11727962,0.14341766,0.15703325,0.1503389,0.19296913,0.20627402,0.2579843,-0.024932504,-0.010470805,-0.014281793,-0.0017903671,36,6,231,2,6,369.38773,161.99431,-1394.6078,66.512924,874656.8,1116.9069,113.70761,113.29863,119.70392,119.70392,36.749607,1,106.23921,0,0,6.5849433,6.584944,0,7,255,0,0,0,4,0,37,0
True,11458140,10999.993,999.9994,7543.828,8.07801,1.6092551,7.135494,-0.6612644,-0.355816,67.33504,-0.014922943,0.027225858,0.102935314,2.0700116,0.051826175,0.06125984,0.43563664,0.49172443,0.51890963,0.53421324,0.08520519,0.116027154,0.11666713,0.14104061,201.27243,201.6471,191.18362,191.38438,0,0,0,0,0,0,0,0,0,0,0,0,0.08396592,0.090846576,0.07603494,0.08301852,0.11962525,0.14736146,0.13925707,0.16365978,-0.0062555857,-0.0019110255,0.0025659353,0.0036759265,36,6,231,2,6,376.0466,161.5397,-1398.095,67.33922,874490.94,1107.334,113.711044,113.301254,119.81795,119.81795,36.749928,1,111.10587,0,0,6.6974435,6.6974435,0,7,255,0,0,0,4,0,44,0
True,11458234,10999.993,999.9994,7638.799,4.117833,0.42190903,7.197139,-0.24856758,-0.3234855,68.11438,-0.051383577,-0.009261948,0.054064676,2.0699534,0.05184353,0.068321146,0.44185185,0.4517538,0.4601337,0.45107374,0.07740442,0.08201455,0.1472911,0.15380451,203.39256,203.51292,193.78831,193.901,0,0,0,0,0,0,0,0,0,0,0,0,0.034807134,0.034173664,0.026797356,0.028544754,0.084870376,0.08884946,0.14970893,0.15643091,-0.005774157,-0.0050071515,-0.0016971529,-0.002354283,36,6,231,2,6,382.50305,161.11945,-1401.5676,68.11561,874181.4,1093.0068,113.69261,113.29208,119.88853,119.88853,36.749954,1,115.87965,0,0,6.805859,6.8058596,0,7,255,0,0,0,4,0,47,0
True,11458359,10999.993,999.9994,7693.2197,-8.657888,8.576474,6.7421517,-0.3515091,-0.27758276,68.84276,-0.28598973,-0.25088084,0.022261448,2.055423,0.039128497,0.06907593,0.8250005,0.8304777,0.5991846,0.70022964,0.060371548,0.04011873,0.10072207,0.07774817,204.63234,205.65327,194.85754,195.45862,0,0,0,0,0,0,0,0,0,0,0,0,-0.38400492,-0.36551479,0.005523217,0.0054010097,0.38872162,0.3677099,0.10087339,0.07793555,0.02390454,0.024328806,0.008388374,0.015717298,36,6,231,2,6,389.1031,160.73,-1405.0912,68.844215,873940.25,1084.8837,113.80077,113.480286,119.97841,119.97841,36.749954,1,120.724174,0,0,6.9152236,6.915224,0,7,255,0,0,0,4,-127,50,0
True,11458453,10999.993,999.9994,7562.7285,-19.354656,11.531909,-13.429702,0.3593464,-0.14418375,67.17246,-0.08455262,-0.5427694,-0.011078929,2.0104823,0.02256275,0.07004237,0.727255,0.799326,0.8074675,0.836053,0.25475264,0.1610886,0.19416444,0.09907991,201.94218,203.1699,191.24063,191.95358,0,0,0,0,0,0,0,0,0,0,0,0,-0.9880332,-0.8771905,-0.119094945,-0.10198346,1.0203472,0.8918591,0.22777936,0.14218809,0.01633317,0.021915793,0.023495391,0.025568731,36,6,231,2,6,395.6735,160.50046,-1408.3558,67.17358,874435.06,1104.3156,114.175934,113.917274,120.17056,120.17056,36.749954,1,125.46788,0,0,7.0235615,7.023562,0,7,255,0,0,0,4,-127,55,0
True,11458578,10999.993,999.9994,7646.2993,-24.930067,4.307431,3.8853273,2.579321,-0.23906767,67.683266,-0.028910343,-0.638246,-0.10597484,1.9401085,0.02052479,0.059040457,0.58384883,0.6535309,0.652114,0.7528319,0.47365528,0.16079544,0.2728852,0.12165902,205.84091,204.08064,193.53886,193.7963,0,0,0,0,0,0,0,0,0,0,0,0,-1.3752853,-1.1266057,-0.42139652,-0.35650888,1.4545648,1.1380227,0.5020372,0.37669548,0.005224932,0.010622501,0.012227409,0.019532599,36,6,231,2,6,402.57193,160.32744,-1411.495,67.73283,874160.4,1092.146,114.92043,114.589455,120.333084,120.333084,36.749958,1,130.46928,0,0,7.13594,7.1359406,0,7,255,0,0,0,4,-127,62,0
True,11458687,10999.993,999.9994,7688.995,-25.139027,3.6409247,3.7344017,4.207714,-0.1708709,67.74173,-0.113052085,-0.62409323,-0.09282352,1.8686527,0.01813523,0.047227673,0.53442824,0.7904394,0.51489794,0.7034186,0.45432058,0.15074432,0.32500148,0.14413193,206.00969,204.24638,195.09988,194.94699,0,0,0,0,0,0,0,0,0,0,0,0,-1.4943681,-1.1940726,-0.62270564,-0.50484973,1.5619037,1.2035502,0.702416,0.5250212,0.0013968125,0.021227438,0.002274964,0.015948597,36,6,231,2,6,409.74075,160.16968,-1414.3945,67.87249,873952.94,1085.2396,116.98042,116.69246,120.61653,120.61653,36.749958,1,135.4654,0,0,7.249908,7.2499084,0,7,255,0,0,0,4,-80,73,0
True,11458781,10999.993,999.9994,7676.0596,-34.204685,6.3978777,2.8560953,4.35785,-0.118532956,67.662094,-0.035955682,-0.46146953,-0.030557854,1.8156754,0.010494597,0.041723017,0.49624878,0.8101961,0.5289239,0.8247455,0.3289811,0.10390704,0.32590443,0.14550437,205.48926,204.08443,195.04126,194.34724,0,0,0,0,0,0,0,0,0,0,0,0,-0.57059276,-0.49076244,-0.64715075,-0.51042646,0.6586385,0.50164175,0.7245811,0.53076047,-0.0015605688,0.022757795,0.003292285,0.024748579,36,6,231,2,6,415.69122,160.09114,-1416.4554,67.80238,874034.7,1087.704,117.59206,117.462006,120.95137,120.95137,36.749958,1,139.51729,0,0,7.342817,7.3428173,0,7,255,0,0,0,4,0,84,0
True,11458906,10999.993,999.9994,7674.3413,-34.171974,4.2400656,4.77754,3.239725,-0.15938103,68.05351,-0.075026095,-0.1931026,0.012078917,1.7784121,0.006413512,0.039943356,0.36576,0.8148796,0.4236739,0.8006116,0.19464132,0.069942944,0.25375947,0.14344019,204.79684,203.70357,195.15611,194.42087,0,0,0,0,0,0,0,0,0,0,0,0,-0.44224876,-0.36572337,-0.45805094,-0.37519744,0.4831865,0.37235144,0.5236454,0.40168172,-0.0116682295,0.02312057,-0.0043416247,0.022998124,36,6,231,2,6,423.1619,160.02216,-1418.6228,68.13077,874027.4,1087.4706,117.63623,117.67355,121.26315,121.26315,36.749958,1,144.74731,0,0,7.45729,7.457291,0,7,255,0,0,0,4,0,101,0
True,11459000,10999.993,999.9994,7688.531,-26.503992,6.334219,6.235715,1.2262096,-0.30049846,68.63906,-0.07317741,0.011783246,0.15498707,1.7693386,-0.004471928,0.047302373,0.39464855,0.83226216,0.43477005,0.84089494,0.14720055,0.082337216,0.12942499,0.1021374,206.31113,205.07903,195.01328,194.68456,0,0,0,0,0,0,0,0,0,0,0,0,-0.21791251,-0.18332632,-0.14994411,-0.13204266,0.26297122,0.20096755,0.1980759,0.16693506,-0.009430525,0.024467032,-0.0035368092,0.025919922,36,6,231,2,6,429.6509,160.00253,-1420.1654,68.65067,874168.9,1085.9835,117.63048,117.81685,121.45343,121.45343,36.749958,1,149.03348,0,0,7.5548553,7.554857,0,7,255,0,0,0,4,0,119,0
True,11459140,10999.993,999.9994,7783.8545,-5.860178,5.5024786,6.4091487,-0.110118866,-0.32887948,69.544586,-0.24119984,0.03779639,0.3372365,1.7767855,-0.011164781,0.081091106,0.46006674,0.86561656,0.2539875,0.77564937,0.038914222,0.060065314,0.08907754,0.1338097,207.2961,207.4868,197.25769,197.75133,0,0,0,0,0,0,0,0,0.120000005,0,0.120000005,0,-0.004561361,-0.009884716,0.0037980725,0.0044092904,0.03918064,0.060873225,0.08915847,0.13388233,-0.004363233,0.027050659,-0.016649187,0.021187581,36,6,231,2,6,439.28143,160.01662,-1422.2043,69.54545,873020.9,1070.651,117.46324,117.820175,121.59946,121.59946,36.749958,1,155.67526,0,0,7.6973376,7.697339,0,7,255,0,0,0,4,0,127,0
True,11459250,10999.993,999.9994,7906.823,-0.33236066,5.809349,4.6770296,-0.13101196,-0.54665226,70.18532,-0.15347074,8.338969E-05,0.049481336,1.7764536,-0.029185018,0.09866706,0.7890858,0.673068,0.7939475,0.61795384,0.11360811,0.22781642,0.21703054,0.13499387,209.95192,212.91037,200.4996,200.32092,0,0,0,0,0,0,0,0,0.120000005,0.120000005,0.120000005,0.120000005,0.013739849,0.032003034,0.0063374243,0.006203809,0.11443595,0.23005329,0.21712305,0.13513634,0.021122586,0.012135845,0.022514768,0.009749733,36,6,231,2,6,447.2309,160.15201,-1423.8525,70.18758,872472.44,1049.1033,117.500786,117.80011,121.78992,121.78992,36.749958,1,160.91829,0,0,7.8135304,7.813532,0,7,255,0,0,0,4,0,127,0
True,11459359,10999.993,999.9994,8009.932,2.2149167,5.771771,5.085194,0.08891201,-0.3220229,70.7538,-0.12830207,0.049159236,-0.23537621,1.7763684,-0.036421347,0.07999907,0.60317266,0.6738354,0.6828033,0.49698675,0.086282365,0.15892948,0.11033809,0.42852074,210.96051,211.81804,201.1872,206.43257,0,0,0,0,0,0,0,0,0.59999996,0.120000005,0.59999996,0.120000005,0.20213348,0.23972672,0.00858579,0.010259201,0.2197785,0.28762385,0.11067163,0.42864352,0.0067217536,0.012195289,0.01445334,0.0009758435,36,6,231,2,6,454.81973,160.368,-1425.4307,70.75459,871912,1039.418,117.11002,117.80208,121.77273,121.77273,36.749958,1,166.29817,0,0,7.923558,7.923559,0,7,255,0,0,0,4,115,127,0
True,11459468,10999.993,999.9994,8055.304,10.859826,10.217923,4.8949795,0.23538685,-0.22913337,71.24528,-0.219626,0.2542892,0.0681396,1.7912154,-0.053970467,0.06625643,0.815293,0.8082778,0.5678505,0.79733735,0.0697116,0.07174398,0.17290403,0.35262573,213.29346,211.8007,204.97424,204.97668,0,0,0,0,0,0,0,0,0.59999996,0.120000005,0.59999996,0.120000005,0.7841763,0.63086814,-0.00916717,0.0048089144,0.7872688,0.6349345,0.17314687,0.3526585,0.023152601,0.022609197,0.006115675,0.022760637,36,6,231,2,6,462.49744,160.70093,-1427.101,71.246025,871676.4,1035.4153,116.696335,117.96246,121.451645,121.451645,36.749958,1,171.38219,0,0,8.034304,8.034305,0,7,255,0,0,0,4,127,127,0
True,11459578,10999.993,999.9994,8126.747,8.982209,11.6510725,5.2756243,-1.1540871,-0.08245587,71.759735,-0.2191338,0.25693205,0.006262142,1.8230329,-0.07124888,0.07363767,0.73735243,0.9560179,0.8663189,0.84117264,0.038038205,0.04445552,0.2353721,0.3378783,214.51202,213.20154,206.15778,207.75221,0,0,0,0,0,0,0,0,0.120000005,0,0.120000005,0.120000005,0.092847764,0.08704463,0.19542606,0.21498783,0.10033749,0.097739756,0.30592707,0.40047657,0.017115317,0.034053147,0.027763948,0.02594006,36,6,231,2,6,470.39148,161.174,-1428.9529,71.76906,871106.25,1027.0541,116.61478,118.10515,121.29355,121.29355,36.749958,1,176.62912,0,0,8.147875,8.147877,0,7,255,0,0,0,4,0,127,0
True,11459687,10999.993,999.9994,8163.3926,8.996211,3.7920492,4.729395,-1.4296131,-0.43660927,72.25667,-0.04136026,0.104953386,0.024176281,1.8396587,-0.082421675,0.08183595,0.70822793,0.6381713,0.62023306,0.7967442,0.3065836,0.12700683,0.10076449,0.32296413,219.78635,216.44809,205.2323,208.69266,0,0,0,0,0,0,0,0,0.120000005,0,0.120000005,0,0.009848348,0.014142475,0.11738243,0.18513873,0.30674174,0.12779179,0.15470009,0.3722663,0.014859337,0.009432748,0.009915046,0.022717617,36,6,231,2,6,477.65445,161.72015,-1430.7571,72.27213,870308.7,1016.0513,116.67407,118.12947,121.52098,121.52098,36.749958,1,181.77496,0,0,8.252062,8.252064,0,7,255,0,0,0,4,-3,127,0
True,11459796,10999.993,999.9994,8161.1865,-10.669412,10.078561,0.23610759,-2.3216,-0.061161757,72.29167,-0.2535672,-0.18234327,-0.14063379,1.8348042,-0.09057152,0.0829865,1,0.8334839,0.7835138,0.8205189,0.03356997,0.044232465,0.36943758,0.08443162,215.18134,216.19283,209.32051,205.82448,0,0,0,0,0,0,0,0,0,0,0.120000005,0,-0.245324,-0.30538422,0.2925536,0.19118717,0.24761018,0.30857095,0.47124487,0.20900056,0.03746,0.024561659,0.021757998,0.024442025,36,6,231,2,6,484.8862,162.3107,-1432.5532,72.328964,870646.5,1020.4117,116.81413,118.22418,121.85982,121.85982,36.749958,1,186.55696,0,0,8.355353,8.355354,0,7,255,0,0,0,4,-127,104,0
True,11459906,10999.993,999.9994,8186.218,-6.706676,4.695209,3.4024444,-0.30872822,-0.18638599,72.75996,-0.096105374,-0.45679256,-0.10213223,1.7981455,-0.10216072,0.054044,0.67248607,0.625646,0.7466158,0.743483,0.31998926,0.14910154,0.20584847,0.12321368,219.71533,219.09038,207.1786,207.5241,0,0,0,0,0,0,0,0,0,0,0,0,-1.0071453,-0.8754116,-0.014783987,-0.011030043,1.0567567,0.8880184,0.20637868,0.12370639,0.012090772,0.008462541,0.019081742,0.018854514,36,6,231,2,6,492.52945,163.08527,-1434.3251,72.76085,870199.8,1014.7214,117.11322,118.50729,121.93239,121.93239,36.749958,1,191.6106,0,0,8.464049,8.46405,0,7,255,0,0,0,4,-127,76,0
True,11460000,10999.993,999.9994,8161.1914,-31.542276,7.7004213,1.5044041,0.86035824,-0.3341167,72.857315,-0.09356023,-0.66587716,-0.11896433,1.7441105,-0.11061861,0.04705556,0.7070836,0.81185627,0.71558964,0.7939352,0.24724814,0.0872235,0.16084756,0.071299925,217.99377,218.54587,206.27266,207.4219,0,0,0,0,0,0,0,0,0,0,0,0,-1.1087369,-0.8345481,-0.16936919,-0.14209121,1.1359705,0.83909386,0.23357624,0.1589767,0.014770694,0.022886384,0.016831376,0.022513874,36,6,231,2,6,499.1879,163.78421,-1435.719,72.86315,870497.25,1018.44073,117.67397,119.041534,122.077805,122.077805,36.749958,1,196.13315,0,0,8.557925,8.557925,0,6,255,0,0,0,4,-127,50,0
True,11460125,10999.993,999.9994,8227.201,-29.53364,4.896931,4.96434,3.4233494,-0.13864422,73.11999,-0.06484416,-0.61508656,-0.10869383,1.6623378,-0.113288246,0.047613773,0.60731673,0.73571837,0.59534025,0.7808447,0.13125576,0.05919752,0.26040336,0.10444168,217.84393,219.66515,208.89148,208.86853,0,0,0,0,0,0,0,0,0,0,0,0,-0.33211413,-0.28323036,-0.49574074,-0.3986039,0.35711044,0.28935063,0.5599721,0.4120596,0.0070427544,0.016988747,0.0081095435,0.021564402,36,6,231,2,6,507.49652,164.72438,-1437.0729,73.20021,869956.1,1009.8909,118.24158,119.606384,122.33246,122.33246,36.749958,1,201.54713,0,0,8.673945,8.673945,0,6,255,0,0,0,4,0,19,0
True,11460234,10999.993,999.9994,8241.883,-37.406162,10.17216,5.7082195,2.9645002,0.01810962,73.495834,-0.04733234,-0.3312075,-0.06304835,1.6055205,-0.12596476,0.049284942,0.6606834,0.8132398,0.69619834,0.83444786,0.106317416,0.061686512,0.19008656,0.09666958,219.18135,220.05888,209.1905,209.04816,0,0,0,0,0,0,0,0,0,0,0,0,-0.32410747,-0.29102203,-0.39597517,-0.33201325,0.34109977,0.2974879,0.43923712,0.34580025,0.011176534,0.02299356,0.0154249035,0.025452308,36,6,231,2,6,516.071,165.7681,-1437.9877,73.555595,869951,1008.2518,118.36314,119.92317,122.70364,122.70364,36.749958,1,207.13326,0,0,8.792326,8.792326,0,6,255,0,0,0,4,0,249,0
True,11460343,10999.993,999.9994,8294.643,-27.051159,5.491184,4.6845894,1.9971613,-0.18720874,73.91841,0.0036004689,-0.19813941,-0.020702949,1.5758761,-0.1357249,0.04473076,0.5766574,0.8036807,0.63532984,0.8272017,0.23996282,0.1254507,0.16560975,0.1013803,222.89539,221.84618,210.18555,209.97499,0,0,0,0,0,0,0,0,0,0,0,0,-0.68727416,-0.6277175,-0.25979012,-0.22226535,0.7279615,0.6401306,0.3080868,0.2442946,0.0046678856,0.022253107,0.011010036,0.024926737,36,6,231,2,6,524.57135,166.89217,-1438.4297,73.945625,869032.6,1000.9115,118.480545,120.18187,122.94968,122.94968,36.749958,1,212.66243,0,0,8.908743,8.908742,0,6,255,0,0,0,4,-127,229,0
True,11460453,10999.993,999.9994,8359.828,-18.548433,-0.9538937,4.051032,1.8824084,-0.28444892,74.23094,-0.009301955,-0.27456328,-0.024382308,1.5552945,-0.13298018,0.047182318,0.38318652,0.56229377,0.42748284,0.63922524,0.3034879,0.14573006,0.2262272,0.13656026,224.41739,222.97568,212.00356,211.69586,0,0,0,0,0,0,0,0,0,0,0,0,-0.9673049,-0.8493073,-0.26165995,-0.22885822,1.0137967,0.8617193,0.3458969,0.26650476,-0.0103183715,0.0035552755,-0.004065357,0.011292573,36,6,231,2,6,531.4112,167.80217,-1438.5752,74.25535,868162.8,991.55835,118.692245,120.46307,123.065186,123.065186,36.749958,1,217.11731,0,0,9.001888,9.001886,0,6,255,0,0,0,4,-93,217,0
True,11460562,10999.993,999.9994,8363.892,-21.46368,2.178183,4.6608825,1.6367447,-0.30929592,74.69079,-0.003165463,-0.13919894,-0.02819418,1.5253704,-0.13578232,0.045730237,0.53159624,0.7297736,0.5294684,0.72627777,0.14828105,0.07348168,0.14396809,0.09881576,223.96103,223.29987,212.06427,211.93933,0,0,0,0,0,0,0,0,0,0,0,0,-0.20168087,-0.17808421,-0.20373467,-0.17843635,0.25032467,0.19264875,0.24946868,0.2039708,0.0011774432,0.01652826,0.0033317804,0.017606597,36,6,231,2,6,539.9537,168.92873,-1438.5132,74.70936,868150,991.42944,118.84184,120.706055,123.248505,123.248505,36.749958,1,222.67992,0,0,9.117572,9.11757,0,6,255,0,0,0,4,0,209,0
True,11460671,10999.993,999.9994,8422.61,-10.565367,-1.5633552,4.0890126,0.77632093,-0.35924387,75.1784,-0.0007676196,-0.00055206416,-0.003851883,1.5201025,-0.13233668,0.04459444,0.41097945,0.5264062,0.45183095,0.55727845,0.13827543,0.08280677,0.14082344,0.12472419,225.60262,224.55699,213.6323,213.41573,0,0,0,0,0,0,0,0,0,0,0,0,-0.11193565,-0.10076214,-0.089404695,-0.08362489,0.1779036,0.13042228,0.1668066,0.15016407,-0.008165531,0.0007754266,-0.002299361,0.0053488724,36,6,231,2,6,548.494,170.04723,-1438.233,75.183266,867330.5,983.4078,118.83937,120.73204,123.35728,123.35728,36.749958,1,228.25226,0,0,9.2325735,9.232573,0,6,255,0,0,0,4,0,205,0
True,11460796,10999.993,999.9994,8510.891,-4.4427896,-4.397441,4.0464363,0.12037468,-0.3829936,75.62563,0.0748647,0.03785616,-0.011064818,1.5234907,-0.12638836,0.04582954,0.3332474,0.35847235,0.40897706,0.4935147,0.13682573,0.20999967,0.18759324,0.1848356,226.89555,228.0822,215.8488,215.64722,0,0,0,0,0,0,0,0,0,0,0,0,-0.027282495,-0.024116525,-0.010837215,-0.009082366,0.13951923,0.21137992,0.18790601,0.18505861,-0.014186656,-0.012232731,-0.0054076053,0.00072401017,36,6,231,2,6,556.702,171.08205,-1437.874,75.6267,866059.06,971.92487,118.80885,120.70511,123.432434,123.432434,36.749958,1,233.60568,0,0,9.342386,9.342385,0,6,255,0,0,0,4,0,205,0
True,11460890,10999.993,999.9994,8520.549,-0.3476912,-1.4290204,4.413774,-0.10965085,-0.43262136,76.12631,0.04578715,0.016020475,-0.023869475,1.5268284,-0.12435722,0.041683756,0.46888217,0.4182533,0.51989913,0.49667713,0.136891,0.13411352,0.11193492,0.11500106,228.42682,228.31346,215.82744,215.80823,0,0,0,0,0,0,0,0,0,0,0,0,0.009686832,0.015626855,0.013441627,0.015099364,0.13723332,0.13502087,0.1127391,0.115988076,-0.0036803875,-0.0076020993,0.0026377067,0.00095338747,36,6,231,2,6,565.0767,172.08444,-1437.4922,76.12762,865937,970.8421,118.79176,120.690445,123.52382,123.52382,36.749958,1,239.0656,0,0,9.453641,9.453639,0,6,255,0,0,0,4,0,205,0
True,11461015,10999.993,999.9994,8648.986,0.19668043,-7.6662126,4.152884,-0.124545574,-0.44224575,76.54534,0.054402735,0.0020408889,-0.01578689,1.5279926,-0.112409554,0.039729036,0.2973544,0.22866385,0.39787522,0.3481548,0.16776171,0.19215055,0.24649641,0.2473456,230.17113,230.59079,219.45609,219.49022,0,0,0,0,0,0,0,0,0,0,0,0,0.015542603,0.018336132,0.014670865,0.016107682,0.16848016,0.19302344,0.24693261,0.24786952,-0.016966928,-0.022287698,-0.0062128343,-0.009819116,36,6,231,2,6,573.4195,173.0302,-1437.1194,76.546715,863668.2,952.6308,118.772736,120.669815,123.5916,123.5916,36.749958,1,244.49605,0,0,9.563788,9.563787,0,6,255,0,0,0,4,0,205,0
True,11461109,10999.993,999.9994,8647.675,0.58192337,-3.5057821,4.340865,-0.03985262,-0.4321274,77.043945,0.0807138,-0.006286812,-0.084984854,1.5279183,-0.10819556,0.034000948,0.48728597,0.3134109,0.4837372,0.40455744,0.1246182,0.16229255,0.15795015,0.15595818,230.81845,231.52826,219.20938,219.20558,0,0,0,0,0,0,0,0,0,0,0,0,0.007984516,0.013891413,0.0062046456,0.007981718,0.124873735,0.162886,0.15807196,0.15616229,-0.002254827,-0.015723191,1.4837831E-05,-0.0057281666,36,6,231,2,6,581.7794,173.90866,-1436.7544,77.045166,863889.2,954.2957,118.75955,120.64624,123.692,123.692,36.749958,1,249.93707,0,0,9.673309,9.673306,0,6,255,0,0,0,4,0,204,0
True,11461218,10999.993,999.9994,8741.702,-0.09823706,-7.275427,4.1919317,0.027647495,-0.45019335,77.47722,0.106855005,-0.009220011,-0.02669941,1.5272484,-0.09716912,0.027561627,0.32875875,0.23598267,0.4204999,0.33157244,0.26138595,0.2511678,0.20589441,0.19774923,234.76068,234.72519,221.34027,221.2484,0,0,0,0,0,0,0,0,0,0,0,0,-0.0033606128,0.0027433375,-0.0041072755,-0.0026950848,0.26140755,0.2511828,0.20593537,0.19776759,-0.014534347,-0.021720782,-0.00457184,-0.011021856,36,6,231,2,6,590.20306,174.72926,-1436.3915,77.47853,862214.44,942.14545,118.732376,120.61447,123.75287,123.75287,36.749958,1,255.41527,0,0,9.782959,9.782957,0,6,255,0,0,0,4,0,204,0
True,11461328,10999.993,999.9994,8752.244,-0.31733137,-8.110057,4.966669,0.048943043,-0.52432925,77.96367,0.023037124,-0.0062592095,-0.06897109,1.5268121,-0.08585634,0.022869894,0.31029835,0.21133302,0.38567135,0.30443364,0.11682565,0.13345017,0.16537176,0.16395049,233.47063,233.79997,221.94746,221.95622,0,0,0,0,0,0,0,0,0,0,0,0,-0.0031757497,-0.0008129952,-0.0042476957,-0.003079947,0.1168688,0.13345264,0.16542631,0.16397941,-0.01596429,-0.023630144,-0.007097997,-0.012990266,36,6,231,2,6,598.57043,175.43616,-1436.0308,77.96545,861862.3,939.71405,118.73845,120.62292,123.816376,123.816376,36.749958,1,260.8448,0,0,9.89116,9.891159,0,6,255,0,0,0,4,0,203,0
True,11461453,10999.993,999.9994,8960.917,-0.20087966,-8.500987,3.1467938,0.053706884,-0.43163645,78.39369,0.15170988,-0.004022042,-0.055202696,1.5265067,-0.07347546,0.014117993,0.31665155,0.19142379,0.4411923,0.3468372,0.42658743,0.36966342,0.358584,0.35536322,240.703,239.59903,227.0077,226.94862,0,0,0,0,0,0,0,0,0,0,0,0,-0.0070101083,-0.0010448837,-0.0058364472,-0.0038785094,0.42664504,0.36966488,0.3586315,0.3553844,-0.015472171,-0.025172314,-0.0030709952,-0.009914685,36,6,231,2,6,608.4412,176.18105,-1435.6019,78.394905,813759.75,867.6439,118.70903,120.58722,123.90158,123.90158,36.749958,1,267.2523,0,0,10.017832,10.017831,0,6,255,0,0,0,4,0,203,0
True,11461562,10999.993,999.9994,8888.855,-0.21599326,-9.2936125,4.895453,0.05807805,-0.5189159,78.91857,0.038856417,-0.0029638396,-0.040888987,1.5262526,-0.06138314,0.009292282,0.30497825,0.20281407,0.2966972,0.24072146,0.11121513,0.117072105,0.22120242,0.21498398,236.11682,236.25945,225.76295,225.68387,0,0,0,0,0,0,0,0,0,0,0,0,-0.005769048,-0.0044382927,-0.0060861157,-0.0050594634,0.111364655,0.1171562,0.22128613,0.2150435,-0.016376384,-0.024290022,-0.013551399,-0.017611386,36,6,231,2,6,616.7349,176.68315,-1435.24,78.9203,859195.44,922.54144,118.73764,120.60325,123.96883,123.96883,36.749958,1,272.6239,0,0,10.123597,10.123596,0,6,255,0,0,0,4,0,202,0
True,11461671,10999.993,999.9994,9152.965,-0.19058919,-10.422582,2.5465727,0.050904036,-0.47361767,79.200615,0.18818569,-0.0024388502,-0.017668327,1.526136,-0.04847616,0.0051158476,0.16683434,0.13683632,0.35279113,0.30651835,0.56122816,0.54206073,0.4880983,0.47940084,245.72025,245.32533,231.83836,231.72064,0,0,0,0,0,0,0,0,0,0,0,0,-0.008567193,-0.0029907327,-0.0070805014,-0.0050246175,0.56129354,0.54206896,0.48814964,0.47942716,-0.027077012,-0.029400658,-0.009482838,-0.01283906,36,6,231,2,6,625.15546,177.1077,-1434.87,79.202034,689070.44,719.7712,118.72367,120.57556,124.03493,124.03493,36.749958,1,278.0815,0,0,10.230263,10.230262,0,6,255,0,0,0,4,0,202,0
True,11461781,10999.993,999.9994,8978.023,-0.30378166,-10.5317545,5.422049,0.0529027,-0.60101455,79.679504,0.124240175,-0.0012694566,-0.021499477,1.5258845,-0.0383405,0.0035034835,0.19754283,0.1668718,0.2665439,0.22572869,0.34597215,0.3405632,0.16071542,0.15789886,243.1146,243.01941,226.7356,226.70686,0,0,0,0,0,0,0,0,0,0,0,0,-0.010156741,-0.0022495538,-0.005555314,-0.0048258877,0.3461212,0.34057063,0.16081141,0.15797259,-0.024698332,-0.02707411,-0.015738456,-0.01869883,36,6,231,2,6,632.53503,177.37114,-1434.5446,79.681786,857475.4,912.31433,118.76578,120.612305,124.13252,124.13252,36.749958,1,282.8612,0,0,10.323327,10.323326,0,6,255,0,0,0,4,0,202,0
True,11461890,10999.993,999.9994,8995.652,-0.26683497,-8.946409,5.4363627,0.030104876,-0.6681666,80.18468,0.06516889,0.0016835853,-0.028254176,1.5259988,-0.023839923,0.0014698135,0.21628776,0.18008474,0.28643358,0.26236552,0.13461766,0.1422348,0.15194464,0.15148512,240.4277,240.56844,228.02664,228.01732,0,0,0,0,0,0,0,0,0,0,0,0,-0.0050490093,-0.0008857734,-0.002593644,-0.0015385259,0.13471231,0.14223756,0.15196678,0.15149292,-0.02324635,-0.026050635,-0.014295831,-0.016041517,36,6,231,2,6,641.9391,177.57497,-1434.1276,80.18747,856902.25,909.5668,118.791336,120.631805,124.22466,124.22466,36.749958,1,288.9436,0,0,10.441237,10.4412365,0,6,255,0,0,0,4,0,202,0
True,11462000,10999.993,999.9994,9060.382,0.027951136,-6.1620936,4.304694,0.008923292,-0.53155905,80.70331,0.0993524,0.001885976,-0.014897973,1.5261884,-0.013517294,-0.0010163925,0.30657855,0.29202503,0.4173915,0.38157406,0.16780366,0.14000751,0.151962,0.1692744,242.67142,242.06009,229.47824,229.77023,0,0,0,0,0,0,0,0,0,0,0,0,-0.003962372,0.0015900289,-0.0011617392,0.00060913514,0.16785043,0.14001654,0.15196644,0.1692755,-0.016252425,-0.01737974,-0.0047972947,-0.007395178,36,6,231,2,6,651.1475,177.67993,-1433.7178,80.70506,855634.2,902.04675,118.76428,120.599396,124.29849,124.29849,36.749958,1,294.90472,0,0,10.555815,10.555815,0,6,255,0,0,0,4,0,201,0
True,11462109,10999.993,999.9994,9080.292,-0.06550017,-5.1924872,4.9333425,-0.005339384,-0.4884168,81.224686,-0.0030604207,0.0009856259,0.01289572,1.5262913,-0.0053817607,0.0005870455,0.39148343,0.40617803,0.3743658,0.39626697,0.06722824,0.07504231,0.11763002,0.117617175,242.25497,242.4133,230.28363,230.29088,0,0,0,0,0,0,0,0,0,0,0,0,-0.0009171444,0.0010104846,-0.00039112745,0.0006867182,0.0672345,0.07504911,0.11763067,0.11761918,-0.009675695,-0.008537447,-0.007918,-0.0063294843,36,6,231,2,6,659.8928,177.69777,-1433.328,81.22614,855097.25,899.19183,118.75506,120.57886,124.357574,124.357574,36.749958,1,300.56122,0,0,10.663947,10.663946,0,6,255,0,0,0,4,0,201,0
True,11462218,10999.993,999.9994,9170.16,0.03630799,-5.1032124,4.3456626,0.0014595985,-0.39450967,81.68888,0.049908068,-0.0005433786,0.008677714,1.5263244,0.0010794768,-0.0011441474,0.34578872,0.35151306,0.41768277,0.40721202,0.121329755,0.09706986,0.17494981,0.16803047,244.65918,244.19498,232.71353,232.59096,0,0,0,0,0,0,0,0,0,0,0,0,-0.0018553482,0.0008329188,-0.0011494753,0.00030553865,0.12134394,0.097073436,0.17495358,0.16803075,-0.013215207,-0.012771798,-0.0047761686,-0.005535625,36,6,231,2,6,668.71234,177.67805,-1432.9352,81.689835,852953.25,888.13495,118.738335,120.552246,124.44551,124.44551,36.749958,1,306.2702,0,0,10.772321,10.772321,0,6,255,0,0,0,4,0,201,0
True,11462312,10999.993,999.9994,9036.715,-0.050404184,-3.7843406,1.8779099,-0.0025613308,-0.40601265,81.85583,0.057540614,-0.00020657355,0.013762754,1.5262965,0.0049735643,0.000784446,0.31314662,0.34033588,0.39207116,0.40597942,-0.12816936,-0.1347271,0.029366106,0.02960662,239.45155,239.32426,229.68008,229.68582,0,0,0,0,0,0,0,0,0,0,0,0,-0.0014361315,0.0010608365,-0.0007648534,0.00025538116,0.1281774,0.13473128,0.029376063,0.02960772,-0.015743662,-0.013637582,-0.0066338107,-0.005625028,36,6,231,2,6,676.2721,177.61629,-1432.5986,81.85683,856072.9,904.4357,118.73187,120.53773,124.50344,124.50344,36.749958,1,311.16217,0,0,10.864753,10.864754,0,6,255,78,0,0,4,0,201,217
True,11462437,10999.993,999.9994,8184.8735,-0.056970477,-3.928604,-22.790966,0.048828363,0.15405878,78.38966,0.075717576,-0.01151084,-0.0035033347,1.5255405,0.019674607,0.00029304894,0.4855851,0.5237287,0.30665866,0.31832308,-1.0689309,-1.5367953,-0.2868842,-0.30553156,207.2104,196.0173,212.52771,212.07895,0,0,0,0,0,0,0,0,0,0,0,0,-0.0013861165,-0.004548394,-0.0062936977,-0.006977612,1.0689317,1.536802,0.2869532,0.30561122,-0.0023865756,0.00056802854,-0.012828883,-0.011982847,36,6,231,2,6,686.9253,177.46336,-1432.1238,78.389824,256750.22,300.00058,121.34208,124.26836,124.586044,124.586044,36.749958,1,318.0589,0,0,10.99745,10.997452,0,6,0,255,0,0,4,0,201,129
True,11462546,10999.993,999.9994,7724.6255,-0.2728244,-2.223324,-31.701447,0.026970625,0.52120364,74.68223,0.04169116,0.0044269594,0.012549547,1.5253587,0.026223797,0.00089733023,0.5994498,0.6026805,0.3552772,0.36584315,-1.4425395,-1.192652,-0.40136334,-0.3906221,188.28235,193.87135,200.03845,200.24248,0,0,0,0,0,0,0,0,0,0,0,0,-0.0027147455,-0.0073473565,-0.0026800002,-0.0040337304,1.442542,1.1926746,0.40137228,0.39064294,0.006433381,0.0066836346,-0.009302519,-0.00853616,36,6,231,2,6,695.271,177.31503,-1431.7488,74.68405,-202744.61,-250,121.772675,125.32918,124.68722,124.68722,16.159378,1,323.46042,0,0,11.106801,11.106802,0,6,0,255,0,0,4,0,200,129
True,11462656,10999.993,999.9994,7354.3784,0.08746827,-1.8849227,-33.59145,-0.045125484,0.43243256,71.10041,-0.0040006395,0.011363295,-0.012208341,1.5264597,0.028088944,0.0016093025,0.68420357,0.65849644,0.3622225,0.35929275,-0.8927177,-2.1460807,-0.30178893,-0.3510838,191.46028,162.92754,192.37067,191.37837,0,0,0,0,0,0,0,0,0,0,0,0,0.006534294,0.0011091931,0.008102433,0.0070449654,0.8927416,2.146081,0.30189767,0.35115445,0.012998406,0.011007134,-0.008798771,-0.009011269,36,6,231,2,6,703.07623,177.14961,-1431.3966,71.10173,-192670.7,-250,125.872765,129.41977,124.81207,124.81207,-5.7479076,1,328.51404,0,0,11.21398,11.213981,0,6,0,255,0,0,4,0,200,129
True,11462750,10999.993,999.9994,6978.732,0.42338502,-0.6117749,-33.373623,-0.05601859,0.40358666,68.00548,0.024055537,-0.0025613583,-0.00014306908,1.5272137,0.028035656,0.0010129604,0.6492233,0.6353959,0.42636755,0.40064245,-1.5933143,-2.5366857,-0.29256082,-0.28147757,168.16594,153.15419,184.04564,184.30557,0,0,0,0,0,0,0,0,0,0,0,0,0.010304199,0.00671575,0.007851841,0.006362005,1.5933477,2.5366945,0.29266617,0.28154945,0.010288838,0.009217765,-0.004146252,-0.006012123,36,6,231,2,6,709.44116,177.01001,-1431.1119,68.0067,-173921.34,-237.64568,126.10646,134.5058,124.90674,124.90674,-9.729111,1,332.6351,0,0,11.305738,11.305738,0,6,0,255,0,0,4,0,200,129
True,11462859,10999.993,999.9994,6563.6396,-0.28505313,-2.3634706,-32.778744,0.100182295,0.36606988,64.496414,0.02291418,-0.026326442,-0.017908607,1.5247285,0.03227067,-0.0010860044,0.5893217,0.56887686,0.35038528,0.33579156,-1.4857469,-2.3276062,-0.4177443,-0.43415993,161.85878,147.0751,172.36215,172.19073,0,0,0,0,0,0,0,0,0,0,0,0,-0.005177233,-0.009621523,-0.016405718,-0.017680626,1.4857558,2.3276262,0.41806632,0.4345198,0.005648855,0.0040652007,-0.009657338,-0.0107158385,36,6,231,2,6,717.175,176.82056,-1430.7687,64.497536,-151683.45,-220.71431,129.45677,140.84593,125.06167,125.06167,-10.808195,1,337.6417,0,0,11.422571,11.422571,0,6,0,255,0,0,4,0,200,129
True,11462968,10999.993,999.9994,6147.569,-0.60719913,-1.7718135,-28.252975,0.062101126,0.3697386,60.995358,0.014883552,0.012665414,0.016351597,1.5242635,0.035467587,-0.00042472404,0.5969057,0.61912674,0.33727384,0.3373727,-2.418922,-2.1607375,-0.43936887,-0.42581585,138.90239,140.05785,162.73587,162.8939,0,0,0,0,0,0,0,0,0,0,0,0,-0.010314993,-0.017233891,-0.0077994666,-0.009056968,2.418944,2.1608062,0.43943807,0.42591214,0.006236313,0.007957555,-0.010608327,-0.010601155,36,6,231,2,6,724.3131,176.62012,-1430.4468,60.99651,-131566.69,-204.323,134.7309,142.34584,125.19343,125.19343,-10.987174,1,342.26425,0,0,11.536612,11.536611,0,6,0,255,0,0,4,0,200,129
True,11463093,10999.993,999.9994,5917.425,0.14076662,0.88454646,-35.741783,-0.070679426,0.45747426,57.131863,0.013901942,0.019476164,-0.0031063058,1.5269223,0.03444236,0.0003335917,0.7320963,0.71637684,0.42827442,0.41958895,-1.2896903,-1.8683083,-0.2857254,-0.30075604,146.55968,136.53963,154.8406,154.50311,0,0,0,0,0,0,0,0,0,0,0,0,0.009168606,0.0037051204,0.015442822,0.013597023,1.2897228,1.868312,0.28614244,0.30106324,0.01670818,0.015490551,-0.004007943,-0.004637912,36,6,231,2,6,730.9218,176.4363,-1430.146,57.133736,-121854.17,-195.95763,135.99315,144.58148,125.31509,125.31509,-11.018219,1,346.544,0,0,11.648892,11.648891,0,6,0,255,0,0,4,0,200,129
True,11463187,10999.993,999.9994,5484.6016,0.34028196,-0.9108234,-30.308626,-0.070782185,0.3917652,53.786335,0.016346352,-0.0029480858,-0.0024543072,1.5277373,0.035723,0.000389621,0.66139585,0.6536551,0.38700715,0.3898539,-1.4258481,-2.367257,-0.3884308,-0.39267257,135.54665,120.33164,144.31537,144.2313,0,0,0,0,0,0,0,0,0,0,0,0,0.00033828153,-0.00439235,0.012680157,0.011020497,1.4258481,2.3672612,0.38863772,0.39282718,0.01123172,0.010632124,-0.0070011094,-0.0067946315,36,6,231,2,6,737.10406,176.26648,-1429.8694,53.787804,-103038.43,-178.75156,138.1147,147.22337,125.43897,125.43897,-11.023772,1,350.54648,0,0,11.760544,11.760543,0,6,0,255,0,0,4,-2,200,129
True,11463296,10999.993,999.9994,5854.3604,0.19294703,-1.0803734,-29.73685,0.0019130707,0.36305204,50.77426,-0.013088254,-0.022145398,-0.017643917,1.5266039,0.03775026,-0.0011162267,0.680602,0.6498548,0.35857737,0.34630585,-1.6881293,-0.4017347,-0.44131318,-0.40411815,124.149475,143.1894,135.60803,136.1839,0,0,0,0,0,0,0,0,0,0,0,0,-0.0040369383,-0.012142415,-0.0023583584,-0.0039223465,1.6881341,0.40191817,0.4413195,0.40413716,0.012719434,0.010337751,-0.009063154,-0.009953223,36,6,231,2,6,742.6161,176.10075,-1429.6257,50.77556,347080.1,573.14966,141.47533,151.58202,125.55463,125.55463,-4.505679,1,354.11597,0,0,11.866047,11.866047,0,6,0,255,0,0,3,-2,200,129
True,11463406,10999.993,999.9994,6697.799,-0.614359,0.86574066,-29.861122,0.052847385,0.3619336,47.471237,-0.00692939,-0.021484088,0.007467525,1.5240159,0.03507106,-0.0017249738,0.69514984,0.72060853,0.40384966,0.41117465,-2.1572366,-1.1756077,-0.33922,-0.31229904,109.16054,123.50781,127.93151,128.3592,0,0,0,0,0,0,0,0,0,0,0,0,-0.102168255,-0.10494692,-0.014190945,-0.01598126,2.1596546,1.1802827,0.3395167,0.31270766,0.013846308,0.015818335,-0.005779501,-0.0052482113,36,6,231,2,6,747.8494,175.94942,-1429.3915,47.472645,-159950.47,-227.15144,143.35294,150.29115,125.64298,125.64298,7.904481,1,357.50504,0,0,11.972967,11.972967,0,6,0,255,0,0,3,-26,200,129
True,11463531,10999.993,999.9994,6433.3716,-7.347819,1.1779404,-25.97685,-0.13240981,0.28367952,44.197945,-0.06917269,-0.25524163,-0.021933809,1.509373,0.0309328,-0.0031941247,0.6838968,0.7505837,0.36886257,0.4443609,-0.20435199,-0.30639252,-0.4810229,-0.30977356,127.49645,128.90703,116.908455,120.01801,0,0,0,0,0,0,0,0,0,0,0,0,-0.5542096,-0.5032643,-0.028293325,-0.028322157,0.59068435,0.5891955,0.48185426,0.3110656,0.012974642,0.018140212,-0.008317158,-0.0028411709,36,6,231,2,6,753.5484,175.7978,-1429.0908,44.199055,-145149.72,-215.52394,143.33112,149.24869,125.823875,125.823875,-8.218429,1,361.20016,0,0,12.097771,12.097771,0,6,0,255,0,0,3,-127,201,190
True,11463640,10999.993,999.9994,5946.767,-11.511293,1.348561,-22.423857,0.37133884,0.25339863,41.833084,0.004838833,-0.4930588,-0.050793223,1.4687803,0.02620724,-0.0077909147,0.4742817,0.53157175,0.3617667,0.4400387,-1.2106745,-0.22919379,-0.752411,-0.30560473,109.907745,122.02861,106.52785,113.90298,0,0,0,0,0,0,0,0,0,0,0,0,-1.0242237,-0.90998805,-0.19818698,-0.18068472,1.5858017,0.9384072,0.77807486,0.35502285,-0.0032621399,0.0011755489,-0.008831829,-0.0031546652,36,6,231,2,6,758.10046,175.69838,-1428.7317,41.8355,-122739.08,-196.73317,142.5503,148.25037,125.975586,125.975586,-10.472572,1,364.15213,0,0,12.20406,12.204061,0,6,0,255,0,0,3,-127,205,241
True,11463734,10999.993,999.9994,5514.2866,-14.169362,0.2226437,-20.489517,1.2856917,0.25013986,39.963905,-0.04559295,-0.684034,-0.038304165,1.4164417,0.025623403,-0.013466999,0.5483538,0.74220616,0.18989389,0.29433087,-0.80904895,-0.20108639,-1.1270322,-0.7189862,108.66985,117.65517,96.32749,104.91104,0,0,0,0,0,0,0,0,0,0,0,0,-1.1309745,-0.95767534,-0.49060494,-0.43593812,1.3905623,0.978559,1.2291845,0.84082294,0.0024754852,0.017491288,-0.021297973,-0.013723033,36,6,231,2,6,761.7009,175.62477,-1428.3444,39.98536,-104211.63,-179.86774,142.45709,147.72226,126.835724,126.835724,-10.882354,1,366.48993,0,0,12.2926,12.2926,0,6,0,255,0,0,3,-127,212,231
True,11463843,10999.993,999.9994,5095.4736,-20.731138,3.0325215,-21.756641,2.3067331,0.15034977,37.322678,-0.0640039,-0.8099822,0.016166344,1.3313975,0.012324445,-0.014838517,0.664714,0.8483128,0.43390885,0.6328701,-0.76604825,-0.3620628,-1.4508827,-0.52629125,100.350044,108.49025,86.33686,99.70037,0,0,0,0,0,0,0,0,0,0,0,0,-1.4637139,-1.237934,-0.7812343,-0.68798566,1.6520557,1.2897946,1.6478434,0.8662025,0.011488747,0.02571031,-0.0035992712,0.010831628,36,6,231,2,6,765.87463,175.56416,-1427.7123,37.39419,-87277.086,-163.09724,143.01825,147.81134,128.1631,128.1631,-10.998149,1,369.20514,0,0,12.401753,12.401752,0,6,0,255,0,0,3,-127,223,216
True,11463968,10999.993,999.9994,6417.641,-18.395355,-0.28926545,-16.397436,3.9512124,0.17574567,34.915504,0.019981533,-0.8065898,0.0014994713,1.229782,0.012951886,-0.016184237,0.5988301,0.8184814,0.47934115,0.6767416,-0.68994814,-1.1654886,-1.8165106,-0.8002417,93.52355,93.9484,79.64008,89.28844,0,0,0,0,0,0,0,0,0,0,0,0,-1.974422,-1.643096,-1.3655871,-1.1911874,2.0914996,2.0144796,2.2725623,1.435031,0.0063853804,0.02339957,-0.0003040135,0.014013682,36,6,231,2,6,770.4522,175.52252,-1426.7683,35.1388,469475.97,707.6535,144.93393,149.62816,130.80228,130.80228,4.944827,1,372.19022,0,0,12.531048,12.531048,0,6,0,255,0,0,2,-127,242,199
True,11464062,10999.993,999.9994,6508.422,-18.968403,-0.1290392,-14.684597,4.9992304,0.16449994,33.291786,-0.0034162118,-0.76279324,-0.0027924418,1.1540639,0.011705044,-0.016821424,0.6082223,0.78794515,0.45165807,0.6480996,-2.327867,-1.4468772,-1.1658022,-0.6076219,74.81145,86.60134,79.607544,88.102936,0,0,0,0,0,0,0,0,0,0,0,0,-1.1621238,-1.0677944,-1.7130706,-1.4458826,2.6018257,1.7982321,2.072126,1.5683688,0.0071129017,0.02103423,-0.0023119003,0.01193624,36,6,231,2,6,773.54395,175.49211,-1425.9845,33.66545,-152110.12,-221.06197,147.40688,152.93549,133.80438,133.80438,10.881286,1,374.2124,0,0,12.623832,12.623832,0,6,0,213,0,0,2,0,0,206
True,11464171,10999.993,999.9994,6896.3726,-18.51303,-0.32731885,-6.1282415,5.6925535,0.15124236,32.092793,0.0019775664,-0.7808001,-0.02290902,1.0703337,0.010369377,-0.019221963,0.52366495,0.72284186,0.42880592,0.6167298,-0.15359303,-0.04925893,-0.50733,-0.23272696,91.81705,96.58434,83.59701,89.23261,0,0,0,0,0,0,0,0,0,0,0,0,-1.4864502,-1.2724499,-1.9664813,-1.6957288,1.4943644,1.2734029,2.03087,1.7116244,0.0005630832,0.01599133,-0.0039693937,0.009660952,36,6,231,2,6,776.97906,175.46034,-1424.9376,32.5941,-169037.42,-234.02643,148.27762,153.04243,137.21263,137.21263,-6.876535,1,376.4966,0,0,12.732595,12.732594,0,6,0,0,0,0,2,0,23,44
True,11464281,10999.993,999.9994,6765.1973,-13.037278,-0.30728325,-3.3982139,6.818469,0.08763413,31.181215,-0.012158191,-0.67753935,0.056012146,0.98685884,0.007861369,-0.019442398,0.46059036,0.662274,0.38702077,0.60633737,-0.025986763,-0.0226322,-0.39488098,-0.22563173,92.01604,95.37827,82.229256,86.58936,0,0,0,0,0,0,0,0,0,0,0,0,0.011483829,0.3087186,-2.2799501,-1.9801687,0.028411092,0.30954707,2.3138936,1.9929821,-0.0043226685,0.011299744,-0.007000122,0.008907177,36,6,231,2,6,780.28656,175.42847,-1423.7217,31.918135,-162229.86,-228.8938,147.7297,152.4411,140.75642,140.75642,-10.246616,1,378.70975,0,0,12.841953,12.841952,0,6,0,0,0,0,2,127,51,33
True,11464406,10999.993,999.9994,6534.9893,-14.746527,0.07060234,-2.2771616,7.3239183,0.103561684,30.288597,-0.00895828,-0.51192856,-0.029190661,0.9172945,0.006445655,-0.018148076,0.472287,0.6371846,0.3832493,0.55522245,-0.025448594,-0.012830786,-0.46148068,-0.21670303,88.24383,90.92632,79.73914,83.85376,0,0,0,0,0,0,0,0,0,0,0,0,-2.2146564,-1.9463245,-2.506994,-2.1670396,2.2148025,1.9463668,2.5491142,2.1778479,-0.0034166481,0.00935632,-0.0072736703,0.005199749,36,6,231,2,6,783.9529,175.39769,-1422.2227,31.16167,-150605.98,-219.87605,146.58563,151.23036,146.4096,146.4096,-10.911079,1,381.17285,0,0,12.967587,12.967586,0,6,0,0,0,0,2,-127,84,24
True,11464515,10999.993,999.9994,6345.797,-18.953896,0.25534952,-2.588601,6.826766,0.16387792,29.586704,-0.00089703687,-0.47618222,-0.043170035,0.86519724,0.006599212,-0.020692516,0.27310076,0.6298377,0.36799467,0.56116575,-0.11113896,-0.06640496,-0.5359616,-0.1890549,84.48447,87.257614,77.41068,82.07546,0,0,0,0,0,0,0,0,0.120000005,0,0,0,-2.763645,-2.3906064,-2.4410555,-2.0655925,2.7658787,2.3915286,2.4992013,2.0742261,-0.018845614,0.00878723,-0.008380108,0.0056308247,36,6,231,2,6,786.9483,175.37523,-1420.7856,30.364532,-141252.06,-212.3651,148.29353,155.24277,150.72517,150.72517,-11.003172,1,383.19925,0,0,13.075602,13.075599,0,6,0,0,0,0,2,-127,112,20
True,11464609,10999.993,999.9994,6210.3833,-17.29196,-0.8189616,-2.785191,6.5465193,0.07943378,29.030245,0.04807403,-0.43712786,0.078539744,0.8248858,0.007970348,-0.017701399,0.17788534,0.6051217,0.34433913,0.54371774,-0.4606232,-0.07477663,-0.39815572,-0.21915181,79.60362,84.64731,76.96652,80.19099,0,0,0,0,0,0,0,0,0.120000005,0.120000005,0.120000005,0,-3.302214,-2.6663988,-2.279767,-2.056125,3.3341851,2.667447,2.3142743,2.067771,-0.026221,0.0068727247,-0.010095872,0.004365299,36,6,231,2,6,789.2757,175.35484,-1419.5101,29.759338,-134643.48,-206.9087,148.65338,160.01039,153.84949,153.84949,-11.019341,1,384.78415,0,0,13.163896,13.163893,0,6,0,0,0,0,2,-127,127,15
True,11464718,10999.993,999.9994,6049.7134,-13.363205,-3.5460455,-2.5924668,6.413537,-0.28277612,28.387352,0.105882265,-0.39800417,-0.032832347,0.77671087,0.01003028,-0.0042249155,0.09929234,0.21248186,0.14919516,0.55064327,-0.02170596,-0.67681456,-0.5311277,-0.34402293,84.26415,81.53922,74.13049,77.331696,0,0,0,0,0,0,0,0,0.59999996,0.120000005,0.120000005,0,-0.5168913,-0.4706056,-2.1836853,-1.9382468,0.51734686,0.8243467,2.247349,1.9685407,-0.032308817,-0.023541154,-0.0242499,0.004867617,36,6,231,2,6,791.9978,175.31145,-1417.8401,29.10421,-126576.52,-200.06473,148.86328,159.81189,152.74605,152.74605,-11.023925,1,388.57117,0,0,13.27246,13.272457,0,6,0,0,0,0,2,115,127,20
True,11464828,10999.993,999.9994,5942.576,-5.0176725,1.3557935,-4.508108,6.6258335,0.28150493,27.658148,-0.042328816,-0.14590316,-0.029751757,0.7464556,0.02643422,-0.0037758306,0.8408216,0.6690745,0.26169065,0.6904584,-0.042326327,-0.013466255,-0.5937978,-0.3866758,83.28347,84.25164,72.677574,74.791245,0,0,0,0,0,0,0,0,0.59999996,0.120000005,0.120000005,0.120000005,0.007787935,0.44233027,-2.5236802,-2.3570578,0.043036845,0.44253522,2.5925968,2.3885643,0.025130037,0.011826508,-0.016090466,0.015008576,36,6,231,2,6,794.7019,175.249,-1416.0404,28.442118,-122530.12,-196.55028,147.37738,158.1247,152.8096,152.8096,-11.024809,1,390.7023,0,0,13.38555,13.385547,0,6,0,0,0,0,2,127,127,9
True,11464937,10999.993,999.9994,5920.461,-13.145426,1.74024,-3.7426157,5.5641403,0.5056151,27.252182,0.09138498,0.039131775,-0.03932102,0.7432771,0.030494774,-0.000752965,0.6539622,0.5864862,0.4316406,0.70782083,-0.0137160765,-0.017442584,-0.5136902,-0.08250682,82.18395,82.05303,72.36707,75.304146,0,0,0,0,0,0,0,0,0.120000005,0.120000005,0.120000005,0.120000005,-0.60303396,-0.50850904,-2.1122897,-1.6289088,0.60318995,0.5088081,2.1738548,1.630997,0.0106559135,0.0054292213,-0.0037637912,0.016267896,36,6,231,2,6,796.89105,175.2072,-1414.5309,27.818998,-121451.63,-195.60391,146.21439,156.7802,152.86574,152.86574,-11.024956,1,392.44696,0,0,13.480117,13.480114,0,6,0,0,0,0,2,-3,127,0
True,11465046,10999.993,999.9994,5856.8516,-18.379648,0.74902815,-3.6417847,3.5815163,0.2943027,26.96579,-0.1826896,-0.089521565,0.043255262,0.7387195,0.019768685,0.0077368543,0.45292905,0.83800006,0.2197436,0.6040867,-0.08093739,-0.1796048,-0.31938362,-0.15321188,78.7648,78.5227,73.01108,74.529755,0,0,0,0,0,0,0,0,0.120000005,0,0.120000005,0,-1.6181513,-1.7948045,-1.2563696,-1.141962,1.6201742,1.8037685,1.2963296,1.152194,-0.0049161185,0.024911486,-0.019132936,0.008743931,36,6,231,2,6,799.0123,175.18607,-1412.8596,27.204184,-117926.24,-192.39682,145.72154,157.2552,152.28397,152.28397,-11.02499,1,394.2143,0,0,13.578294,13.578291,0,6,0,0,0,0,2,-127,127,0
True,11465156,10999.993,999.9994,5422.803,-32.975826,0.89302933,-22.728607,-0.13268471,-0.016744405,24.32555,0.017506938,-0.10490107,0.015510431,0.73301727,0.012150919,0.012166709,0.22286075,0.5259807,0.35326916,0.60370487,0.11750198,0.081362136,0.1490525,0.044541582,72.2799,72.432686,68.484474,68.38014,0,0,0,0,0,0,0,0,0.120000005,0,0.120000005,0,-0.8913307,-0.73102623,0.0055088424,0.006200797,0.89904237,0.73554003,0.14915428,0.044971127,-0.022737205,0.0007424634,-0.009448167,0.008716237,36,6,231,2,6,801.32104,175.14424,-1410.6373,24.325918,-100840.836,-177.0307,145.14859,157.75153,150.94957,150.94957,-11.024998,1,398.49817,0,0,13.702609,13.702606,0,6,0,0,0,0,2,-127,121,0
True,11465281,10999.993,999.9994,4775.987,-18.251545,0.54571956,-27.59464,-1.2882681,-0.11997506,21.14967,-0.058353648,-0.38937584,0.038882755,0.70676243,0.0089790905,0.021115633,0.56247276,0.41915402,0.23176624,0.53149664,0.053017978,0.1445963,0.16638935,0.060438365,62.39535,64.73135,59.864025,60.767033,0,0,0,0,0,0,0,0,0,0,0.120000005,0,-0.39784223,-0.35652542,0.36809045,0.34340474,0.40135938,0.38473168,0.40395048,0.34868267,0.003569143,-0.0075323284,-0.01826092,0.0034788884,36,6,231,2,6,802.79395,175.1075,-1408.8076,21.189209,-76363.97,-151.71564,144.37888,156.51132,149.75916,149.75916,-7.900203,1,399.95978,0,0,13.808043,13.808039,0,6,255,0,0,0,2,-127,106,0
True,11465375,10999.993,999.9994,6449.888,-9.332889,1.8066239,-9.468612,-0.8364897,-0.2052618,20.58658,-0.02843149,-0.65402716,-0.09238246,0.65194374,0.0020807849,0.025003862,0.5540113,0.35124007,0.80708426,0.58587515,0.032985795,0.014235024,0.010272668,-0.0004884649,59.654022,62.899536,56.17592,59.129707,0,0,0,0,0,0,0,0,0,0,0,0,-0.7676484,-0.6382409,0.05384937,0.056401897,0.7683568,0.6383996,0.054820456,0.056404013,0.0029137135,-0.012792944,0.023467593,0.0074230283,36,6,231,2,6,804.0553,175.07053,-1407.063,20.60459,417895.94,623.8461,143.69339,155.29938,148.66982,148.66982,0.33616924,1,401.3212,0,0,13.911527,13.911525,0,6,255,0,0,0,1,-127,89,0
True,11465484,10999.993,999.9994,7771.4395,-11.990723,-0.019206844,2.084455,-0.30465698,-0.1818827,20.829052,8.483976E-05,-0.8840031,-0.09296081,0.5596654,0.0039910567,0.012885742,0.44668034,0.4118841,0.6771051,0.58892137,1.7059348,0.46936065,1.1650554,0.39324316,68.327156,66.61429,63.201584,62.960747,0,0,0,0,0,0,0,0,0,0,0,0,-1.4990598,-1.1625491,-0.29173934,-0.25017005,2.2709894,1.2537224,1.201027,0.4660743,-0.00540014,-0.008095458,0.014040049,0.0076439716,36,6,231,2,6,805.36835,175.04309,-1405.0503,20.832075,553108.25,680.20825,143.85106,154.31366,147.95981,147.95981,28.90535,1,402.86,0,0,14.028601,14.028598,0,6,255,0,0,0,1,-127,66,0
True,11465609,10999.993,999.9994,7767.1533,-18.618042,1.4532247,-6.0865436,-0.23526716,-0.00939934,20.326164,0.026999917,-0.95698303,-0.047748186,0.4539913,0.008111386,0.0030455461,0.47238937,0.57260144,0.6129988,0.6679325,2.334853,0.5581063,1.5088359,0.54832935,69.590454,65.82142,63.35912,62.580597,0,0,0,0,0,0,0,0,0,0,0,0,-1.4480941,-1.1725557,-0.39943102,-0.33976194,2.747456,1.2986029,1.560811,0.64506066,-0.0034087189,0.0043537077,0.009390339,0.013374746,36,6,231,2,6,806.4985,175.01044,-1402.9508,20.327528,394862.4,485.35675,148.04253,154.56259,148.38672,148.38672,35.413643,1,404.96988,0,0,14.1442,14.144197,0,6,255,0,0,0,1,-127,44,0
True,11465718,10999.993,999.9994,7698.6377,-12.779074,-0.60093814,-2.3964,0.738544,-0.09339683,19.896639,-0.05498569,-1.0382562,-0.025375508,0.33771703,0.005807126,-0.0024114763,0.3071359,0.43163562,0.42113394,0.54388183,2.3094673,0.5298614,1.9031036,0.70925593,66.88149,64.04374,63.308212,62.445183,0,0,0,0,0,0,0,0,0,0,0,0,-1.9359218,-1.5642643,-0.95437205,-0.8106463,3.0135415,1.6515677,2.1289973,1.0771219,-0.016209252,-0.006565502,-0.0045258515,0.004377201,36,6,231,2,6,807.40466,174.99547,-1400.8322,19.910559,293463.9,364.1272,152.211,155.04721,150.60176,150.60176,36.52272,1,406.2842,0,0,14.259875,14.259872,0,6,255,0,0,0,1,-127,24,0
True,11465812,10999.993,999.9994,7823.4976,-14.906688,0.0054891147,7.066969,1.3353057,-0.22371177,20.56528,-0.047063857,-1.0177994,-0.05591488,0.23808387,-0.00020265601,-0.007199922,0.32537135,0.47889382,0.45819926,0.61610466,2.7440875,0.4105967,1.4872462,0.4923299,70.90082,65.12863,63.869495,63.086258,0,0,0,0,0,0,0,0,0,0,0,0,-2.321604,-1.7655754,-1.149543,-0.9084397,3.594421,1.8126904,1.8797208,1.0332721,-0.014796734,-0.0029048845,-0.0018374585,0.009615611,36,6,231,2,6,808.0544,174.97134,-1398.9958,20.6098,351437.12,428.9649,156.55351,156.69566,153.1972,153.1972,36.697918,1,407.43118,0,0,14.356061,14.356059,0,6,255,0,0,0,1,-127,8,0
True,11465937,10999.993,999.9994,8209.987,-15.719366,0.6645571,10.003573,1.710269,-0.14618757,21.468985,-0.00058337627,-0.9132531,-0.024098737,0.12592643,-0.0029590407,-0.010656101,0.3215115,0.4822688,0.532724,0.6773647,1.6775122,0.17635833,1.617473,0.68868107,70.31859,67.007065,67.69755,67.05325,0,0,0,0,0,0,0,0,0,0,0,0,-0.1821536,-0.1544768,-1.1963581,-1.0235196,1.6873728,0.23444688,2.011838,1.2336426,-0.015095718,-0.0026434604,0.0035679117,0.014058877,36,6,231,2,6,808.66113,174.95395,-1396.6224,21.537495,452462.66,526.44434,161.54773,158.59283,155.98648,155.98648,36.74125,1,408.92712,0,0,14.472498,14.472496,0,6,255,0,0,0,1,0,246,0
True,11466046,10999.993,999.9994,8754.14,-13.412643,0.5096923,12.10238,2.2632732,-0.12464626,22.648804,-0.039784655,-0.7720633,-0.010915833,0.029224018,-0.0051507773,-0.011953935,0.3895041,0.5447549,0.47514477,0.64289314,0.80636305,0.22813478,1.8817892,0.91356647,69.93942,70.64793,73.417915,71.90433,0,0,0,0,0,0,0,0,0,0,0,0,-0.49940345,-0.43414468,-1.3240633,-1.1288427,0.94848573,0.4904356,2.300929,1.4522016,-0.009829012,0.0021967124,-0.0006083809,0.011558611,36,6,231,2,6,809.0986,174.94534,-1394.0189,22.761946,569513.3,621.77344,160.59494,157.27133,159.38965,159.38965,36.74859,1,410.58124,0,0,14.591644,14.591643,0,6,255,0,0,0,1,0,229,0
True,11466156,10999.993,999.9994,9045.856,-9.143921,1.1390744,13.441513,2.919987,-0.1779894,23.711319,-0.0935222,-0.6122703,0.037476182,-0.040495947,-0.013256668,-0.010826645,0.40773475,0.5709699,0.513221,0.67370665,0.3741096,0.27703694,1.5472375,0.8501527,71.381096,73.991684,75.52399,74.61261,0,0,0,0,0,0,0,0,0,0,0,0,0.17937697,0.2789475,-1.3943646,-1.2204226,0.41489047,0.3931427,2.0828338,1.4873435,-0.008416865,0.004227329,0.002153337,0.013793554,36,6,231,2,6,809.32715,174.94846,-1391.7483,23.891102,619472.44,654.79974,159.2826,156.288,162.55655,162.55655,36.749683,1,412.03268,0,0,14.689442,14.689441,0,6,255,0,0,0,1,127,217,0
True,11466265,10999.993,999.9994,9444.665,-11.015515,1.8511701,13.976577,3.053223,-0.16948357,24.891525,-0.06254564,-0.3856047,-0.025403015,-0.08929404,-0.021488864,-0.007813908,0.4331512,0.56208646,0.6119842,0.7303416,0.64009684,0.27135366,1.3407984,0.81072724,77.518135,77.08256,78.66031,77.30374,0,0,0,0,0,0,0,0,0,0,0,0,-0.7034806,-0.6129992,-1.265396,-1.1131407,0.95110935,0.6703736,1.8436289,1.3770841,-0.0064481087,0.0035392214,0.00931675,0.017901354,36,6,231,2,6,809.4723,174.97025,-1389.3168,25.078655,736422.1,745.5606,157.9076,155.31586,165.49014,165.49014,36.74993,1,413.5928,0,0,14.788895,14.788895,0,6,255,0,0,0,1,0,206,0
True,11466375,10999.993,999.9994,9837.354,-16.416124,1.2608076,13.726147,2.0611897,-0.1959787,26.32854,-0.049460296,-0.30670923,-0.026668184,-0.13387908,-0.029546624,-0.009682099,0.3792259,0.5461265,0.5842236,0.7646871,1.3947864,0.26753926,1.0746201,0.5748169,86.76379,80.85044,81.161476,79.437645,0,0,0,0,0,0,0,0,0,0,0,0,-0.6561967,-0.5835844,-0.8441013,-0.72961646,1.5414354,0.64198756,1.3664975,0.9288458,-0.010625162,0.0023029596,0.0073032416,0.020392478,36,6,231,2,6,809.4295,175.02702,-1386.1194,26.409826,611667,593.9228,157.79327,154.44421,167.1356,167.1356,36.749958,1,415.65778,0,0,14.913176,14.9131775,0,6,255,0,0,0,1,0,196,0
True,11466484,10999.993,999.9994,9995.018,-16.47457,0.9478246,14.340219,0.93502545,-0.20849574,27.653416,-0.050574824,-0.1418782,-0.006571179,-0.15608078,-0.033966046,-0.011118669,0.39423913,0.581236,0.5328843,0.730744,0.58064103,0.077344224,0.6030751,0.21190645,84.47766,82.236305,82.71911,81.461235,0,0,0,0,0,0,0,0,0,0,0,0,-0.2823043,-0.25515658,-0.37456602,-0.33231315,0.64563125,0.26662147,0.70992905,0.39412737,-0.009462237,0.0050225407,0.0035795383,0.017930541,36,6,231,2,6,809.1773,175.09259,-1383.389,27.670002,-373424.6,-355.04993,157.17712,153.67012,166.28249,166.28249,34.069214,1,417.40793,0,0,15.014631,15.014632,0,6,255,0,0,0,1,0,195,0
True,11466593,10999.993,999.9994,7249.3813,-10.321186,1.023933,5.95223,0.07828665,-0.1696223,28.022188,-0.013623716,-0.107068546,0.033822767,-0.1644395,-0.036266953,-0.009615502,0.38981164,0.5571281,0.54981333,0.73598087,0.96834165,0.5383286,2.211073,1.5960827,89.58315,86.65867,95.34725,92.45268,0,0,0,0,0,0,0,0,0,0,0,0,-0.3218787,-0.29983842,-0.067045346,-0.061333045,1.0204369,0.6161986,2.2120893,1.5972607,-0.009805192,0.0031551402,0.00480742,0.018310376,36,6,231,2,6,808.7503,175.17496,-1380.4891,28.022812,325702.88,426.34305,155.8695,152.79993,164.6282,164.6282,8.149816,1,419.3027,0,0,15.120133,15.120134,0,6,255,0,0,0,2,-91,198,0
True,11466703,10999.993,999.9994,6853.389,-4.551221,1.1925678,13.549721,0.12721825,-0.20831174,29.640919,-0.08646292,-0.117390595,0.03300915,-0.18173593,-0.042355794,-0.00525031,0.47338653,0.59299505,0.55382603,0.67433625,0.25574762,0.2320161,0.46935344,0.39045542,89.704346,90.13277,86.94572,86.882195,0,0,0,0,0,0,0,0,0,0,0,0,0.017384287,0.018943807,-0.08195906,-0.07604146,0.25633776,0.23278819,0.4764556,0.3977911,-0.0033314787,0.0059333947,0.005098466,0.013839219,36,6,231,2,6,808.2156,175.27791,-1377.4015,29.641922,787348.3,1098.3346,154.67595,152.00002,163.87622,163.87622,31.027843,1,421.32617,0,0,15.228697,15.228698,0,6,255,0,0,0,2,0,203,0
True,11466812,10999.993,999.9994,7209.1406,-2.653233,2.1433802,15.596834,0.070700645,-0.2775035,31.304014,-0.09803827,-0.030741345,0.026688103,-0.18873508,-0.052289855,-0.0020299288,0.4699976,0.5595138,0.64773494,0.72164273,0.23637597,0.21172927,0.38696015,0.36347866,94.81551,94.79175,91.384834,91.34411,0,0,0,0,0,0,0,0,0,0,0,0,-0.010675125,-0.008956825,-0.034097146,-0.028536111,0.2366169,0.21191864,0.3884595,0.36459708,-0.003593985,0.0033399407,0.011909794,0.017270412,36,6,231,2,6,807.6225,175.40579,-1374.1898,31.305323,860954.56,1141.7617,153.51122,151.22256,162.49068,162.49068,35.6414,1,423.4342,0,0,15.335889,15.335889,0,6,255,0,0,0,2,0,209,0
True,11466921,10999.993,999.9994,7363.4463,-1.0222429,2.321517,2.7298772,-0.3699317,-0.36273384,31.766653,-0.04018075,0.19865352,0.052932497,-0.17713225,-0.064064145,0.001829234,0.5239921,0.5036629,0.79200435,0.7998696,0.3227683,0.7902068,0.31211498,0.4265747,97.43098,100.194214,92.729706,92.79836,0,0,0,0,0,0,0,0,0,0,0,0,0.68868715,0.7838758,0.13589178,0.1505771,0.7605717,1.1130534,0.34041494,0.4523709,0.0005884301,-0.0009862687,0.022373825,0.022944301,36,6,231,2,6,806.86847,175.5999,-1370.2124,31.770876,872880.56,1132.3813,152.3183,150.48486,160.97108,160.97108,36.593365,1,426.04724,0,0,15.46371,15.46371,0,6,255,0,0,0,2,127,216,0
True,11467031,10999.993,999.9994,7633.2827,2.0302544,1.6104524,6.729168,-0.7864075,-0.23141336,32.67204,-0.044538204,0.1495772,0.025702653,-0.15061711,-0.067273036,0.003836612,0.5166855,0.45124674,0.7553923,0.6986152,0.25376773,0.42873448,0.4355276,0.64090896,99.57585,100.29475,96.36299,97.36716,0,0,0,0,0,0,0,0,0,0,0,0,0.15982422,0.17305934,0.23784383,0.26332355,0.29990306,0.46234488,0.49623984,0.69289505,2.2457913E-05,-0.0050464254,0.019718312,0.015600201,36,6,231,2,6,806.1663,175.82341,-1366.3662,32.682323,840077.8,1051.3855,151.3495,149.97858,159.67706,159.67706,36.725567,1,428.5732,0,0,15.585144,15.585144,0,6,255,0,0,0,2,0,222,0
True,11467125,10999.993,999.9994,7746.1846,2.8503122,1.5683191,6.5730686,-0.7779646,-0.2919762,33.243595,-0.087587796,0.044739746,0.02337773,-0.14196861,-0.07370199,0.005578947,0.5049698,0.42606434,0.6636191,0.57064354,0.24241255,0.45657757,0.4241572,0.5766,100.95975,102.546234,97.68938,98.715454,0,0,0,0,0,0,0,0,0,0,0,0,0.20624433,0.22101746,0.20263779,0.22288287,0.3182775,0.5072591,0.47007596,0.61817825,-0.00088503957,-0.006997058,0.0130618885,0.00631826,36,6,231,2,6,805.6349,176.01991,-1363.299,33.253975,843232.1,1039.6974,150.5467,149.49997,158.77298,158.77298,36.744286,1,430.58035,0,0,15.680029,15.680028,0,6,255,0,0,0,2,0,226,0
True,11467250,10999.993,999.9994,7886.8647,2.4493303,2.594116,8.112858,-0.42058182,-0.34153318,34.17943,-0.052459333,-0.045285273,0.00482182,-0.14293027,-0.0826588,0.0071886918,0.5016682,0.41878545,0.7442044,0.6393244,0.2701369,0.38764316,0.3600707,0.4074536,103.689285,105.0145,99.471214,100.07874,0,0,0,0,0,0,0,0,0,0,0,0,0.14513351,0.15537453,0.08857358,0.0978218,0.30665565,0.4176224,0.3708048,0.41903165,-0.0011407807,-0.007560881,0.01890684,0.011299767,36,6,231,2,6,805.03455,176.27672,-1359.593,34.18372,872857.7,1057.1418,149.66321,148.96269,157.7583,157.7583,36.748962,1,433.0121,0,0,15.791671,15.79167,0,6,255,0,0,0,2,0,229,0
True,11467359,10999.993,999.9994,8014.769,-1.423038,1.0335209,3.9908729,-0.3982358,-0.32834458,34.54744,-0.014518824,-0.06548945,-0.0033660654,-0.14926076,-0.086374976,0.0075623197,0.391994,0.34916338,0.68114156,0.6020017,0.30531165,0.49175578,0.40498132,0.43569297,105.32042,107.217514,101.0952,101.5647,0,0,0,0,0,0,0,0,0,0,0,0,0.122669846,0.13094361,0.059414957,0.06568867,0.32903358,0.5088909,0.4093165,0.44061702,-0.009636145,-0.012953802,0.014332816,0.008592706,36,6,231,2,6,804.4175,176.57585,-1355.7195,34.551292,792518.44,944.64417,148.8165,148.45073,156.7662,156.7662,36.749817,1,435.55435,0,0,15.906531,15.906531,0,6,255,0,0,0,2,0,233,0
True,11467468,10999.993,999.9994,8181.532,-3.6019368,0.4266879,6.306639,-0.3409171,-0.3137262,35.162437,-0.019914294,-0.25140962,-0.03458663,-0.16366924,-0.08756694,0.0066134357,0.42054814,0.37786853,0.5964879,0.5821007,0.4899395,0.33832526,0.49509963,0.37355313,108.52358,108.446625,103.426025,103.447784,0,0,0,0,0,0,0,0,0,0,0,0,-0.5296545,-0.48579937,0.008984838,0.012834084,0.72150856,0.59200084,0.49518117,0.37377355,-0.0074243415,-0.010730304,0.008192781,0.0071492605,36,6,231,2,6,803.86865,176.83289,-1352.4609,35.165485,830541.5,969.99243,148.21031,148.0784,156.00858,156.00858,36.749954,1,437.6957,0,0,16.001562,16.00156,0,6,255,0,0,0,2,-127,236,0
True,11467578,10999.993,999.9994,8427.9795,-7.856962,0.69128585,11.525851,0.16328287,-0.3667121,36.416595,-0.026111934,-0.4468268,-0.06584743,-0.19947001,-0.089875214,0.0043598027,0.4160628,0.41105092,0.62699825,0.6389821,0.672406,0.26631227,0.50615346,0.29477125,113.039406,111.63158,106.363556,106.41454,0,0,0,0,0,0,0,0,0,0,0,0,-0.68940043,-0.6049751,-0.15774986,-0.1405406,0.9630175,0.66099703,0.5301664,0.3265605,-0.007771775,-0.008159995,0.010405734,0.011274941,36,6,231,2,6,803.2251,177.112,-1348.981,36.418808,867906.75,983.9803,147.77744,147.8362,155.29831,155.29831,36.749958,1,439.98724,0,0,16.100695,16.100693,0,6,255,0,0,0,2,-5,241,0
True,11467687,10999.993,999.9994,8749.143,-8.5791235,-0.006105125,12.0571375,0.6559868,-0.30161047,37.85828,0.033714823,-0.21899745,-0.011122104,-0.24275833,-0.088765524,0.0038833772,0.40721247,0.48871374,0.60396004,0.6571693,0.46546495,0.20200847,0.51054996,0.3435331,116.18784,114.844,111.02849,110.476,0,0,0,0,0,0,0,0,0,0,0,0,-0.08984766,-0.07718158,-0.21978748,-0.20123187,0.4740572,0.21625082,0.5558487,0.3981322,-0.008457322,-0.0021442305,0.008734748,0.012594078,36,6,231,2,6,802.2747,177.4805,-1344.5363,37.865166,849352.4,927.66046,147.13673,147.372,154.50304,154.50304,36.749958,1,442.9249,0,0,16.223372,16.22337,0,6,255,0,0,0,2,0,250,0
True,11467781,10999.993,999.9994,8991.248,-7.480301,-0.55666065,12.2604,0.4728098,-0.3045504,39.057224,0.0026580568,-0.090313874,0.01002579,-0.25737214,-0.086778715,0.005560258,0.39456004,0.47713438,0.585224,0.67398375,0.31138754,0.2236261,0.44091427,0.33887583,118.746124,118.36867,114.12417,113.59684,0,0,0,0,0,0,0,0,0,0,0,0,-0.09309308,-0.085126504,-0.13676627,-0.12555768,0.3250054,0.23928049,0.4616388,0.3613884,-0.009437379,-0.0030411687,0.0073757954,0.013813652,36,6,231,2,6,801.3792,177.78671,-1340.8137,39.06127,857542.06,911.0818,146.60329,146.9904,153.8923,153.8923,36.749958,1,445.39105,0,0,16.323204,16.323202,0,6,255,0,0,0,2,0,4,0
True,11467890,10999.993,999.9994,9286.746,-4.0995164,-1.0094515,11.242977,0.17320347,-0.32193065,40.423058,0.049738627,-0.010891034,0.0060611535,-0.26247132,-0.08505718,0.007106014,0.4318799,0.49792686,0.54907227,0.64292336,0.4250195,0.38733205,0.34858942,0.31838614,124.240295,123.899414,117.26158,117.03574,0,0,0,0,0,0,0,0,0,0,0,0,-0.047678765,-0.037396528,-0.043703455,-0.039633095,0.42768544,0.38913316,0.35131833,0.32084343,-0.006546583,-0.001430586,0.004753668,0.011560801,36,6,231,2,6,800.2016,178.15674,-1336.2595,40.424706,839405,863.8489,145.97668,146.56406,153.17284,153.17284,36.749958,1,448.41684,0,0,16.441835,16.441832,0,6,255,0,0,0,2,0,18,0
True,11468015,10999.993,999.9994,8979.581,-1.0890299,-4.1873393,5.9627438,0.048160553,-0.2381351,41.15863,0.16212212,0.008417562,0.0016786829,-0.2619177,-0.06939717,0.007210435,0.32091078,0.36758223,0.46766227,0.5089877,0.035892423,0.018911064,0.014921827,0.016515408,122.08707,121.90676,115.133316,115.111145,0,0,0,0,0,0,0,0,0,0,0,0,-0.020442802,-0.012389553,-0.010843136,-0.008500393,0.041305862,0.02260817,0.018445447,0.01857459,-0.01514225,-0.011527081,-0.0011510961,0.0018462874,36,6,231,2,6,799.0092,178.48796,-1331.7743,41.159348,-235974.75,-250,145.46893,146.25404,152.47412,152.47412,14.855559,1,451.39804,0,0,16.555592,16.555588,0,6,255,0,0,0,2,0,32,0
True,11468109,10999.993,999.9994,6677.141,0.25699726,-5.0918193,2.5419192,0.034496307,-0.11618698,41.298683,0.08668386,0.03532489,0.019597782,-0.26055813,-0.05198766,0.008055694,0.3227512,0.3416092,0.4083803,0.39769685,0.16272941,0.20876761,0.84258115,0.9837698,124.26822,124.56564,124.820244,125.93831,0,0,0,0,0,0,0,0,0,0,0,0,0.15594779,0.16314128,-0.000961936,-0.0001726917,0.22538984,0.26495093,0.8425817,0.9837698,-0.014999692,-0.013538949,-0.0054508895,-0.006225772,36,6,231,2,6,797.8521,178.73763,-1327.4388,41.29886,364722.62,519.92535,144.8732,145.82721,151.71536,151.71536,10.483407,1,454.277,0,0,16.664848,16.664845,0,6,255,0,0,0,3,32,46,0
True,11468234,10999.993,999.9994,6662.355,3.989193,-2.1767097,9.210621,-0.19626808,-0.23951423,42.574753,0.01372629,0.20988369,0.040089235,-0.24194376,-0.0491002,0.010637519,0.3547143,0.42122847,0.41810507,0.39601657,0.25578994,0.25706115,0.303991,0.42404103,129.63898,128.48051,123.58243,123.85811,0,0,0,0,0,0,0,0,0,0,0,0,-0.04371604,-0.03972284,0.08231672,0.08826337,0.25949872,0.26011217,0.314939,0.43312955,-0.01252383,-0.0073716436,-0.0047455393,-0.006347645,36,6,231,2,6,796.5117,178.98325,-1322.257,42.575874,819806.1,1175.9313,144.38428,145.5361,151.13664,151.13664,33.018883,1,457.70462,0,0,16.792591,16.792585,0,6,255,0,0,0,3,0,62,0
True,11468343,10999.993,999.9994,6832.442,4.3207273,-1.2171999,10.936694,-0.3926916,-0.3053968,43.770657,-0.0011115419,0.08568598,0.050819732,-0.22670646,-0.047987767,0.015109076,0.3539602,0.42308676,0.5013368,0.49790457,0.18578231,0.2149188,0.302192,0.38033116,132.1718,132.01595,126.74033,127.16371,0,0,0,0,0,0,0,0,0,0,0,0,0.054041557,0.05760072,0.09257855,0.09967712,0.19348271,0.2225038,0.31605506,0.39317593,-0.012582244,-0.0072277,0.0012913607,0.0010424145,36,6,231,2,6,795.40204,179.17744,-1317.7468,43.773483,861266.9,1204.4387,143.95386,145.25993,150.66898,150.66898,36.030933,1,460.6891,0,0,16.900234,16.900229,0,6,255,0,0,0,3,0,75,0
True,11468468,10999.993,999.9994,7011.782,3.4845295,-0.13304612,10.995657,-0.19985199,-0.32418942,45.08082,0.02084776,0.013540627,0.05331032,-0.22136566,-0.048702016,0.020356182,0.33569553,0.43013036,0.541351,0.5369287,0.23787276,0.19268647,0.2674895,0.31025076,136.5143,135.8674,129.90886,130.30606,0,0,0,0,0,0,0,0,0,0,0,0,0.035269655,0.03870668,0.037171587,0.04113801,0.24047329,0.1965357,0.2700599,0.31296623,-0.013997024,-0.0066821016,0.0041936375,0.0038728826,36,6,231,2,6,794.20624,179.39401,-1312.6359,45.082424,871486.25,1187.7373,143.5074,144.96745,150.19864,150.19864,36.632004,1,464.06622,0,0,17.018425,17.018421,0,5,255,0,0,0,3,0,89,0
True,11468562,10999.993,999.9994,7168.127,1.597333,-0.17892191,10.862075,-0.10730362,-0.33111858,46.18955,-0.008633293,0.0025734003,0.0903524,-0.22058368,-0.04822413,0.027574955,0.33674392,0.46710265,0.48800778,0.6077636,0.18555112,0.17624551,0.2610528,0.2712217,139.23228,139.12161,132.97498,133.0705,0,0,0,0,0,0,0,0,0,0,0,0,0.014572759,0.017888393,0.014221322,0.017016795,0.18612249,0.177151,0.26143986,0.271755,-0.0139158135,-0.003818227,0.00032458827,0.00901062,36,6,231,2,6,793.16797,179.58557,-1308.0763,46.19086,874010.25,1164.9375,143.15045,144.72359,149.81537,149.81537,36.725376,1,467.07666,0,0,17.120953,17.120949,0,5,255,0,0,0,3,0,100,0
True,11468671,10999.993,999.9994,7353.43,0.62504745,-0.56783897,10.282858,-0.06317139,-0.3202281,47.27758,0.048956923,-0.001647824,0.07354234,-0.22056825,-0.04695264,0.03655898,0.30614322,0.43666625,0.4973512,0.5913763,0.246666,0.25763804,0.27964744,0.287433,143.15091,143.31758,136.28436,136.38057,0,0,0,0,0,0,0,0,0,0,0,0,0.006942052,0.012525059,0.0061733495,0.008739128,0.24676366,0.25794232,0.27971557,0.28756583,-0.016286146,-0.006175831,0.0010022782,0.007822033,36,6,231,2,6,792.0816,179.78807,-1303.2649,47.278706,874735.94,1136.8646,142.7994,144.48442,149.44472,149.44472,36.745106,1,470.32593,0,0,17.22654,17.226536,0,5,255,0,0,0,3,0,111,0
True,11468781,10999.993,999.9994,7536.032,0.01377511,-1.9535391,9.907042,-0.06486893,-0.20964551,48.32524,0.081971936,0.0058776196,0.09704997,-0.2204638,-0.03906864,0.046515524,0.109203115,0.4645214,0.34391868,0.46140724,0.57989824,0.101987295,0.2658361,0.34903005,149.97298,144.56204,139.12189,140.04626,0,0,0,0,0,0,0,0,0.120000005,0,0.120000005,0,0.0038014129,0.0046280003,0.0074432343,0.0075099403,0.5799107,0.102092244,0.26594028,0.34911084,-0.031541124,-0.0040181708,-0.010126367,-0.0016047806,36,6,231,2,6,790.96295,179.9752,-1298.2996,48.325737,843472.44,1068.8505,142.40588,144.26593,149.1052,149.1052,36.749043,1,473.61145,0,0,17.33308,17.333075,0,5,255,0,0,0,3,0,123,0
True,11468890,10999.993,999.9994,7614.6235,-0.8605337,-0.08743051,6.7777824,-0.07767868,-0.45061135,49.005684,-0.116524935,-0.007868728,0.22724277,-0.22159049,-0.043566514,0.06934164,0.40661967,0.5617716,0.20272109,0.5990223,0.17638132,0.21161827,0.2615038,0.2523422,146.13599,148.55405,141.43225,141.46646,0,0,0,0,0,0,0,0,0.120000005,0,0.120000005,0,0.007859732,0.015561806,0.0040058955,0.0057896604,0.17655635,0.21218969,0.26153448,0.2524086,-0.00850324,0.0035148244,-0.0203676,0.0083766095,36,6,231,2,6,789.7838,180.15483,-1293.0905,49.007812,874227.56,1095.141,142.12689,144.05064,148.73926,148.73926,36.74982,1,477.0583,0,0,17.442863,17.442856,0,5,255,0,0,0,3,0,127,0
True,11469000,10999.993,999.9994,7685.048,-0.7984694,4.1495695,7.4316897,-0.051054,-0.47074795,49.6651,-0.13058135,-0.036651593,-0.0033944342,-0.22533517,-0.05692075,0.07947012,0.6142612,0.61493844,0.5390885,0.72232217,0.13347188,0.13480943,0.14800817,0.13810655,150.07077,149.94394,142.29991,142.48521,0,0,0,0,0,0,0,0,0.120000005,0,0.120000005,0,0.011167679,0.013434004,-0.0042582555,-0.0035531858,0.13393827,0.13547714,0.14806941,0.13815226,0.007580675,0.007633131,0.0040295348,0.017319694,36,6,231,2,6,788.59503,180.37447,-1287.8575,49.667355,873964.94,1085.5901,141.89214,143.85121,148.4822,148.4822,36.749954,1,480.5225,0,0,17.551474,17.551466,0,5,255,0,0,0,3,0,127,0
True,11469109,10999.993,999.9994,7787.3994,-1.5673401,4.5095406,2.5403502,0.03164482,-0.44361162,49.95041,0.0066526756,-0.051606692,-0.19661681,-0.22956951,-0.0654847,0.08130997,0.5529244,0.60559165,0.81979954,0.69966996,0.58123827,0.12752359,0.11787427,0.35571095,155.6518,149.82483,143.26343,144.90271,0,0,0,0,0,0,0,0,0.120000005,0,0.120000005,0.120000005,-0.21471363,-0.17107841,-0.006291988,0.00019777348,0.6196288,0.2133778,0.11804208,0.355711,0.00282952,0.0069091283,0.024389848,0.015676703,36,6,231,2,6,787.3684,180.66414,-1282.5217,49.95239,873547.9,1072.9587,141.647,143.6649,148.22893,148.22893,36.749958,1,484.79575,0,0,17.661581,17.661573,0,5,255,0,0,0,3,-83,127,0
True,11469218,10999.993,999.9994,7964.809,-7.592845,1.8803607,0.43432188,0.10755825,-0.32414603,49.96075,-0.02143945,-0.3054426,0.0228765,-0.2502215,-0.065383956,0.06773209,0.49721676,0.6304709,0.71774626,0.7305751,0.57219446,0.20654993,0.7720277,0.3323077,154.16571,152.23595,149.94229,146.48347,0,0,0,0,0,0,0,0,0.120000005,0,0.120000005,0,-0.61766356,-0.6400798,-0.1016828,-0.0745637,0.84197074,0.6725809,0.7786951,0.34057033,-0.0014855899,0.008836273,0.016987797,0.017918289,36,6,231,2,6,786.0624,180.99252,-1277.1625,49.961914,872424.7,1048.2019,141.44797,143.62459,147.9775,147.9775,36.749958,1,488.3599,0,0,17.772188,17.772179,0,5,255,0,0,0,3,-109,127,0
True,11469328,10999.993,999.9994,7902.041,-8.29347,0.101961166,5.5793266,0.79899406,-0.46511865,50.722263,-0.04534138,-0.25886437,-0.041244715,-0.28459573,-0.06651107,0.06696901,0.5426195,0.48426774,0.56017613,0.73509735,0.2189402,0.2783263,0.28049254,0.3388875,153.5476,154.82042,145.20021,147.65909,0,0,0,0,0,0,0,0,0.120000005,0,0.120000005,0,-0.09295402,-0.07938683,-0.1709545,-0.17870414,0.23785555,0.28942668,0.32848364,0.3831187,0.0020313077,-0.0024886187,0.005559046,0.018246293,36,6,231,2,6,784.6764,181.31145,-1271.93,50.73069,872594.75,1051.5236,141.29095,143.54977,147.7542,147.7542,36.749958,1,491.8626,0,0,17.880003,17.879993,0,5,255,0,0,0,3,0,127,0
True,11469453,10999.993,999.9994,8121.874,-9.34701,0.54146886,8.005633,0.6154156,-0.3543961,51.75622,-0.0668951,-0.13306081,-0.0037101647,-0.3055644,-0.0659748,0.06137283,0.8329976,0.51375914,0.46556062,0.68809885,0.07692848,0.18522021,0.5642437,0.32230917,154.4376,156.62856,152.74205,149.91612,0,0,0,0,0,0,0,0,0,0,0.120000005,0,-0.053065352,-0.059126448,-0.15115438,-0.12130588,0.093455456,0.19442855,0.58413917,0.34438106,0.024523992,-0.00020421669,-0.0013035312,0.014837436,36,6,231,2,6,782.93225,181.68497,-1265.9362,51.76109,870913.4,1024.1553,141.08757,143.39403,147.53418,147.53418,36.749958,1,496.4697,0,0,18.001993,18.001982,0,5,255,0,0,0,3,0,112,0
True,11469546,10999.993,999.9994,8127.9834,-4.149378,3.052,8.903052,0.61288166,-0.22859788,52.593513,0.023617953,0.050141767,-0.1564736,-0.3100566,-0.06991791,0.050869167,0.7954915,0.49406725,0.841313,0.62146854,0.19588305,0.13255848,0.21947598,0.22044654,158.55067,157.68675,150.86171,150.63748,0,0,0,0,0,0,0,0,0,0,0,0,0.12810007,0.13544275,-0.08706242,-0.082982406,0.23405084,0.18951645,0.23611347,0.23554778,0.021618772,-0.0017295517,0.025950246,0.010004658,36,6,231,2,6,781.5847,181.97832,-1261.5187,52.59758,870881.94,1023.69824,140.95447,143.30316,147.41241,147.41241,36.749958,1,499.39743,0,0,18.090628,18.090614,0,5,255,0,0,0,3,37,93,0
True,11469656,10999.993,999.9994,8333.15,-0.5836239,-1.987172,8.188212,-0.012326241,-0.2809689,53.544292,0.029751644,0.12736392,-0.066570565,-0.29849645,-0.06588737,0.039674137,0.56854856,0.40679234,0.68931127,0.5458439,0.17968918,0.22794195,0.30123866,0.32759997,161.54208,161.55562,154.80283,154.622,0,0,0,0,0,0,0,0,0,0,0,0,0.15019435,0.16057676,0.025954014,0.029424537,0.23419338,0.2788233,0.30235466,0.32891876,0.00403977,-0.008489866,0.014925372,0.004519511,36,6,231,2,6,779.82764,182.35957,-1255.8204,53.54503,868553.25,995.6296,140.76257,143.16914,147.21558,147.21558,36.749958,1,503.18,0,0,18.2032,18.203186,0,5,255,0,0,0,3,49,62,0
True,11469765,10999.993,999.9994,8430.291,7.2889285,-0.2984683,8.254641,-0.46519756,-0.33015394,54.46356,0.020670896,0.31707478,0.009539518,-0.27360353,-0.067092836,0.03577467,0.55753434,0.43173894,0.6784895,0.5737208,0.20257774,0.41338593,0.16770984,0.24659203,164.94128,166.19609,156.08118,155.7505,0,0,0,0,0,0,0,0,0,0,0,0,0.67844594,0.76329505,0.11804327,0.12873426,0.70804423,0.868048,0.20508732,0.27817285,0.0031866096,-0.0065575037,0.014140457,0.006541457,36,6,231,2,6,778.1305,182.71579,-1250.1584,54.46654,867290.75,983.02155,140.69606,143.13953,147.0727,147.0727,36.749958,1,506.9225,0,0,18.31279,18.312773,0,5,255,0,0,0,3,114,29,0
True,11469890,10999.993,999.9994,8601.034,8.794502,-2.23845,8.44119,-1.1597366,-0.31257343,55.328938,0.030064559,0.20111942,0.0005428833,-0.24228416,-0.06291644,0.03388097,0.45689875,0.32592866,0.5708464,0.46158966,0.142523,0.25982296,0.23992094,0.3533839,166.63403,167.17119,159.37271,159.90898,0,0,0,0,0,0,0,0,0,0,0,0,0.14797585,0.16113189,0.21185412,0.23314442,0.2054499,0.30573103,0.3200691,0.42336333,-0.004608622,-0.014753566,0.006332971,-0.0015915483,36,6,231,2,6,776.51135,183.06999,-1244.361,55.34197,864639.94,960.2125,140.6286,143.12625,146.9695,146.9695,36.749958,1,510.71738,0,0,18.422619,18.4226,0,5,255,0,0,0,3,0,0,0
True,11470000,10999.993,999.9994,8555.915,-1.1067314,0.4718123,1.4492168,-2.3110247,-0.2954626,55.510628,-0.02167657,0.13741602,0.061857693,-0.22532818,-0.063889004,0.035334427,0.55050075,0.39539713,0.6109826,0.45645714,0.120184936,0.28587285,0.1391284,0.22575429,166.38226,167.92525,158.24359,158.73035,0,0,0,0,0,0,0,0,0,0,0,0,0.787006,0.9062083,0.3381746,0.3923757,0.79612994,0.9502298,0.3656758,0.45268497,0.0026417878,-0.009372538,0.009244099,-0.0019638166,36,6,231,2,6,774.84863,183.42097,-1238.2932,55.559494,592874.5,661.64075,140.62747,143.11804,146.95049,146.95049,36.749958,1,514.7428,0,0,18.536148,18.536127,0,5,178,2,0,0,3,127,227,255
True,11470109,10999.993,999.9994,7351.494,3.3043985,-1.0517535,-12.693793,-2.3150072,0.046044588,53.781265,0.07715403,0.0931199,-0.031860933,-0.21514875,-0.05747547,0.036730204,0.5678613,0.34717187,0.5945912,0.3990098,-0.6953153,-0.44138938,-0.6672888,-1.4147998,148.80803,151.4807,139.76106,128.92941,0,0,0,0,0,0,0,0,0,0,0,0,1.2030653,1.360134,0.41175756,0.4419716,1.3895428,1.4299612,0.7841037,1.4822272,0.0039865393,-0.013108068,0.008055214,-0.0061305426,36,6,231,2,6,773.1369,183.80362,-1231.9563,53.83108,73542.984,95.32518,141.3692,144.06538,146.99042,146.99042,36.73598,1,518.9407,0,0,18.656324,18.656303,0,5,0,255,0,0,3,127,202,129
True,11470234,10999.993,999.9994,6947.7905,3.6138196,-2.1051712,-16.611454,-2.9254637,0.15918446,51.77384,0.054415375,0.2380253,-0.03885682,-0.19571772,-0.050907243,0.030497177,0.6320492,0.3616879,0.46307546,0.24764702,-0.34094134,-0.5719857,-0.71572584,-1.9716711,147.73038,143.3737,135.35101,116.53263,0,0,0,0,0,0,0,0,0,0,0,0,1.2846675,1.4368575,0.55780554,0.6054135,1.3291395,1.546521,0.9074197,2.0625257,0.00895853,-0.011983655,-0.0014837831,-0.017109068,36,6,231,2,6,771.57196,184.13977,-1225.9988,51.856667,-107960.42,-148.71344,143.0029,145.66171,148.1783,148.1783,13.507085,1,523.30963,0,0,18.773056,18.773033,0,5,72,255,0,0,3,127,190,129
True,11470328,10999.993,999.9994,7805.743,7.57656,-1.3859942,-7.394938,-3.442935,0.16019344,51.108192,0.007146675,0.2613372,0.0010364167,-0.17181538,-0.04906257,0.028042214,0.5266566,0.3141283,0.44451612,0.22319022,0.06697286,0.08699276,0.07030531,0.18134739,151.9436,150.81458,144.78923,145.02129,0,0,0,0,0,0,0,0,0,0,0,0,1.3689065,1.5732901,0.6295301,0.7229991,1.3705438,1.5756932,0.6334437,0.74539554,0.00079482235,-0.015667621,-0.002829913,-0.018882949,36,6,231,2,6,770.4258,184.37985,-1221.4757,51.22428,290428.62,355.67297,144.27124,146.88492,148.24751,148.24751,25.677334,1,526.3315,0,0,18.863943,18.86392,0,5,255,0,0,0,3,121,189,0
True,11470453,10999.993,999.9994,8181.1045,11.351072,-0.33650964,5.53766,-3.534965,-0.15225625,51.70277,-0.082190424,0.17607911,0.013140048,-0.1448892,-0.05428991,0.028104803,0.51219654,0.25487074,0.44372603,0.2013748,0.16551112,0.69908226,0.3276306,0.5747635,156.25296,162.19373,150.75476,152.67485,0,0,0,0,0,0,0,0,0,0,0,0,0.59848744,0.6972313,0.5739301,0.68262315,0.6209518,0.98734367,0.66086125,0.8923718,-0.00032525696,-0.020257711,-0.0028872192,-0.020465247,36,6,231,2,6,769.0607,184.67621,-1215.6086,51.8237,847312,989.409,144.91673,147.4077,148.41309,148.41309,34.90126,1,530.23535,0,0,18.98115,18.981127,0,5,255,0,0,0,3,0,194,0
True,11470578,10999.993,999.9994,8400.704,9.608209,-2.252131,8.060379,-2.3304281,-0.3524747,52.775238,0.059267238,-0.09815097,-0.049281955,-0.14278531,-0.054580737,0.025323879,0.3681589,0.12368754,0.5607653,0.28346136,0.2733575,1.0677758,0.43830052,0.5775902,159.94969,170.8295,154.32903,156.18245,0,0,0,0,0,0,0,0,0,0,0,0,0.49939424,0.52821684,0.37708595,0.41556668,0.5693144,1.1912843,0.5781878,0.71155196,-0.011482409,-0.030419163,0.0056017824,-0.01451141,36,6,231,2,6,767.8104,184.98988,-1209.411,52.827835,755932.2,859.5624,144.8167,147.69083,148.62625,148.62625,36.45926,1,534.3348,0,0,19.102049,19.102028,0,5,255,0,0,0,3,0,202,0
True,11470687,10999.993,999.9994,8415.263,1.8724096,-1.9102722,11.052441,-1.0675211,-0.42337084,54.056446,0.0051188185,-0.2342263,-0.04158425,-0.16544314,-0.04956308,0.019816091,0.36081403,0.1453678,0.48666725,0.27273193,0.16667168,0.3287894,0.28903806,0.31688046,162.06331,165.41794,155.4525,156.68431,0,0,0,0,0,0,0,0,0,0,0,0,0.27144885,0.28808793,0.13100998,0.14232457,0.31853402,0.43714657,0.31734306,0.34737515,-0.012051345,-0.02873981,0.00022735819,-0.015289629,36,6,231,2,6,766.6246,185.2662,-1203.1573,54.06864,867081.44,984.1676,144.59222,147.55951,148.64987,148.64987,36.703068,1,538.6258,0,0,19.221249,19.221231,0,5,255,0,0,0,3,0,213,0
True,11470812,10999.993,999.9994,8581.582,-5.2593374,-1.0097895,10.633872,-0.15305805,-0.42244983,55.280598,0.02188078,-0.20607617,-0.036569264,-0.19220768,-0.04765463,0.01643772,0.33635372,0.20966037,0.52741784,0.3686907,0.1894575,0.22171016,0.29417482,0.2595175,166.11336,167.60533,158.98471,159.38716,0,0,0,0,0,0,0,0,0,0,0,0,0.09019593,0.09486518,-0.012719291,-0.010222121,0.20983197,0.24115306,0.29444966,0.25971875,-0.013946042,-0.023759708,0.0031830482,-0.008329622,36,6,231,2,6,765.4205,185.52837,-1196.9127,55.28242,865271,963.231,144.35847,147.30594,148.58089,148.58089,36.74209,1,542.7111,0,0,19.337566,19.33755,0,5,255,0,0,0,3,0,232,0
True,11470921,10999.993,999.9994,8837.04,-4.101576,-3.4638875,7.0220337,0.3625183,-0.5935489,56.10295,-0.013539109,-0.12447706,-0.07099133,-0.21181467,-0.044276386,0.0113838315,0.36931685,0.29129654,0.52535224,0.47484088,0.16261078,0.14023182,0.54083407,0.46803296,168.98709,169.33829,165.0501,164.29535,0,0,0,0,0,0,0,0,0,0,0,0,-0.02627525,-0.021026965,-0.07246035,-0.06744848,0.16471994,0.14179948,0.5456666,0.472868,-0.011392717,-0.01743617,0.0030332282,-0.0006304234,36,6,231,2,6,764.08295,185.77977,-1190.3856,56.10726,859454.4,924.182,144.09831,147.02048,148.49864,148.49864,36.748726,1,546.98395,0,0,19.457256,19.457243,0,5,255,0,0,0,3,0,0,0
True,11471031,10999.993,999.9994,8829.339,-0.59965956,-1.385921,7.115791,0.3571968,-0.4292115,57.090015,0.06898431,0.10625739,-0.0081899,-0.21401837,-0.03959704,0.0060431166,0.3128634,0.29324132,0.5316287,0.49550804,0.17580874,0.21460296,0.21489015,0.24156533,172.04054,172.07477,163.71315,163.63638,0,0,0,0,0,0,0,0,0,0,0,0,0.3940973,0.42112178,-0.046162777,-0.044529818,0.43153378,0.47264993,0.21979259,0.24563533,-0.0157656,-0.017285526,0.0034884699,0.0008685924,36,6,231,2,6,762.73236,185.99985,-1183.9722,57.092747,860572.4,931.1688,143.90161,146.8,148.46542,148.46542,36.749783,1,551.1521,0,0,19.572983,19.57297,0,5,255,0,0,0,3,127,26,0
True,11471140,10999.993,999.9994,8906.746,4.0713444,-0.45588252,5.7792096,-0.6084366,-0.3360151,57.696117,-0.00273614,0.34055582,0.062602505,-0.18943349,-0.0367537,0.008729718,0.49809027,0.47323763,0.5172582,0.48054,0.1569964,0.3182511,0.13977192,0.2271159,173.97131,174.48927,165.06052,164.7858,0,0,0,0,0,0,0,0,0,0,0,0,0.8607782,1.0033823,0.109486744,0.12156755,0.8749783,1.0526443,0.17754869,0.25760493,-0.0014179293,-0.0033430122,0.0024461597,-0.00021705776,36,6,231,2,6,761.45886,186.19107,-1177.8671,57.700306,858976.94,921.2185,143.9526,146.8026,148.4072,148.4072,36.74995,1,555.1209,0,0,19.681662,19.681648,0,5,255,0,0,0,3,127,52,0
True,11471250,10999.993,999.9994,9057.193,10.176732,-0.32929525,5.060025,-1.8519745,-0.17669737,58.145817,0.036674775,0.4286796,0.021151073,-0.14732425,-0.0346683,0.01173359,0.61710024,0.4663985,0.66447455,0.5612718,0.21681854,0.5861877,0.19273289,0.36367315,176.02773,178.96016,167.37585,167.86192,0,0,0,0,0,0,0,0,0,0,0,0,1.0965601,1.2851695,0.31540424,0.3602425,1.11779,1.4125426,0.36962926,0.5118914,0.0078005865,-0.0038727708,0.013123937,0.0056385137,36,6,231,2,6,760.3021,186.38121,-1171.8999,58.17557,855778.44,902.8271,144.26021,147.20772,148.44444,148.44444,36.74995,1,558.9987,0,0,19.78666,19.786648,0,5,255,0,0,0,3,127,76,0
